instruct_resp_simon.keys,instruct_resp_simon.corr,instruct_resp_simon.rt,trial_resp_simon.keys,trial_resp_simon.corr,trial_resp_simon.rt,trials_train_simon.thisRepN,trials_train_simon.thisTrialN,trials_train_simon.thisN,trials_train_simon.thisIndex,trials_train_simon.ran,target_file,target_pos,target_resp,target_side,participant,date,expName,psychopyVersion,OS,frameRate,instruct_resp_timing.keys,instruct_resp_timing.corr,instruct_resp_timing.rt,trial_resp_timing.keys,trial_resp_timing.rt,trials_train_timing.thisRepN,trials_train_timing.thisTrialN,trials_train_timing.thisN,trials_train_timing.thisIndex,trials_train_timing.ran,instruct_resp.keys,instruct_resp.corr,instruct_resp.rt,trial_resp.keys,trial_resp.corr,trial_resp.rt,target_onset,err,pun,trials.thisRepN,trials.thisTrialN,trials.thisN,trials.thisIndex,trials.ran,block_note_resp.keys,block_note_resp.rt,block_num,blocks.thisRepN,blocks.thisTrialN,blocks.thisN,blocks.thisIndex,blocks.ran,punish,complete_resp.keys,complete_resp.rt,raffle_trial,raffle_err,raffle_rew
space,0,51.639,p,0,1.402,0,0,0,3,1,left.png,,w,right,6150644c34ae04340c40ea7d,2021-10-21_16h59.00.150,arrow_simon_punish,2021.1.2,Win32,60.0240096,,,,,,,,,,,,,,,,,,,,,,,,,,,,,,,,,,,,,,
,,,p,1,2.385,0,1,1,1,1,right.png,,p,right,6150644c34ae04340c40ea7d,2021-10-21_16h59.00.150,arrow_simon_punish,2021.1.2,Win32,60.0240096,,,,,,,,,,,,,,,,,,,,,,,,,,,,,,,,,,,,,,
,,,w,1,1.651,0,2,2,2,1,left.png,,w,left,6150644c34ae04340c40ea7d,2021-10-21_16h59.00.150,arrow_simon_punish,2021.1.2,Win32,60.0240096,,,,,,,,,,,,,,,,,,,,,,,,,,,,,,,,,,,,,,
,,,p,1,0.987,0,3,3,0,1,right.png,,p,left,6150644c34ae04340c40ea7d,2021-10-21_16h59.00.150,arrow_simon_punish,2021.1.2,Win32,60.0240096,,,,,,,,,,,,,,,,,,,,,,,,,,,,,,,,,,,,,,
,,,p,1,1.253,1,0,4,1,1,right.png,,p,right,6150644c34ae04340c40ea7d,2021-10-21_16h59.00.150,arrow_simon_punish,2021.1.2,Win32,60.0240096,,,,,,,,,,,,,,,,,,,,,,,,,,,,,,,,,,,,,,
,,,w,1,0.972,1,1,5,2,1,left.png,,w,left,6150644c34ae04340c40ea7d,2021-10-21_16h59.00.150,arrow_simon_punish,2021.1.2,Win32,60.0240096,,,,,,,,,,,,,,,,,,,,,,,,,,,,,,,,,,,,,,
,,,w,1,1.518,1,2,6,3,1,left.png,,w,right,6150644c34ae04340c40ea7d,2021-10-21_16h59.00.150,arrow_simon_punish,2021.1.2,Win32,60.0240096,,,,,,,,,,,,,,,,,,,,,,,,,,,,,,,,,,,,,,
,,,p,1,1.302,1,3,7,0,1,right.png,,p,left,6150644c34ae04340c40ea7d,2021-10-21_16h59.00.150,arrow_simon_punish,2021.1.2,Win32,60.0240096,,,,,,,,,,,,,,,,,,,,,,,,,,,,,,,,,,,,,,
,,,w,1,2.188,2,0,8,3,1,left.png,,w,right,6150644c34ae04340c40ea7d,2021-10-21_16h59.00.150,arrow_simon_punish,2021.1.2,Win32,60.0240096,,,,,,,,,,,,,,,,,,,,,,,,,,,,,,,,,,,,,,
,,,p,1,1.09,2,1,9,1,1,right.png,,p,right,6150644c34ae04340c40ea7d,2021-10-21_16h59.00.150,arrow_simon_punish,2021.1.2,Win32,60.0240096,,,,,,,,,,,,,,,,,,,,,,,,,,,,,,,,,,,,,,
,,,w,1,1.12,2,2,10,2,1,left.png,,w,left,6150644c34ae04340c40ea7d,2021-10-21_16h59.00.150,arrow_simon_punish,2021.1.2,Win32,60.0240096,,,,,,,,,,,,,,,,,,,,,,,,,,,,,,,,,,,,,,
,,,p,1,0.935,2,3,11,0,1,right.png,,p,left,6150644c34ae04340c40ea7d,2021-10-21_16h59.00.150,arrow_simon_punish,2021.1.2,Win32,60.0240096,,,,,,,,,,,,,,,,,,,,,,,,,,,,,,,,,,,,,,
,,,p,1,1.601,3,0,12,1,1,right.png,,p,right,6150644c34ae04340c40ea7d,2021-10-21_16h59.00.150,arrow_simon_punish,2021.1.2,Win32,60.0240096,,,,,,,,,,,,,,,,,,,,,,,,,,,,,,,,,,,,,,
,,,w,1,0.985,3,1,13,3,1,left.png,,w,right,6150644c34ae04340c40ea7d,2021-10-21_16h59.00.150,arrow_simon_punish,2021.1.2,Win32,60.0240096,,,,,,,,,,,,,,,,,,,,,,,,,,,,,,,,,,,,,,
,,,w,1,1.15,3,2,14,2,1,left.png,,w,left,6150644c34ae04340c40ea7d,2021-10-21_16h59.00.150,arrow_simon_punish,2021.1.2,Win32,60.0240096,,,,,,,,,,,,,,,,,,,,,,,,,,,,,,,,,,,,,,
,,,p,1,1.168,3,3,15,0,1,right.png,,p,left,6150644c34ae04340c40ea7d,2021-10-21_16h59.00.150,arrow_simon_punish,2021.1.2,Win32,60.0240096,,,,,,,,,,,,,,,,,,,,,,,,,,,,,,,,,,,,,,
,,,w,1,0.901,4,0,16,2,1,left.png,,w,left,6150644c34ae04340c40ea7d,2021-10-21_16h59.00.150,arrow_simon_punish,2021.1.2,Win32,60.0240096,,,,,,,,,,,,,,,,,,,,,,,,,,,,,,,,,,,,,,
,,,p,1,1.022,4,1,17,1,1,right.png,,p,right,6150644c34ae04340c40ea7d,2021-10-21_16h59.00.150,arrow_simon_punish,2021.1.2,Win32,60.0240096,,,,,,,,,,,,,,,,,,,,,,,,,,,,,,,,,,,,,,
,,,p,1,1.084,4,2,18,0,1,right.png,,p,left,6150644c34ae04340c40ea7d,2021-10-21_16h59.00.150,arrow_simon_punish,2021.1.2,Win32,60.0240096,,,,,,,,,,,,,,,,,,,,,,,,,,,,,,,,,,,,,,
,,,w,1,1.597,4,3,19,3,1,left.png,,w,right,6150644c34ae04340c40ea7d,2021-10-21_16h59.00.150,arrow_simon_punish,2021.1.2,Win32,60.0240096,,,,,,,,,,,,,,,,,,,,,,,,,,,,,,,,,,,,,,
,,,w,1,1.552,5,0,20,2,1,left.png,,w,left,6150644c34ae04340c40ea7d,2021-10-21_16h59.00.150,arrow_simon_punish,2021.1.2,Win32,60.0240096,,,,,,,,,,,,,,,,,,,,,,,,,,,,,,,,,,,,,,
,,,p,1,0.735,5,1,21,1,1,right.png,,p,right,6150644c34ae04340c40ea7d,2021-10-21_16h59.00.150,arrow_simon_punish,2021.1.2,Win32,60.0240096,,,,,,,,,,,,,,,,,,,,,,,,,,,,,,,,,,,,,,
,,,p,1,1.435,5,2,22,0,1,right.png,,p,left,6150644c34ae04340c40ea7d,2021-10-21_16h59.00.150,arrow_simon_punish,2021.1.2,Win32,60.0240096,,,,,,,,,,,,,,,,,,,,,,,,,,,,,,,,,,,,,,
,,,w,1,1.623,5,3,23,3,1,left.png,,w,right,6150644c34ae04340c40ea7d,2021-10-21_16h59.00.150,arrow_simon_punish,2021.1.2,Win32,60.0240096,,,,,,,,,,,,,,,,,,,,,,,,,,,,,,,,,,,,,,
,,,w,1,1.367,6,0,24,2,1,left.png,,w,left,6150644c34ae04340c40ea7d,2021-10-21_16h59.00.150,arrow_simon_punish,2021.1.2,Win32,60.0240096,,,,,,,,,,,,,,,,,,,,,,,,,,,,,,,,,,,,,,
,,,w,1,1.501,6,1,25,3,1,left.png,,w,right,6150644c34ae04340c40ea7d,2021-10-21_16h59.00.150,arrow_simon_punish,2021.1.2,Win32,60.0240096,,,,,,,,,,,,,,,,,,,,,,,,,,,,,,,,,,,,,,
,,,p,1,0.935,6,2,26,1,1,right.png,,p,right,6150644c34ae04340c40ea7d,2021-10-21_16h59.00.150,arrow_simon_punish,2021.1.2,Win32,60.0240096,,,,,,,,,,,,,,,,,,,,,,,,,,,,,,,,,,,,,,
,,,p,1,2.001,6,3,27,0,1,right.png,,p,left,6150644c34ae04340c40ea7d,2021-10-21_16h59.00.150,arrow_simon_punish,2021.1.2,Win32,60.0240096,,,,,,,,,,,,,,,,,,,,,,,,,,,,,,,,,,,,,,
,,,p,1,1.268,7,0,28,0,1,right.png,,p,left,6150644c34ae04340c40ea7d,2021-10-21_16h59.00.150,arrow_simon_punish,2021.1.2,Win32,60.0240096,,,,,,,,,,,,,,,,,,,,,,,,,,,,,,,,,,,,,,
,,,w,1,1.006,7,1,29,3,1,left.png,,w,right,6150644c34ae04340c40ea7d,2021-10-21_16h59.00.150,arrow_simon_punish,2021.1.2,Win32,60.0240096,,,,,,,,,,,,,,,,,,,,,,,,,,,,,,,,,,,,,,
,,,p,1,1.28,7,2,30,1,1,right.png,,p,right,6150644c34ae04340c40ea7d,2021-10-21_16h59.00.150,arrow_simon_punish,2021.1.2,Win32,60.0240096,,,,,,,,,,,,,,,,,,,,,,,,,,,,,,,,,,,,,,
,,,w,1,0.834,7,3,31,2,1,left.png,,w,left,6150644c34ae04340c40ea7d,2021-10-21_16h59.00.150,arrow_simon_punish,2021.1.2,Win32,60.0240096,,,,,,,,,,,,,,,,,,,,,,,,,,,,,,,,,,,,,,
,,,w,0,1.707,8,0,32,0,1,right.png,,p,left,6150644c34ae04340c40ea7d,2021-10-21_16h59.00.150,arrow_simon_punish,2021.1.2,Win32,60.0240096,,,,,,,,,,,,,,,,,,,,,,,,,,,,,,,,,,,,,,
,,,w,1,1.402,8,1,33,2,1,left.png,,w,left,6150644c34ae04340c40ea7d,2021-10-21_16h59.00.150,arrow_simon_punish,2021.1.2,Win32,60.0240096,,,,,,,,,,,,,,,,,,,,,,,,,,,,,,,,,,,,,,
,,,p,1,0.652,8,2,34,1,1,right.png,,p,right,6150644c34ae04340c40ea7d,2021-10-21_16h59.00.150,arrow_simon_punish,2021.1.2,Win32,60.0240096,,,,,,,,,,,,,,,,,,,,,,,,,,,,,,,,,,,,,,
,,,w,1,1.586,8,3,35,3,1,left.png,,w,right,6150644c34ae04340c40ea7d,2021-10-21_16h59.00.150,arrow_simon_punish,2021.1.2,Win32,60.0240096,,,,,,,,,,,,,,,,,,,,,,,,,,,,,,,,,,,,,,
,,,w,1,1.286,9,0,36,3,1,left.png,,w,right,6150644c34ae04340c40ea7d,2021-10-21_16h59.00.150,arrow_simon_punish,2021.1.2,Win32,60.0240096,,,,,,,,,,,,,,,,,,,,,,,,,,,,,,,,,,,,,,
,,,p,1,1.4,9,1,37,1,1,right.png,,p,right,6150644c34ae04340c40ea7d,2021-10-21_16h59.00.150,arrow_simon_punish,2021.1.2,Win32,60.0240096,,,,,,,,,,,,,,,,,,,,,,,,,,,,,,,,,,,,,,
,,,p,1,1.756,9,2,38,0,1,right.png,,p,left,6150644c34ae04340c40ea7d,2021-10-21_16h59.00.150,arrow_simon_punish,2021.1.2,Win32,60.0240096,,,,,,,,,,,,,,,,,,,,,,,,,,,,,,,,,,,,,,
,,,w,1,0.883,9,3,39,2,1,left.png,,w,left,6150644c34ae04340c40ea7d,2021-10-21_16h59.00.150,arrow_simon_punish,2021.1.2,Win32,60.0240096,,,,,,,,,,,,,,,,,,,,,,,,,,,,,,,,,,,,,,
,,,,,,,,,,,,,,,6150644c34ae04340c40ea7d,2021-10-21_16h59.00.150,arrow_simon_punish,2021.1.2,Win32,60.0240096,space,0,56.414,p,2.654,0,0,0,0,1,,,,,,,,,,,,,,,,,,,,,,,,,,,,
,,,,,,,,,,,,,,,6150644c34ae04340c40ea7d,2021-10-21_16h59.00.150,arrow_simon_punish,2021.1.2,Win32,60.0240096,,,,p,2.719,1,0,1,0,1,,,,,,,,,,,,,,,,,,,,,,,,,,,,
,,,,,,,,,,,,,,,6150644c34ae04340c40ea7d,2021-10-21_16h59.00.150,arrow_simon_punish,2021.1.2,Win32,60.0240096,,,,p,2.468,2,0,2,0,1,,,,,,,,,,,,,,,,,,,,,,,,,,,,
,,,,,,,,,,,,,,,6150644c34ae04340c40ea7d,2021-10-21_16h59.00.150,arrow_simon_punish,2021.1.2,Win32,60.0240096,,,,p,2.552,3,0,3,0,1,,,,,,,,,,,,,,,,,,,,,,,,,,,,
,,,,,,,,,,,,,,,6150644c34ae04340c40ea7d,2021-10-21_16h59.00.150,arrow_simon_punish,2021.1.2,Win32,60.0240096,,,,w,2.669,4,0,4,0,1,,,,,,,,,,,,,,,,,,,,,,,,,,,,
,,,,,,,,,,,,,,,6150644c34ae04340c40ea7d,2021-10-21_16h59.00.150,arrow_simon_punish,2021.1.2,Win32,60.0240096,,,,w,2.587,5,0,5,0,1,,,,,,,,,,,,,,,,,,,,,,,,,,,,
,,,,,,,,,,,,,,,6150644c34ae04340c40ea7d,2021-10-21_16h59.00.150,arrow_simon_punish,2021.1.2,Win32,60.0240096,,,,p,2.602,6,0,6,0,1,,,,,,,,,,,,,,,,,,,,,,,,,,,,
,,,,,,,,,,,,,,,6150644c34ae04340c40ea7d,2021-10-21_16h59.00.150,arrow_simon_punish,2021.1.2,Win32,60.0240096,,,,w,2.42,7,0,7,0,1,,,,,,,,,,,,,,,,,,,,,,,,,,,,
,,,,,,,,,,,,,,,6150644c34ae04340c40ea7d,2021-10-21_16h59.00.150,arrow_simon_punish,2021.1.2,Win32,60.0240096,,,,p,2.504,8,0,8,0,1,,,,,,,,,,,,,,,,,,,,,,,,,,,,
,,,,,,,,,,,,,,,6150644c34ae04340c40ea7d,2021-10-21_16h59.00.150,arrow_simon_punish,2021.1.2,Win32,60.0240096,,,,w,2.616,9,0,9,0,1,,,,,,,,,,,,,,,,,,,,,,,,,,,,
,,,,,,,,,,,,,,,6150644c34ae04340c40ea7d,2021-10-21_16h59.00.150,arrow_simon_punish,2021.1.2,Win32,60.0240096,,,,p,2.451,10,0,10,0,1,,,,,,,,,,,,,,,,,,,,,,,,,,,,
,,,,,,,,,,,,,,,6150644c34ae04340c40ea7d,2021-10-21_16h59.00.150,arrow_simon_punish,2021.1.2,Win32,60.0240096,,,,w,2.518,11,0,11,0,1,,,,,,,,,,,,,,,,,,,,,,,,,,,,
,,,,,,,,,,,,,,,6150644c34ae04340c40ea7d,2021-10-21_16h59.00.150,arrow_simon_punish,2021.1.2,Win32,60.0240096,,,,p,2.436,12,0,12,0,1,,,,,,,,,,,,,,,,,,,,,,,,,,,,
,,,,,,,,,,,,,,,6150644c34ae04340c40ea7d,2021-10-21_16h59.00.150,arrow_simon_punish,2021.1.2,Win32,60.0240096,,,,w,2.501,13,0,13,0,1,,,,,,,,,,,,,,,,,,,,,,,,,,,,
,,,,,,,,,,,,,,,6150644c34ae04340c40ea7d,2021-10-21_16h59.00.150,arrow_simon_punish,2021.1.2,Win32,60.0240096,,,,p,2.501,14,0,14,0,1,,,,,,,,,,,,,,,,,,,,,,,,,,,,
,,,,,,,,,,,,,,,6150644c34ae04340c40ea7d,2021-10-21_16h59.00.150,arrow_simon_punish,2021.1.2,Win32,60.0240096,,,,w,2.518,15,0,15,0,1,,,,,,,,,,,,,,,,,,,,,,,,,,,,
,,,,,,,,,,,,,,,6150644c34ae04340c40ea7d,2021-10-21_16h59.00.150,arrow_simon_punish,2021.1.2,Win32,60.0240096,,,,p,2.469,16,0,16,0,1,,,,,,,,,,,,,,,,,,,,,,,,,,,,
,,,,,,,,,,,,,,,6150644c34ae04340c40ea7d,2021-10-21_16h59.00.150,arrow_simon_punish,2021.1.2,Win32,60.0240096,,,,w,2.52,17,0,17,0,1,,,,,,,,,,,,,,,,,,,,,,,,,,,,
,,,,,,,,,,,,,,,6150644c34ae04340c40ea7d,2021-10-21_16h59.00.150,arrow_simon_punish,2021.1.2,Win32,60.0240096,,,,p,2.468,18,0,18,0,1,,,,,,,,,,,,,,,,,,,,,,,,,,,,
,,,,,,,,,,,,,,,6150644c34ae04340c40ea7d,2021-10-21_16h59.00.150,arrow_simon_punish,2021.1.2,Win32,60.0240096,,,,w,2.436,19,0,19,0,1,,,,,,,,,,,,,,,,,,,,,,,,,,,,
,,,,,,,,,,,,,,,6150644c34ae04340c40ea7d,2021-10-21_16h59.00.150,arrow_simon_punish,2021.1.2,Win32,60.0240096,,,,p,2.402,20,0,20,0,1,,,,,,,,,,,,,,,,,,,,,,,,,,,,
,,,,,,,,,,,,,,,6150644c34ae04340c40ea7d,2021-10-21_16h59.00.150,arrow_simon_punish,2021.1.2,Win32,60.0240096,,,,w,2.419,21,0,21,0,1,,,,,,,,,,,,,,,,,,,,,,,,,,,,
,,,,,,,,,,,,,,,6150644c34ae04340c40ea7d,2021-10-21_16h59.00.150,arrow_simon_punish,2021.1.2,Win32,60.0240096,,,,p,2.347,22,0,22,0,1,,,,,,,,,,,,,,,,,,,,,,,,,,,,
,,,,,,,,,,,,,,,6150644c34ae04340c40ea7d,2021-10-21_16h59.00.150,arrow_simon_punish,2021.1.2,Win32,60.0240096,,,,w,2.469,23,0,23,0,1,,,,,,,,,,,,,,,,,,,,,,,,,,,,
,,,,,,,,,,,,,,,6150644c34ae04340c40ea7d,2021-10-21_16h59.00.150,arrow_simon_punish,2021.1.2,Win32,60.0240096,,,,p,2.485,24,0,24,0,1,,,,,,,,,,,,,,,,,,,,,,,,,,,,
,,,,,,,,,,,,,,,6150644c34ae04340c40ea7d,2021-10-21_16h59.00.150,arrow_simon_punish,2021.1.2,Win32,60.0240096,,,,w,2.536,25,0,25,0,1,,,,,,,,,,,,,,,,,,,,,,,,,,,,
,,,,,,,,,,,,,,,6150644c34ae04340c40ea7d,2021-10-21_16h59.00.150,arrow_simon_punish,2021.1.2,Win32,60.0240096,,,,p,2.368,26,0,26,0,1,,,,,,,,,,,,,,,,,,,,,,,,,,,,
,,,,,,,,,,,,,,,6150644c34ae04340c40ea7d,2021-10-21_16h59.00.150,arrow_simon_punish,2021.1.2,Win32,60.0240096,,,,w,2.567,27,0,27,0,1,,,,,,,,,,,,,,,,,,,,,,,,,,,,
,,,,,,,,,,,,,,,6150644c34ae04340c40ea7d,2021-10-21_16h59.00.150,arrow_simon_punish,2021.1.2,Win32,60.0240096,,,,w,2.718,28,0,28,0,1,,,,,,,,,,,,,,,,,,,,,,,,,,,,
,,,,,,,,,,,,,,,6150644c34ae04340c40ea7d,2021-10-21_16h59.00.150,arrow_simon_punish,2021.1.2,Win32,60.0240096,,,,p,2.533,29,0,29,0,1,,,,,,,,,,,,,,,,,,,,,,,,,,,,
,,,,,,,,,,,,,,,6150644c34ae04340c40ea7d,2021-10-21_16h59.00.150,arrow_simon_punish,2021.1.2,Win32,60.0240096,,,,p,2.536,30,0,30,0,1,,,,,,,,,,,,,,,,,,,,,,,,,,,,
,,,,,,,,,,,,,,,6150644c34ae04340c40ea7d,2021-10-21_16h59.00.150,arrow_simon_punish,2021.1.2,Win32,60.0240096,,,,p,2.486,31,0,31,0,1,,,,,,,,,,,,,,,,,,,,,,,,,,,,
,,,,,,,,,,,,,,,6150644c34ae04340c40ea7d,2021-10-21_16h59.00.150,arrow_simon_punish,2021.1.2,Win32,60.0240096,,,,p,2.452,32,0,32,0,1,,,,,,,,,,,,,,,,,,,,,,,,,,,,
,,,,,,,,,,,,,,,6150644c34ae04340c40ea7d,2021-10-21_16h59.00.150,arrow_simon_punish,2021.1.2,Win32,60.0240096,,,,p,2.42,33,0,33,0,1,,,,,,,,,,,,,,,,,,,,,,,,,,,,
,,,,,,,,,,,,,,,6150644c34ae04340c40ea7d,2021-10-21_16h59.00.150,arrow_simon_punish,2021.1.2,Win32,60.0240096,,,,p,2.402,34,0,34,0,1,,,,,,,,,,,,,,,,,,,,,,,,,,,,
,,,,,,,,,,,,,,,6150644c34ae04340c40ea7d,2021-10-21_16h59.00.150,arrow_simon_punish,2021.1.2,Win32,60.0240096,,,,p,2.383,35,0,35,0,1,,,,,,,,,,,,,,,,,,,,,,,,,,,,
,,,,,,,,,,,,,,,6150644c34ae04340c40ea7d,2021-10-21_16h59.00.150,arrow_simon_punish,2021.1.2,Win32,60.0240096,,,,p,2.452,36,0,36,0,1,,,,,,,,,,,,,,,,,,,,,,,,,,,,
,,,,,,,,,,,,,,,6150644c34ae04340c40ea7d,2021-10-21_16h59.00.150,arrow_simon_punish,2021.1.2,Win32,60.0240096,,,,p,2.418,37,0,37,0,1,,,,,,,,,,,,,,,,,,,,,,,,,,,,
,,,,,,,,,,,,,,,6150644c34ae04340c40ea7d,2021-10-21_16h59.00.150,arrow_simon_punish,2021.1.2,Win32,60.0240096,,,,p,2.369,38,0,38,0,1,,,,,,,,,,,,,,,,,,,,,,,,,,,,
,,,,,,,,,,,,,,,6150644c34ae04340c40ea7d,2021-10-21_16h59.00.150,arrow_simon_punish,2021.1.2,Win32,60.0240096,,,,p,2.568,39,0,39,0,1,,,,,,,,,,,,,,,,,,,,,,,,,,,,
,,,,,,,,,,,,,,,6150644c34ae04340c40ea7d,2021-10-21_16h59.00.150,arrow_simon_punish,2021.1.2,Win32,60.0240096,,,,p,2.566,40,0,40,0,1,,,,,,,,,,,,,,,,,,,,,,,,,,,,
,,,,,,,,,,,,,,,6150644c34ae04340c40ea7d,2021-10-21_16h59.00.150,arrow_simon_punish,2021.1.2,Win32,60.0240096,,,,p,2.437,41,0,41,0,1,,,,,,,,,,,,,,,,,,,,,,,,,,,,
,,,,,,,,,,,,,,,6150644c34ae04340c40ea7d,2021-10-21_16h59.00.150,arrow_simon_punish,2021.1.2,Win32,60.0240096,,,,p,2.468,42,0,42,0,1,,,,,,,,,,,,,,,,,,,,,,,,,,,,
,,,,,,,,,,,,,,,6150644c34ae04340c40ea7d,2021-10-21_16h59.00.150,arrow_simon_punish,2021.1.2,Win32,60.0240096,,,,p,2.486,43,0,43,0,1,,,,,,,,,,,,,,,,,,,,,,,,,,,,
,,,,,,,,,,,,,,,6150644c34ae04340c40ea7d,2021-10-21_16h59.00.150,arrow_simon_punish,2021.1.2,Win32,60.0240096,,,,p,2.319,44,0,44,0,1,,,,,,,,,,,,,,,,,,,,,,,,,,,,
,,,,,,,,,,,,,,,6150644c34ae04340c40ea7d,2021-10-21_16h59.00.150,arrow_simon_punish,2021.1.2,Win32,60.0240096,,,,p,2.556,45,0,45,0,1,,,,,,,,,,,,,,,,,,,,,,,,,,,,
,,,,,,,,,,,,,,,6150644c34ae04340c40ea7d,2021-10-21_16h59.00.150,arrow_simon_punish,2021.1.2,Win32,60.0240096,,,,p,2.406,46,0,46,0,1,,,,,,,,,,,,,,,,,,,,,,,,,,,,
,,,,,,,,,,,,,,,6150644c34ae04340c40ea7d,2021-10-21_16h59.00.150,arrow_simon_punish,2021.1.2,Win32,60.0240096,,,,p,2.518,47,0,47,0,1,,,,,,,,,,,,,,,,,,,,,,,,,,,,
,,,,,,,,,,,,,,,6150644c34ae04340c40ea7d,2021-10-21_16h59.00.150,arrow_simon_punish,2021.1.2,Win32,60.0240096,,,,w,2.483,48,0,48,0,1,,,,,,,,,,,,,,,,,,,,,,,,,,,,
,,,,,,,,,,,,,,,6150644c34ae04340c40ea7d,2021-10-21_16h59.00.150,arrow_simon_punish,2021.1.2,Win32,60.0240096,,,,w,2.488,49,0,49,0,1,,,,,,,,,,,,,,,,,,,,,,,,,,,,
,,,,,,,,,,,,,,,6150644c34ae04340c40ea7d,2021-10-21_16h59.00.150,arrow_simon_punish,2021.1.2,Win32,60.0240096,,,,w,2.489,50,0,50,0,1,,,,,,,,,,,,,,,,,,,,,,,,,,,,
,,,,,,,,,,,,,,,6150644c34ae04340c40ea7d,2021-10-21_16h59.00.150,arrow_simon_punish,2021.1.2,Win32,60.0240096,,,,w,2.518,51,0,51,0,1,,,,,,,,,,,,,,,,,,,,,,,,,,,,
,,,,,,,,,,,,,,,6150644c34ae04340c40ea7d,2021-10-21_16h59.00.150,arrow_simon_punish,2021.1.2,Win32,60.0240096,,,,w,2.537,52,0,52,0,1,,,,,,,,,,,,,,,,,,,,,,,,,,,,
,,,,,,,,,,,,,,,6150644c34ae04340c40ea7d,2021-10-21_16h59.00.150,arrow_simon_punish,2021.1.2,Win32,60.0240096,,,,w,2.534,53,0,53,0,1,,,,,,,,,,,,,,,,,,,,,,,,,,,,
,,,,,,,,,,,,,,,6150644c34ae04340c40ea7d,2021-10-21_16h59.00.150,arrow_simon_punish,2021.1.2,Win32,60.0240096,,,,w,2.472,54,0,54,0,1,,,,,,,,,,,,,,,,,,,,,,,,,,,,
,,,,,,,,,,,,,,,6150644c34ae04340c40ea7d,2021-10-21_16h59.00.150,arrow_simon_punish,2021.1.2,Win32,60.0240096,,,,w,2.422,55,0,55,0,1,,,,,,,,,,,,,,,,,,,,,,,,,,,,
,,,,,,,,,,,,,,,6150644c34ae04340c40ea7d,2021-10-21_16h59.00.150,arrow_simon_punish,2021.1.2,Win32,60.0240096,,,,w,2.505,56,0,56,0,1,,,,,,,,,,,,,,,,,,,,,,,,,,,,
,,,,,,,,,,,,,,,6150644c34ae04340c40ea7d,2021-10-21_16h59.00.150,arrow_simon_punish,2021.1.2,Win32,60.0240096,,,,w,2.418,57,0,57,0,1,,,,,,,,,,,,,,,,,,,,,,,,,,,,
,,,,,,,,,,,,,,,6150644c34ae04340c40ea7d,2021-10-21_16h59.00.150,arrow_simon_punish,2021.1.2,Win32,60.0240096,,,,w,2.436,58,0,58,0,1,,,,,,,,,,,,,,,,,,,,,,,,,,,,
,,,,,,,,,,,,,,,6150644c34ae04340c40ea7d,2021-10-21_16h59.00.150,arrow_simon_punish,2021.1.2,Win32,60.0240096,,,,w,2.502,59,0,59,0,1,,,,,,,,,,,,,,,,,,,,,,,,,,,,
,,,,,,,,,,,left.png,,w,left,6150644c34ae04340c40ea7d,2021-10-21_16h59.00.150,arrow_simon_punish,2021.1.2,Win32,60.0240096,,,,,,,,,,,space,0,142.053,w,1,1.213,1.575782779,1,1,0,0,0,2,1,,,,,,,,,,,,,,
,,,,,,,,,,,right.png,,p,right,6150644c34ae04340c40ea7d,2021-10-21_16h59.00.150,arrow_simon_punish,2021.1.2,Win32,60.0240096,,,,,,,,,,,,,,p,1,1.071,2.237108388,1,1,0,1,1,1,1,,,,,,,,,,,,,,
,,,,,,,,,,,right.png,,p,left,6150644c34ae04340c40ea7d,2021-10-21_16h59.00.150,arrow_simon_punish,2021.1.2,Win32,60.0240096,,,,,,,,,,,,,,w,0,1.135,2.162301982,1,1,0,2,2,0,1,,,,,,,,,,,,,,
,,,,,,,,,,,left.png,,w,left,6150644c34ae04340c40ea7d,2021-10-21_16h59.00.150,arrow_simon_punish,2021.1.2,Win32,60.0240096,,,,,,,,,,,,,,w,1,0.988,1.58292553,1,1,0,3,3,2,1,,,,,,,,,,,,,,
,,,,,,,,,,,right.png,,p,left,6150644c34ae04340c40ea7d,2021-10-21_16h59.00.150,arrow_simon_punish,2021.1.2,Win32,60.0240096,,,,,,,,,,,,,,w,0,1.001,2.050432956,1,1,1,0,4,0,1,,,,,,,,,,,,,,
,,,,,,,,,,,right.png,,p,left,6150644c34ae04340c40ea7d,2021-10-21_16h59.00.150,arrow_simon_punish,2021.1.2,Win32,60.0240096,,,,,,,,,,,,,,p,1,1.067,2.263617685,1,1,1,1,5,0,1,,,,,,,,,,,,,,
,,,,,,,,,,,right.png,,p,left,6150644c34ae04340c40ea7d,2021-10-21_16h59.00.150,arrow_simon_punish,2021.1.2,Win32,60.0240096,,,,,,,,,,,,,,p,1,1.234,1.863404802,1,1,1,2,6,0,1,,,,,,,,,,,,,,
,,,,,,,,,,,right.png,,p,right,6150644c34ae04340c40ea7d,2021-10-21_16h59.00.150,arrow_simon_punish,2021.1.2,Win32,60.0240096,,,,,,,,,,,,,,p,1,1.384,2.133440808,1,1,1,3,7,1,1,,,,,,,,,,,,,,
,,,,,,,,,,,left.png,,w,right,6150644c34ae04340c40ea7d,2021-10-21_16h59.00.150,arrow_simon_punish,2021.1.2,Win32,60.0240096,,,,,,,,,,,,,,w,1,1.401,1.866367174,0,1,2,0,8,3,1,,,,,,,,,,,,,,
,,,,,,,,,,,left.png,,w,left,6150644c34ae04340c40ea7d,2021-10-21_16h59.00.150,arrow_simon_punish,2021.1.2,Win32,60.0240096,,,,,,,,,,,,,,w,1,1.434,2.414435569,0,1,2,1,9,2,1,,,,,,,,,,,,,,
,,,,,,,,,,,left.png,,w,left,6150644c34ae04340c40ea7d,2021-10-21_16h59.00.150,arrow_simon_punish,2021.1.2,Win32,60.0240096,,,,,,,,,,,,,,w,1,1.053,1.841219119,1,1,2,2,10,2,1,,,,,,,,,,,,,,
,,,,,,,,,,,right.png,,p,right,6150644c34ae04340c40ea7d,2021-10-21_16h59.00.150,arrow_simon_punish,2021.1.2,Win32,60.0240096,,,,,,,,,,,,,,p,1,1.351,1.799257348,1,1,2,3,11,1,1,,,,,,,,,,,,,,
,,,,,,,,,,,left.png,,w,left,6150644c34ae04340c40ea7d,2021-10-21_16h59.00.150,arrow_simon_punish,2021.1.2,Win32,60.0240096,,,,,,,,,,,,,,w,1,1.383,1.876256938,1,1,3,0,12,2,1,,,,,,,,,,,,,,
,,,,,,,,,,,left.png,,w,right,6150644c34ae04340c40ea7d,2021-10-21_16h59.00.150,arrow_simon_punish,2021.1.2,Win32,60.0240096,,,,,,,,,,,,,,w,1,1.703,1.621167895,1,1,3,1,13,3,1,,,,,,,,,,,,,,
,,,,,,,,,,,right.png,,p,right,6150644c34ae04340c40ea7d,2021-10-21_16h59.00.150,arrow_simon_punish,2021.1.2,Win32,60.0240096,,,,,,,,,,,,,,p,1,1.602,1.877579093,1,1,3,2,14,1,1,,,,,,,,,,,,,,
,,,,,,,,,,,left.png,,w,right,6150644c34ae04340c40ea7d,2021-10-21_16h59.00.150,arrow_simon_punish,2021.1.2,Win32,60.0240096,,,,,,,,,,,,,,w,1,1.353,2.48840238,1,1,3,3,15,3,1,,,,,,,,,,,,,,
,,,,,,,,,,,left.png,,w,left,6150644c34ae04340c40ea7d,2021-10-21_16h59.00.150,arrow_simon_punish,2021.1.2,Win32,60.0240096,,,,,,,,,,,,,,w,1,1.771,1.890867003,1,1,4,0,16,2,1,,,,,,,,,,,,,,
,,,,,,,,,,,left.png,,w,right,6150644c34ae04340c40ea7d,2021-10-21_16h59.00.150,arrow_simon_punish,2021.1.2,Win32,60.0240096,,,,,,,,,,,,,,w,1,1.551,1.511576745,0,1,4,1,17,3,1,,,,,,,,,,,,,,
,,,,,,,,,,,left.png,,w,right,6150644c34ae04340c40ea7d,2021-10-21_16h59.00.150,arrow_simon_punish,2021.1.2,Win32,60.0240096,,,,,,,,,,,,,,p,0,1.734,2.004782321,1,1,4,2,18,3,1,,,,,,,,,,,,,,
,,,,,,,,,,,right.png,,p,right,6150644c34ae04340c40ea7d,2021-10-21_16h59.00.150,arrow_simon_punish,2021.1.2,Win32,60.0240096,,,,,,,,,,,,,,p,1,1.454,1.790951295,0,1,4,3,19,1,1,,,,,,,,,,,,,,
,,,,,,,,,,,left.png,,w,right,6150644c34ae04340c40ea7d,2021-10-21_16h59.00.150,arrow_simon_punish,2021.1.2,Win32,60.0240096,,,,,,,,,,,,,,w,1,1.035,1.528431578,1,1,5,0,20,3,1,,,,,,,,,,,,,,
,,,,,,,,,,,right.png,,p,left,6150644c34ae04340c40ea7d,2021-10-21_16h59.00.150,arrow_simon_punish,2021.1.2,Win32,60.0240096,,,,,,,,,,,,,,p,1,1.154,1.564867439,1,1,5,1,21,0,1,,,,,,,,,,,,,,
,,,,,,,,,,,right.png,,p,right,6150644c34ae04340c40ea7d,2021-10-21_16h59.00.150,arrow_simon_punish,2021.1.2,Win32,60.0240096,,,,,,,,,,,,,,p,1,1.341,1.878482156,1,1,5,2,22,1,1,,,,,,,,,,,,,,
,,,,,,,,,,,left.png,,w,right,6150644c34ae04340c40ea7d,2021-10-21_16h59.00.150,arrow_simon_punish,2021.1.2,Win32,60.0240096,,,,,,,,,,,,,,w,1,1.238,1.80315469,1,1,5,3,23,3,1,,,,,,,,,,,,,,
,,,,,,,,,,,right.png,,p,left,6150644c34ae04340c40ea7d,2021-10-21_16h59.00.150,arrow_simon_punish,2021.1.2,Win32,60.0240096,,,,,,,,,,,,,,p,1,1.9,2.328945636,1,1,6,0,24,0,1,,,,,,,,,,,,,,
,,,,,,,,,,,left.png,,w,left,6150644c34ae04340c40ea7d,2021-10-21_16h59.00.150,arrow_simon_punish,2021.1.2,Win32,60.0240096,,,,,,,,,,,,,,w,1,1.151,1.528699717,1,1,6,1,25,2,1,,,,,,,,,,,,,,
,,,,,,,,,,,right.png,,p,right,6150644c34ae04340c40ea7d,2021-10-21_16h59.00.150,arrow_simon_punish,2021.1.2,Win32,60.0240096,,,,,,,,,,,,,,p,1,1.436,2.358593494,0,1,6,2,26,1,1,,,,,,,,,,,,,,
,,,,,,,,,,,right.png,,p,left,6150644c34ae04340c40ea7d,2021-10-21_16h59.00.150,arrow_simon_punish,2021.1.2,Win32,60.0240096,,,,,,,,,,,,,,p,1,1.466,1.620084196,0,1,6,3,27,0,1,,,,,,,,,,,,,,
,,,,,,,,,,,right.png,,p,right,6150644c34ae04340c40ea7d,2021-10-21_16h59.00.150,arrow_simon_punish,2021.1.2,Win32,60.0240096,,,,,,,,,,,,,,p,1,1.216,2.055537416,1,1,7,0,28,1,1,,,,,,,,,,,,,,
,,,,,,,,,,,right.png,,p,left,6150644c34ae04340c40ea7d,2021-10-21_16h59.00.150,arrow_simon_punish,2021.1.2,Win32,60.0240096,,,,,,,,,,,,,,w,0,1.203,1.560029271,1,1,7,1,29,0,1,,,,,,,,,,,,,,
,,,,,,,,,,,right.png,,p,left,6150644c34ae04340c40ea7d,2021-10-21_16h59.00.150,arrow_simon_punish,2021.1.2,Win32,60.0240096,,,,,,,,,,,,,,p,1,1.103,1.515758735,1,1,7,2,30,0,1,,,,,,,,,,,,,,
,,,,,,,,,,,right.png,,p,right,6150644c34ae04340c40ea7d,2021-10-21_16h59.00.150,arrow_simon_punish,2021.1.2,Win32,60.0240096,,,,,,,,,,,,,,p,1,1.319,1.628774603,1,1,7,3,31,1,1,,,,,,,,,,,,,,
,,,,,,,,,,,left.png,,w,left,6150644c34ae04340c40ea7d,2021-10-21_16h59.00.150,arrow_simon_punish,2021.1.2,Win32,60.0240096,,,,,,,,,,,,,,w,1,1.219,2.107367961,1,1,8,0,32,2,1,,,,,,,,,,,,,,
,,,,,,,,,,,right.png,,p,left,6150644c34ae04340c40ea7d,2021-10-21_16h59.00.150,arrow_simon_punish,2021.1.2,Win32,60.0240096,,,,,,,,,,,,,,p,1,1.385,1.94349058,1,1,8,1,33,0,1,,,,,,,,,,,,,,
,,,,,,,,,,,left.png,,w,right,6150644c34ae04340c40ea7d,2021-10-21_16h59.00.150,arrow_simon_punish,2021.1.2,Win32,60.0240096,,,,,,,,,,,,,,w,1,1.285,1.650929,1,1,8,2,34,3,1,,,,,,,,,,,,,,
,,,,,,,,,,,left.png,,w,left,6150644c34ae04340c40ea7d,2021-10-21_16h59.00.150,arrow_simon_punish,2021.1.2,Win32,60.0240096,,,,,,,,,,,,,,w,1,1.351,2.169123217,1,1,8,3,35,2,1,,,,,,,,,,,,,,
,,,,,,,,,,,right.png,,p,right,6150644c34ae04340c40ea7d,2021-10-21_16h59.00.150,arrow_simon_punish,2021.1.2,Win32,60.0240096,,,,,,,,,,,,,,p,1,1.484,2.196165394,0,1,9,0,36,1,1,,,,,,,,,,,,,,
,,,,,,,,,,,right.png,,p,right,6150644c34ae04340c40ea7d,2021-10-21_16h59.00.150,arrow_simon_punish,2021.1.2,Win32,60.0240096,,,,,,,,,,,,,,p,1,1.251,1.804368308,1,1,9,1,37,1,1,,,,,,,,,,,,,,
,,,,,,,,,,,left.png,,w,right,6150644c34ae04340c40ea7d,2021-10-21_16h59.00.150,arrow_simon_punish,2021.1.2,Win32,60.0240096,,,,,,,,,,,,,,w,1,1.234,1.877082809,1,1,9,2,38,3,1,,,,,,,,,,,,,,
,,,,,,,,,,,left.png,,w,left,6150644c34ae04340c40ea7d,2021-10-21_16h59.00.150,arrow_simon_punish,2021.1.2,Win32,60.0240096,,,,,,,,,,,,,,w,1,0.767,1.786501282,1,1,9,3,39,2,1,,,,,,,,,,,,,,
,,,,,,,,,,,right.png,,p,right,6150644c34ae04340c40ea7d,2021-10-21_16h59.00.150,arrow_simon_punish,2021.1.2,Win32,60.0240096,,,,,,,,,,,,,,p,1,1.234,2.009360662,1,1,10,0,40,1,1,,,,,,,,,,,,,,
,,,,,,,,,,,right.png,,p,left,6150644c34ae04340c40ea7d,2021-10-21_16h59.00.150,arrow_simon_punish,2021.1.2,Win32,60.0240096,,,,,,,,,,,,,,p,1,1.282,1.967026348,1,1,10,1,41,0,1,,,,,,,,,,,,,,
,,,,,,,,,,,left.png,,w,left,6150644c34ae04340c40ea7d,2021-10-21_16h59.00.150,arrow_simon_punish,2021.1.2,Win32,60.0240096,,,,,,,,,,,,,,w,1,1.268,2.333518766,1,1,10,2,42,2,1,,,,,,,,,,,,,,
,,,,,,,,,,,right.png,,p,left,6150644c34ae04340c40ea7d,2021-10-21_16h59.00.150,arrow_simon_punish,2021.1.2,Win32,60.0240096,,,,,,,,,,,,,,p,1,1.336,2.040292842,1,1,10,3,43,0,1,,,,,,,,,,,,,,
,,,,,,,,,,,left.png,,w,right,6150644c34ae04340c40ea7d,2021-10-21_16h59.00.150,arrow_simon_punish,2021.1.2,Win32,60.0240096,,,,,,,,,,,,,,w,1,1.423,1.522098606,0,1,11,0,44,3,1,,,,,,,,,,,,,,
,,,,,,,,,,,right.png,,p,left,6150644c34ae04340c40ea7d,2021-10-21_16h59.00.150,arrow_simon_punish,2021.1.2,Win32,60.0240096,,,,,,,,,,,,,,p,1,1.234,1.562632027,1,1,11,1,45,0,1,,,,,,,,,,,,,,
,,,,,,,,,,,left.png,,w,left,6150644c34ae04340c40ea7d,2021-10-21_16h59.00.150,arrow_simon_punish,2021.1.2,Win32,60.0240096,,,,,,,,,,,,,,w,1,1.116,1.976487418,1,1,11,2,46,2,1,,,,,,,,,,,,,,
,,,,,,,,,,,right.png,,p,left,6150644c34ae04340c40ea7d,2021-10-21_16h59.00.150,arrow_simon_punish,2021.1.2,Win32,60.0240096,,,,,,,,,,,,,,p,1,1.367,1.789626126,1,1,11,3,47,0,1,,,,,,,,,,,,,,
,,,,,,,,,,,left.png,,w,right,6150644c34ae04340c40ea7d,2021-10-21_16h59.00.150,arrow_simon_punish,2021.1.2,Win32,60.0240096,,,,,,,,,,,,,,w,1,2.652,1.527671708,1,1,12,0,48,3,1,,,,,,,,,,,,,,
,,,,,,,,,,,left.png,,w,right,6150644c34ae04340c40ea7d,2021-10-21_16h59.00.150,arrow_simon_punish,2021.1.2,Win32,60.0240096,,,,,,,,,,,,,,p,0,1.384,1.768704477,1,1,12,1,49,3,1,,,,,,,,,,,,,,
,,,,,,,,,,,left.png,,w,left,6150644c34ae04340c40ea7d,2021-10-21_16h59.00.150,arrow_simon_punish,2021.1.2,Win32,60.0240096,,,,,,,,,,,,,,w,1,1.401,1.715723117,0,1,12,2,50,2,1,,,,,,,,,,,,,,
,,,,,,,,,,,right.png,,p,right,6150644c34ae04340c40ea7d,2021-10-21_16h59.00.150,arrow_simon_punish,2021.1.2,Win32,60.0240096,,,,,,,,,,,,,,p,1,1.319,2.101719685,1,1,12,3,51,1,1,,,,,,,,,,,,,,
,,,,,,,,,,,left.png,,w,right,6150644c34ae04340c40ea7d,2021-10-21_16h59.00.150,arrow_simon_punish,2021.1.2,Win32,60.0240096,,,,,,,,,,,,,,w,1,1.651,2.012837685,1,1,13,0,52,3,1,,,,,,,,,,,,,,
,,,,,,,,,,,left.png,,w,right,6150644c34ae04340c40ea7d,2021-10-21_16h59.00.150,arrow_simon_punish,2021.1.2,Win32,60.0240096,,,,,,,,,,,,,,p,0,1.569,2.165649596,1,1,13,1,53,3,1,,,,,,,,,,,,,,
,,,,,,,,,,,left.png,,w,right,6150644c34ae04340c40ea7d,2021-10-21_16h59.00.150,arrow_simon_punish,2021.1.2,Win32,60.0240096,,,,,,,,,,,,,,w,1,1.554,1.725474138,0,1,13,2,54,3,1,,,,,,,,,,,,,,
,,,,,,,,,,,right.png,,p,right,6150644c34ae04340c40ea7d,2021-10-21_16h59.00.150,arrow_simon_punish,2021.1.2,Win32,60.0240096,,,,,,,,,,,,,,p,1,1.335,1.972541231,1,1,13,3,55,1,1,,,,,,,,,,,,,,
,,,,,,,,,,,right.png,,p,right,6150644c34ae04340c40ea7d,2021-10-21_16h59.00.150,arrow_simon_punish,2021.1.2,Win32,60.0240096,,,,,,,,,,,,,,p,1,1.701,1.615257843,1,1,14,0,56,1,1,,,,,,,,,,,,,,
,,,,,,,,,,,left.png,,w,left,6150644c34ae04340c40ea7d,2021-10-21_16h59.00.150,arrow_simon_punish,2021.1.2,Win32,60.0240096,,,,,,,,,,,,,,w,1,1.167,2.177230162,1,1,14,1,57,2,1,,,,,,,,,,,,,,
,,,,,,,,,,,right.png,,p,left,6150644c34ae04340c40ea7d,2021-10-21_16h59.00.150,arrow_simon_punish,2021.1.2,Win32,60.0240096,,,,,,,,,,,,,,p,1,1.684,2.460091933,1,1,14,2,58,0,1,,,,,,,,,,,,,,
,,,,,,,,,,,left.png,,w,left,6150644c34ae04340c40ea7d,2021-10-21_16h59.00.150,arrow_simon_punish,2021.1.2,Win32,60.0240096,,,,,,,,,,,,,,w,1,1.118,2.106532272,1,1,14,3,59,2,1,,,,,,,,,,,,,,
,,,,,,,,,,,,,,,6150644c34ae04340c40ea7d,2021-10-21_16h59.00.150,arrow_simon_punish,2021.1.2,Win32,60.0240096,,,,,,,,,,,,,,,,,,,,,,,,,space,14.937,2,0,0,0,0,1,1,,,,,
,,,,,,,,,,,right.png,,p,right,6150644c34ae04340c40ea7d,2021-10-21_16h59.00.150,arrow_simon_punish,2021.1.2,Win32,60.0240096,,,,,,,,,,,,,,p,1,1.306,1.786530249,1,5,0,0,0,1,1,,,,,,,,,,,,,,
,,,,,,,,,,,right.png,,p,left,6150644c34ae04340c40ea7d,2021-10-21_16h59.00.150,arrow_simon_punish,2021.1.2,Win32,60.0240096,,,,,,,,,,,,,,p,1,1.355,1.866440923,1,5,0,1,1,0,1,,,,,,,,,,,,,,
,,,,,,,,,,,right.png,,p,right,6150644c34ae04340c40ea7d,2021-10-21_16h59.00.150,arrow_simon_punish,2021.1.2,Win32,60.0240096,,,,,,,,,,,,,,p,1,1.368,2.102163431,1,5,0,2,2,1,1,,,,,,,,,,,,,,
,,,,,,,,,,,right.png,,p,right,6150644c34ae04340c40ea7d,2021-10-21_16h59.00.150,arrow_simon_punish,2021.1.2,Win32,60.0240096,,,,,,,,,,,,,,p,1,1.468,2.269301524,0,5,0,3,3,1,1,,,,,,,,,,,,,,
,,,,,,,,,,,right.png,,p,left,6150644c34ae04340c40ea7d,2021-10-21_16h59.00.150,arrow_simon_punish,2021.1.2,Win32,60.0240096,,,,,,,,,,,,,,p,1,1.3,1.542114326,1,5,1,0,4,0,1,,,,,,,,,,,,,,
,,,,,,,,,,,left.png,,w,right,6150644c34ae04340c40ea7d,2021-10-21_16h59.00.150,arrow_simon_punish,2021.1.2,Win32,60.0240096,,,,,,,,,,,,,,w,1,1.238,1.913789824,1,5,1,1,5,3,1,,,,,,,,,,,,,,
,,,,,,,,,,,right.png,,p,right,6150644c34ae04340c40ea7d,2021-10-21_16h59.00.150,arrow_simon_punish,2021.1.2,Win32,60.0240096,,,,,,,,,,,,,,p,1,1.52,1.731222204,0,5,1,2,6,1,1,,,,,,,,,,,,,,
,,,,,,,,,,,left.png,,w,right,6150644c34ae04340c40ea7d,2021-10-21_16h59.00.150,arrow_simon_punish,2021.1.2,Win32,60.0240096,,,,,,,,,,,,,,w,1,1.6,2.153296625,1,5,1,3,7,3,1,,,,,,,,,,,,,,
,,,,,,,,,,,left.png,,w,left,6150644c34ae04340c40ea7d,2021-10-21_16h59.00.150,arrow_simon_punish,2021.1.2,Win32,60.0240096,,,,,,,,,,,,,,w,1,1.269,2.014825978,1,5,2,0,8,2,1,,,,,,,,,,,,,,
,,,,,,,,,,,left.png,,w,left,6150644c34ae04340c40ea7d,2021-10-21_16h59.00.150,arrow_simon_punish,2021.1.2,Win32,60.0240096,,,,,,,,,,,,,,w,1,1.568,2.496984422,0,5,2,1,9,2,1,,,,,,,,,,,,,,
,,,,,,,,,,,right.png,,p,left,6150644c34ae04340c40ea7d,2021-10-21_16h59.00.150,arrow_simon_punish,2021.1.2,Win32,60.0240096,,,,,,,,,,,,,,p,1,1.351,1.784997029,1,5,2,2,10,0,1,,,,,,,,,,,,,,
,,,,,,,,,,,right.png,,p,right,6150644c34ae04340c40ea7d,2021-10-21_16h59.00.150,arrow_simon_punish,2021.1.2,Win32,60.0240096,,,,,,,,,,,,,,p,1,1.367,2.005028768,1,5,2,3,11,1,1,,,,,,,,,,,,,,
,,,,,,,,,,,right.png,,p,right,6150644c34ae04340c40ea7d,2021-10-21_16h59.00.150,arrow_simon_punish,2021.1.2,Win32,60.0240096,,,,,,,,,,,,,,p,1,1.569,2.203577543,0,5,3,0,12,1,1,,,,,,,,,,,,,,
,,,,,,,,,,,left.png,,w,left,6150644c34ae04340c40ea7d,2021-10-21_16h59.00.150,arrow_simon_punish,2021.1.2,Win32,60.0240096,,,,,,,,,,,,,,w,1,1.202,1.98208588,1,5,3,1,13,2,1,,,,,,,,,,,,,,
,,,,,,,,,,,left.png,,w,left,6150644c34ae04340c40ea7d,2021-10-21_16h59.00.150,arrow_simon_punish,2021.1.2,Win32,60.0240096,,,,,,,,,,,,,,w,1,1.094,1.857495243,1,5,3,2,14,2,1,,,,,,,,,,,,,,
,,,,,,,,,,,right.png,,p,right,6150644c34ae04340c40ea7d,2021-10-21_16h59.00.150,arrow_simon_punish,2021.1.2,Win32,60.0240096,,,,,,,,,,,,,,p,1,1.117,2.140009722,1,5,3,3,15,1,1,,,,,,,,,,,,,,
,,,,,,,,,,,right.png,,p,left,6150644c34ae04340c40ea7d,2021-10-21_16h59.00.150,arrow_simon_punish,2021.1.2,Win32,60.0240096,,,,,,,,,,,,,,p,1,1.284,1.902696077,1,5,4,0,16,0,1,,,,,,,,,,,,,,
,,,,,,,,,,,right.png,,p,right,6150644c34ae04340c40ea7d,2021-10-21_16h59.00.150,arrow_simon_punish,2021.1.2,Win32,60.0240096,,,,,,,,,,,,,,p,1,1.519,2.372122578,0,5,4,1,17,1,1,,,,,,,,,,,,,,
,,,,,,,,,,,left.png,,w,right,6150644c34ae04340c40ea7d,2021-10-21_16h59.00.150,arrow_simon_punish,2021.1.2,Win32,60.0240096,,,,,,,,,,,,,,w,1,1.686,2.392132602,1,5,4,2,18,3,1,,,,,,,,,,,,,,
,,,,,,,,,,,left.png,,w,left,6150644c34ae04340c40ea7d,2021-10-21_16h59.00.150,arrow_simon_punish,2021.1.2,Win32,60.0240096,,,,,,,,,,,,,,w,1,1.553,2.399416085,0,5,4,3,19,2,1,,,,,,,,,,,,,,
,,,,,,,,,,,right.png,,p,right,6150644c34ae04340c40ea7d,2021-10-21_16h59.00.150,arrow_simon_punish,2021.1.2,Win32,60.0240096,,,,,,,,,,,,,,p,1,1.303,2.052712858,1,5,5,0,20,1,1,,,,,,,,,,,,,,
,,,,,,,,,,,right.png,,p,right,6150644c34ae04340c40ea7d,2021-10-21_16h59.00.150,arrow_simon_punish,2021.1.2,Win32,60.0240096,,,,,,,,,,,,,,p,1,1.301,1.725708359,1,5,5,1,21,1,1,,,,,,,,,,,,,,
,,,,,,,,,,,left.png,,w,right,6150644c34ae04340c40ea7d,2021-10-21_16h59.00.150,arrow_simon_punish,2021.1.2,Win32,60.0240096,,,,,,,,,,,,,,w,1,2.354,2.325591168,1,5,5,2,22,3,1,,,,,,,,,,,,,,
,,,,,,,,,,,left.png,,w,left,6150644c34ae04340c40ea7d,2021-10-21_16h59.00.150,arrow_simon_punish,2021.1.2,Win32,60.0240096,,,,,,,,,,,,,,w,1,0.902,1.720396328,1,5,5,3,23,2,1,,,,,,,,,,,,,,
,,,,,,,,,,,right.png,,p,right,6150644c34ae04340c40ea7d,2021-10-21_16h59.00.150,arrow_simon_punish,2021.1.2,Win32,60.0240096,,,,,,,,,,,,,,p,1,1.337,1.620662244,1,5,6,0,24,1,1,,,,,,,,,,,,,,
,,,,,,,,,,,right.png,,p,left,6150644c34ae04340c40ea7d,2021-10-21_16h59.00.150,arrow_simon_punish,2021.1.2,Win32,60.0240096,,,,,,,,,,,,,,w,0,1.586,2.318060953,1,5,6,1,25,0,1,,,,,,,,,,,,,,
,,,,,,,,,,,left.png,,w,left,6150644c34ae04340c40ea7d,2021-10-21_16h59.00.150,arrow_simon_punish,2021.1.2,Win32,60.0240096,,,,,,,,,,,,,,w,1,1.383,1.70113924,1,5,6,2,26,2,1,,,,,,,,,,,,,,
,,,,,,,,,,,left.png,,w,left,6150644c34ae04340c40ea7d,2021-10-21_16h59.00.150,arrow_simon_punish,2021.1.2,Win32,60.0240096,,,,,,,,,,,,,,w,1,1.6,2.452339731,1,5,6,3,27,2,1,,,,,,,,,,,,,,
,,,,,,,,,,,left.png,,w,right,6150644c34ae04340c40ea7d,2021-10-21_16h59.00.150,arrow_simon_punish,2021.1.2,Win32,60.0240096,,,,,,,,,,,,,,w,1,1.721,2.340467481,1,5,7,0,28,3,1,,,,,,,,,,,,,,
,,,,,,,,,,,left.png,,w,left,6150644c34ae04340c40ea7d,2021-10-21_16h59.00.150,arrow_simon_punish,2021.1.2,Win32,60.0240096,,,,,,,,,,,,,,w,1,1.555,2.063338248,0,5,7,1,29,2,1,,,,,,,,,,,,,,
,,,,,,,,,,,right.png,,p,left,6150644c34ae04340c40ea7d,2021-10-21_16h59.00.150,arrow_simon_punish,2021.1.2,Win32,60.0240096,,,,,,,,,,,,,,p,1,1.456,1.749006218,0,5,7,2,30,0,1,,,,,,,,,,,,,,
,,,,,,,,,,,left.png,,w,left,6150644c34ae04340c40ea7d,2021-10-21_16h59.00.150,arrow_simon_punish,2021.1.2,Win32,60.0240096,,,,,,,,,,,,,,w,1,1.351,2.465684592,1,5,7,3,31,2,1,,,,,,,,,,,,,,
,,,,,,,,,,,left.png,,w,right,6150644c34ae04340c40ea7d,2021-10-21_16h59.00.150,arrow_simon_punish,2021.1.2,Win32,60.0240096,,,,,,,,,,,,,,w,1,1.404,2.032643701,0,5,8,0,32,3,1,,,,,,,,,,,,,,
,,,,,,,,,,,right.png,,p,left,6150644c34ae04340c40ea7d,2021-10-21_16h59.00.150,arrow_simon_punish,2021.1.2,Win32,60.0240096,,,,,,,,,,,,,,p,1,1.95,1.96588156,1,5,8,1,33,0,1,,,,,,,,,,,,,,
,,,,,,,,,,,left.png,,w,left,6150644c34ae04340c40ea7d,2021-10-21_16h59.00.150,arrow_simon_punish,2021.1.2,Win32,60.0240096,,,,,,,,,,,,,,w,1,1.535,2.415912558,0,5,8,2,34,2,1,,,,,,,,,,,,,,
,,,,,,,,,,,left.png,,w,right,6150644c34ae04340c40ea7d,2021-10-21_16h59.00.150,arrow_simon_punish,2021.1.2,Win32,60.0240096,,,,,,,,,,,,,,p,0,1.417,2.060800644,1,5,8,3,35,3,1,,,,,,,,,,,,,,
,,,,,,,,,,,left.png,,w,left,6150644c34ae04340c40ea7d,2021-10-21_16h59.00.150,arrow_simon_punish,2021.1.2,Win32,60.0240096,,,,,,,,,,,,,,w,1,1.085,2.099538274,1,5,9,0,36,2,1,,,,,,,,,,,,,,
,,,,,,,,,,,left.png,,w,right,6150644c34ae04340c40ea7d,2021-10-21_16h59.00.150,arrow_simon_punish,2021.1.2,Win32,60.0240096,,,,,,,,,,,,,,w,1,1.756,1.78747713,1,5,9,1,37,3,1,,,,,,,,,,,,,,
,,,,,,,,,,,left.png,,w,right,6150644c34ae04340c40ea7d,2021-10-21_16h59.00.150,arrow_simon_punish,2021.1.2,Win32,60.0240096,,,,,,,,,,,,,,w,1,1.315,1.716187845,1,5,9,2,38,3,1,,,,,,,,,,,,,,
,,,,,,,,,,,right.png,,p,left,6150644c34ae04340c40ea7d,2021-10-21_16h59.00.150,arrow_simon_punish,2021.1.2,Win32,60.0240096,,,,,,,,,,,,,,w,0,1.189,2.256095041,1,5,9,3,39,0,1,,,,,,,,,,,,,,
,,,,,,,,,,,right.png,,p,right,6150644c34ae04340c40ea7d,2021-10-21_16h59.00.150,arrow_simon_punish,2021.1.2,Win32,60.0240096,,,,,,,,,,,,,,p,1,1.8,2.125795266,1,5,10,0,40,1,1,,,,,,,,,,,,,,
,,,,,,,,,,,right.png,,p,right,6150644c34ae04340c40ea7d,2021-10-21_16h59.00.150,arrow_simon_punish,2021.1.2,Win32,60.0240096,,,,,,,,,,,,,,p,1,1.455,2.348651165,0,5,10,1,41,1,1,,,,,,,,,,,,,,
,,,,,,,,,,,left.png,,w,right,6150644c34ae04340c40ea7d,2021-10-21_16h59.00.150,arrow_simon_punish,2021.1.2,Win32,60.0240096,,,,,,,,,,,,,,w,1,1.422,1.643673585,0,5,10,2,42,3,1,,,,,,,,,,,,,,
,,,,,,,,,,,left.png,,w,left,6150644c34ae04340c40ea7d,2021-10-21_16h59.00.150,arrow_simon_punish,2021.1.2,Win32,60.0240096,,,,,,,,,,,,,,w,1,1.667,1.600656967,1,5,10,3,43,2,1,,,,,,,,,,,,,,
,,,,,,,,,,,right.png,,p,left,6150644c34ae04340c40ea7d,2021-10-21_16h59.00.150,arrow_simon_punish,2021.1.2,Win32,60.0240096,,,,,,,,,,,,,,p,1,1.668,2.194068316,1,5,11,0,44,0,1,,,,,,,,,,,,,,
,,,,,,,,,,,left.png,,w,left,6150644c34ae04340c40ea7d,2021-10-21_16h59.00.150,arrow_simon_punish,2021.1.2,Win32,60.0240096,,,,,,,,,,,,,,w,1,1.468,2.12017144,0,5,11,1,45,2,1,,,,,,,,,,,,,,
,,,,,,,,,,,left.png,,w,right,6150644c34ae04340c40ea7d,2021-10-21_16h59.00.150,arrow_simon_punish,2021.1.2,Win32,60.0240096,,,,,,,,,,,,,,w,1,1.201,2.006682047,1,5,11,2,46,3,1,,,,,,,,,,,,,,
,,,,,,,,,,,right.png,,p,left,6150644c34ae04340c40ea7d,2021-10-21_16h59.00.150,arrow_simon_punish,2021.1.2,Win32,60.0240096,,,,,,,,,,,,,,p,1,1.684,1.797435272,1,5,11,3,47,0,1,,,,,,,,,,,,,,
,,,,,,,,,,,right.png,,p,left,6150644c34ae04340c40ea7d,2021-10-21_16h59.00.150,arrow_simon_punish,2021.1.2,Win32,60.0240096,,,,,,,,,,,,,,p,1,1.268,1.787497533,1,5,12,0,48,0,1,,,,,,,,,,,,,,
,,,,,,,,,,,right.png,,p,left,6150644c34ae04340c40ea7d,2021-10-21_16h59.00.150,arrow_simon_punish,2021.1.2,Win32,60.0240096,,,,,,,,,,,,,,p,1,1.417,1.653892401,0,5,12,1,49,0,1,,,,,,,,,,,,,,
,,,,,,,,,,,right.png,,p,left,6150644c34ae04340c40ea7d,2021-10-21_16h59.00.150,arrow_simon_punish,2021.1.2,Win32,60.0240096,,,,,,,,,,,,,,w,0,1.37,1.709640348,1,5,12,2,50,0,1,,,,,,,,,,,,,,
,,,,,,,,,,,left.png,,w,right,6150644c34ae04340c40ea7d,2021-10-21_16h59.00.150,arrow_simon_punish,2021.1.2,Win32,60.0240096,,,,,,,,,,,,,,w,1,1.6,2.30929072,1,5,12,3,51,3,1,,,,,,,,,,,,,,
,,,,,,,,,,,right.png,,p,left,6150644c34ae04340c40ea7d,2021-10-21_16h59.00.150,arrow_simon_punish,2021.1.2,Win32,60.0240096,,,,,,,,,,,,,,p,1,1.236,1.767455763,1,5,13,0,52,0,1,,,,,,,,,,,,,,
,,,,,,,,,,,right.png,,p,left,6150644c34ae04340c40ea7d,2021-10-21_16h59.00.150,arrow_simon_punish,2021.1.2,Win32,60.0240096,,,,,,,,,,,,,,w,0,1.555,1.760504189,1,5,13,1,53,0,1,,,,,,,,,,,,,,
,,,,,,,,,,,left.png,,w,right,6150644c34ae04340c40ea7d,2021-10-21_16h59.00.150,arrow_simon_punish,2021.1.2,Win32,60.0240096,,,,,,,,,,,,,,w,1,1.284,1.595331518,1,5,13,2,54,3,1,,,,,,,,,,,,,,
,,,,,,,,,,,left.png,,w,right,6150644c34ae04340c40ea7d,2021-10-21_16h59.00.150,arrow_simon_punish,2021.1.2,Win32,60.0240096,,,,,,,,,,,,,,w,1,1.817,2.419190725,1,5,13,3,55,3,1,,,,,,,,,,,,,,
,,,,,,,,,,,right.png,,p,right,6150644c34ae04340c40ea7d,2021-10-21_16h59.00.150,arrow_simon_punish,2021.1.2,Win32,60.0240096,,,,,,,,,,,,,,p,1,1.403,1.99222297,0,5,14,0,56,1,1,,,,,,,,,,,,,,
,,,,,,,,,,,left.png,,w,right,6150644c34ae04340c40ea7d,2021-10-21_16h59.00.150,arrow_simon_punish,2021.1.2,Win32,60.0240096,,,,,,,,,,,,,,w,1,1.088,1.679919484,1,5,14,1,57,3,1,,,,,,,,,,,,,,
,,,,,,,,,,,right.png,,p,right,6150644c34ae04340c40ea7d,2021-10-21_16h59.00.150,arrow_simon_punish,2021.1.2,Win32,60.0240096,,,,,,,,,,,,,,p,1,1.337,1.51882102,1,5,14,2,58,1,1,,,,,,,,,,,,,,
,,,,,,,,,,,left.png,,w,left,6150644c34ae04340c40ea7d,2021-10-21_16h59.00.150,arrow_simon_punish,2021.1.2,Win32,60.0240096,,,,,,,,,,,,,,w,1,1.253,2.318554336,1,5,14,3,59,2,1,,,,,,,,,,,,,,
,,,,,,,,,,,,,,,6150644c34ae04340c40ea7d,2021-10-21_16h59.00.150,arrow_simon_punish,2021.1.2,Win32,60.0240096,,,,,,,,,,,,,,,,,,,,,,,,,space,787.157,3,0,1,1,1,1,5,,,,,
,,,,,,,,,,,left.png,,w,right,6150644c34ae04340c40ea7d,2021-10-21_16h59.00.150,arrow_simon_punish,2021.1.2,Win32,60.0240096,,,,,,,,,,,,,,w,1,1.351,2.057459466,1,1,0,0,0,3,1,,,,,,,,,,,,,,
,,,,,,,,,,,left.png,,w,right,6150644c34ae04340c40ea7d,2021-10-21_16h59.00.150,arrow_simon_punish,2021.1.2,Win32,60.0240096,,,,,,,,,,,,,,w,1,1.67,2.285572727,1,1,0,1,1,3,1,,,,,,,,,,,,,,
,,,,,,,,,,,left.png,,w,left,6150644c34ae04340c40ea7d,2021-10-21_16h59.00.150,arrow_simon_punish,2021.1.2,Win32,60.0240096,,,,,,,,,,,,,,w,1,0.718,1.516534735,1,1,0,2,2,2,1,,,,,,,,,,,,,,
,,,,,,,,,,,right.png,,p,right,6150644c34ae04340c40ea7d,2021-10-21_16h59.00.150,arrow_simon_punish,2021.1.2,Win32,60.0240096,,,,,,,,,,,,,,p,1,1.153,1.830872309,1,1,0,3,3,1,1,,,,,,,,,,,,,,
,,,,,,,,,,,right.png,,p,left,6150644c34ae04340c40ea7d,2021-10-21_16h59.00.150,arrow_simon_punish,2021.1.2,Win32,60.0240096,,,,,,,,,,,,,,p,1,1.421,1.763628992,0,1,1,0,4,0,1,,,,,,,,,,,,,,
,,,,,,,,,,,right.png,,p,left,6150644c34ae04340c40ea7d,2021-10-21_16h59.00.150,arrow_simon_punish,2021.1.2,Win32,60.0240096,,,,,,,,,,,,,,p,1,1.471,1.604154478,0,1,1,1,5,0,1,,,,,,,,,,,,,,
,,,,,,,,,,,right.png,,p,right,6150644c34ae04340c40ea7d,2021-10-21_16h59.00.150,arrow_simon_punish,2021.1.2,Win32,60.0240096,,,,,,,,,,,,,,p,1,1.335,1.948132278,1,1,1,2,6,1,1,,,,,,,,,,,,,,
,,,,,,,,,,,right.png,,p,right,6150644c34ae04340c40ea7d,2021-10-21_16h59.00.150,arrow_simon_punish,2021.1.2,Win32,60.0240096,,,,,,,,,,,,,,p,1,1.334,1.606839765,1,1,1,3,7,1,1,,,,,,,,,,,,,,
,,,,,,,,,,,left.png,,w,right,6150644c34ae04340c40ea7d,2021-10-21_16h59.00.150,arrow_simon_punish,2021.1.2,Win32,60.0240096,,,,,,,,,,,,,,w,1,1.296,2.069316802,1,1,2,0,8,3,1,,,,,,,,,,,,,,
,,,,,,,,,,,left.png,,w,left,6150644c34ae04340c40ea7d,2021-10-21_16h59.00.150,arrow_simon_punish,2021.1.2,Win32,60.0240096,,,,,,,,,,,,,,w,1,1.299,1.6485112,1,1,2,1,9,2,1,,,,,,,,,,,,,,
,,,,,,,,,,,right.png,,p,right,6150644c34ae04340c40ea7d,2021-10-21_16h59.00.150,arrow_simon_punish,2021.1.2,Win32,60.0240096,,,,,,,,,,,,,,p,1,1.486,1.663360632,0,1,2,2,10,1,1,,,,,,,,,,,,,,
,,,,,,,,,,,right.png,,p,right,6150644c34ae04340c40ea7d,2021-10-21_16h59.00.150,arrow_simon_punish,2021.1.2,Win32,60.0240096,,,,,,,,,,,,,,p,1,1.435,2.202187539,0,1,2,3,11,1,1,,,,,,,,,,,,,,
,,,,,,,,,,,left.png,,w,right,6150644c34ae04340c40ea7d,2021-10-21_16h59.00.150,arrow_simon_punish,2021.1.2,Win32,60.0240096,,,,,,,,,,,,,,w,1,1.379,1.920042233,1,1,3,0,12,3,1,,,,,,,,,,,,,,
,,,,,,,,,,,left.png,,w,left,6150644c34ae04340c40ea7d,2021-10-21_16h59.00.150,arrow_simon_punish,2021.1.2,Win32,60.0240096,,,,,,,,,,,,,,w,1,1.219,2.141516566,1,1,3,1,13,2,1,,,,,,,,,,,,,,
,,,,,,,,,,,right.png,,p,left,6150644c34ae04340c40ea7d,2021-10-21_16h59.00.150,arrow_simon_punish,2021.1.2,Win32,60.0240096,,,,,,,,,,,,,,p,1,1.486,1.701479924,0,1,3,2,14,0,1,,,,,,,,,,,,,,
,,,,,,,,,,,right.png,,p,left,6150644c34ae04340c40ea7d,2021-10-21_16h59.00.150,arrow_simon_punish,2021.1.2,Win32,60.0240096,,,,,,,,,,,,,,p,1,1.438,1.92054002,0,1,3,3,15,0,1,,,,,,,,,,,,,,
,,,,,,,,,,,left.png,,w,left,6150644c34ae04340c40ea7d,2021-10-21_16h59.00.150,arrow_simon_punish,2021.1.2,Win32,60.0240096,,,,,,,,,,,,,,w,1,1.019,1.579709667,1,1,4,0,16,2,1,,,,,,,,,,,,,,
,,,,,,,,,,,left.png,,w,left,6150644c34ae04340c40ea7d,2021-10-21_16h59.00.150,arrow_simon_punish,2021.1.2,Win32,60.0240096,,,,,,,,,,,,,,w,1,1.133,2.096880351,1,1,4,1,17,2,1,,,,,,,,,,,,,,
,,,,,,,,,,,right.png,,p,right,6150644c34ae04340c40ea7d,2021-10-21_16h59.00.150,arrow_simon_punish,2021.1.2,Win32,60.0240096,,,,,,,,,,,,,,p,1,1.372,2.447062545,1,1,4,2,18,1,1,,,,,,,,,,,,,,
,,,,,,,,,,,right.png,,p,left,6150644c34ae04340c40ea7d,2021-10-21_16h59.00.150,arrow_simon_punish,2021.1.2,Win32,60.0240096,,,,,,,,,,,,,,p,1,1.402,2.363226899,0,1,4,3,19,0,1,,,,,,,,,,,,,,
,,,,,,,,,,,left.png,,w,right,6150644c34ae04340c40ea7d,2021-10-21_16h59.00.150,arrow_simon_punish,2021.1.2,Win32,60.0240096,,,,,,,,,,,,,,p,0,1.667,2.21560088,1,1,5,0,20,3,1,,,,,,,,,,,,,,
,,,,,,,,,,,right.png,,p,right,6150644c34ae04340c40ea7d,2021-10-21_16h59.00.150,arrow_simon_punish,2021.1.2,Win32,60.0240096,,,,,,,,,,,,,,p,1,1.367,1.85068585,1,1,5,1,21,1,1,,,,,,,,,,,,,,
,,,,,,,,,,,right.png,,p,right,6150644c34ae04340c40ea7d,2021-10-21_16h59.00.150,arrow_simon_punish,2021.1.2,Win32,60.0240096,,,,,,,,,,,,,,p,1,1.404,1.556761375,0,1,5,2,22,1,1,,,,,,,,,,,,,,
,,,,,,,,,,,left.png,,w,right,6150644c34ae04340c40ea7d,2021-10-21_16h59.00.150,arrow_simon_punish,2021.1.2,Win32,60.0240096,,,,,,,,,,,,,,w,1,1.552,2.357485847,0,1,5,3,23,3,1,,,,,,,,,,,,,,
,,,,,,,,,,,right.png,,p,right,6150644c34ae04340c40ea7d,2021-10-21_16h59.00.150,arrow_simon_punish,2021.1.2,Win32,60.0240096,,,,,,,,,,,,,,p,1,1.235,1.949656952,1,1,6,0,24,1,1,,,,,,,,,,,,,,
,,,,,,,,,,,left.png,,w,left,6150644c34ae04340c40ea7d,2021-10-21_16h59.00.150,arrow_simon_punish,2021.1.2,Win32,60.0240096,,,,,,,,,,,,,,w,1,1.501,1.74576676,0,1,6,1,25,2,1,,,,,,,,,,,,,,
,,,,,,,,,,,left.png,,w,right,6150644c34ae04340c40ea7d,2021-10-21_16h59.00.150,arrow_simon_punish,2021.1.2,Win32,60.0240096,,,,,,,,,,,,,,w,1,1.335,1.874678005,1,1,6,2,26,3,1,,,,,,,,,,,,,,
,,,,,,,,,,,left.png,,w,left,6150644c34ae04340c40ea7d,2021-10-21_16h59.00.150,arrow_simon_punish,2021.1.2,Win32,60.0240096,,,,,,,,,,,,,,w,1,1.436,2.280290906,0,1,6,3,27,2,1,,,,,,,,,,,,,,
,,,,,,,,,,,right.png,,p,left,6150644c34ae04340c40ea7d,2021-10-21_16h59.00.150,arrow_simon_punish,2021.1.2,Win32,60.0240096,,,,,,,,,,,,,,p,1,1.402,1.60047149,0,1,7,0,28,0,1,,,,,,,,,,,,,,
,,,,,,,,,,,left.png,,w,left,6150644c34ae04340c40ea7d,2021-10-21_16h59.00.150,arrow_simon_punish,2021.1.2,Win32,60.0240096,,,,,,,,,,,,,,w,1,1.284,2.385879664,1,1,7,1,29,2,1,,,,,,,,,,,,,,
,,,,,,,,,,,right.png,,p,left,6150644c34ae04340c40ea7d,2021-10-21_16h59.00.150,arrow_simon_punish,2021.1.2,Win32,60.0240096,,,,,,,,,,,,,,p,1,1.305,1.846464894,1,1,7,2,30,0,1,,,,,,,,,,,,,,
,,,,,,,,,,,right.png,,p,right,6150644c34ae04340c40ea7d,2021-10-21_16h59.00.150,arrow_simon_punish,2021.1.2,Win32,60.0240096,,,,,,,,,,,,,,p,1,1.802,1.70182391,1,1,7,3,31,1,1,,,,,,,,,,,,,,
,,,,,,,,,,,left.png,,w,left,6150644c34ae04340c40ea7d,2021-10-21_16h59.00.150,arrow_simon_punish,2021.1.2,Win32,60.0240096,,,,,,,,,,,,,,w,1,1.153,2.192147469,1,1,8,0,32,2,1,,,,,,,,,,,,,,
,,,,,,,,,,,right.png,,p,left,6150644c34ae04340c40ea7d,2021-10-21_16h59.00.150,arrow_simon_punish,2021.1.2,Win32,60.0240096,,,,,,,,,,,,,,p,1,1.85,2.318626547,1,1,8,1,33,0,1,,,,,,,,,,,,,,
,,,,,,,,,,,left.png,,w,left,6150644c34ae04340c40ea7d,2021-10-21_16h59.00.150,arrow_simon_punish,2021.1.2,Win32,60.0240096,,,,,,,,,,,,,,w,1,1.387,2.437131985,1,1,8,2,34,2,1,,,,,,,,,,,,,,
,,,,,,,,,,,left.png,,w,left,6150644c34ae04340c40ea7d,2021-10-21_16h59.00.150,arrow_simon_punish,2021.1.2,Win32,60.0240096,,,,,,,,,,,,,,w,1,1.12,2.190219078,1,1,8,3,35,2,1,,,,,,,,,,,,,,
,,,,,,,,,,,right.png,,p,left,6150644c34ae04340c40ea7d,2021-10-21_16h59.00.150,arrow_simon_punish,2021.1.2,Win32,60.0240096,,,,,,,,,,,,,,p,1,0.935,1.71906769,1,1,9,0,36,0,1,,,,,,,,,,,,,,
,,,,,,,,,,,left.png,,w,right,6150644c34ae04340c40ea7d,2021-10-21_16h59.00.150,arrow_simon_punish,2021.1.2,Win32,60.0240096,,,,,,,,,,,,,,w,1,1.017,1.80225023,1,1,9,1,37,3,1,,,,,,,,,,,,,,
,,,,,,,,,,,right.png,,p,right,6150644c34ae04340c40ea7d,2021-10-21_16h59.00.150,arrow_simon_punish,2021.1.2,Win32,60.0240096,,,,,,,,,,,,,,p,1,1.271,1.730868235,1,1,9,2,38,1,1,,,,,,,,,,,,,,
,,,,,,,,,,,right.png,,p,right,6150644c34ae04340c40ea7d,2021-10-21_16h59.00.150,arrow_simon_punish,2021.1.2,Win32,60.0240096,,,,,,,,,,,,,,p,1,1.284,1.85884122,1,1,9,3,39,1,1,,,,,,,,,,,,,,
,,,,,,,,,,,left.png,,w,right,6150644c34ae04340c40ea7d,2021-10-21_16h59.00.150,arrow_simon_punish,2021.1.2,Win32,60.0240096,,,,,,,,,,,,,,w,1,1.218,1.959035111,1,1,10,0,40,3,1,,,,,,,,,,,,,,
,,,,,,,,,,,right.png,,p,left,6150644c34ae04340c40ea7d,2021-10-21_16h59.00.150,arrow_simon_punish,2021.1.2,Win32,60.0240096,,,,,,,,,,,,,,p,1,1.334,1.613802421,1,1,10,1,41,0,1,,,,,,,,,,,,,,
,,,,,,,,,,,right.png,,p,left,6150644c34ae04340c40ea7d,2021-10-21_16h59.00.150,arrow_simon_punish,2021.1.2,Win32,60.0240096,,,,,,,,,,,,,,w,0,1.651,2.095950798,1,1,10,2,42,0,1,,,,,,,,,,,,,,
,,,,,,,,,,,left.png,,w,right,6150644c34ae04340c40ea7d,2021-10-21_16h59.00.150,arrow_simon_punish,2021.1.2,Win32,60.0240096,,,,,,,,,,,,,,w,1,2.035,2.272884001,1,1,10,3,43,3,1,,,,,,,,,,,,,,
,,,,,,,,,,,right.png,,p,left,6150644c34ae04340c40ea7d,2021-10-21_16h59.00.150,arrow_simon_punish,2021.1.2,Win32,60.0240096,,,,,,,,,,,,,,p,1,1.351,1.731308548,1,1,11,0,44,0,1,,,,,,,,,,,,,,
,,,,,,,,,,,right.png,,p,right,6150644c34ae04340c40ea7d,2021-10-21_16h59.00.150,arrow_simon_punish,2021.1.2,Win32,60.0240096,,,,,,,,,,,,,,p,1,1.103,1.808023129,1,1,11,1,45,1,1,,,,,,,,,,,,,,
,,,,,,,,,,,right.png,,p,left,6150644c34ae04340c40ea7d,2021-10-21_16h59.00.150,arrow_simon_punish,2021.1.2,Win32,60.0240096,,,,,,,,,,,,,,p,1,1.335,1.568691408,1,1,11,2,46,0,1,,,,,,,,,,,,,,
,,,,,,,,,,,left.png,,w,left,6150644c34ae04340c40ea7d,2021-10-21_16h59.00.150,arrow_simon_punish,2021.1.2,Win32,60.0240096,,,,,,,,,,,,,,w,1,1.283,1.825749017,1,1,11,3,47,2,1,,,,,,,,,,,,,,
,,,,,,,,,,,left.png,,w,right,6150644c34ae04340c40ea7d,2021-10-21_16h59.00.150,arrow_simon_punish,2021.1.2,Win32,60.0240096,,,,,,,,,,,,,,w,1,1.402,1.972293384,0,1,12,0,48,3,1,,,,,,,,,,,,,,
,,,,,,,,,,,left.png,,w,right,6150644c34ae04340c40ea7d,2021-10-21_16h59.00.150,arrow_simon_punish,2021.1.2,Win32,60.0240096,,,,,,,,,,,,,,w,1,1.168,1.841409117,1,1,12,1,49,3,1,,,,,,,,,,,,,,
,,,,,,,,,,,right.png,,p,right,6150644c34ae04340c40ea7d,2021-10-21_16h59.00.150,arrow_simon_punish,2021.1.2,Win32,60.0240096,,,,,,,,,,,,,,p,1,1.404,2.145526381,0,1,12,2,50,1,1,,,,,,,,,,,,,,
,,,,,,,,,,,left.png,,w,right,6150644c34ae04340c40ea7d,2021-10-21_16h59.00.150,arrow_simon_punish,2021.1.2,Win32,60.0240096,,,,,,,,,,,,,,w,1,1.118,1.777409313,1,1,12,3,51,3,1,,,,,,,,,,,,,,
,,,,,,,,,,,left.png,,w,left,6150644c34ae04340c40ea7d,2021-10-21_16h59.00.150,arrow_simon_punish,2021.1.2,Win32,60.0240096,,,,,,,,,,,,,,w,1,1.2,2.169271282,1,1,13,0,52,2,1,,,,,,,,,,,,,,
,,,,,,,,,,,right.png,,p,left,6150644c34ae04340c40ea7d,2021-10-21_16h59.00.150,arrow_simon_punish,2021.1.2,Win32,60.0240096,,,,,,,,,,,,,,p,1,1.646,2.419491934,1,1,13,1,53,0,1,,,,,,,,,,,,,,
,,,,,,,,,,,left.png,,w,right,6150644c34ae04340c40ea7d,2021-10-21_16h59.00.150,arrow_simon_punish,2021.1.2,Win32,60.0240096,,,,,,,,,,,,,,w,1,1.287,2.015280382,1,1,13,2,54,3,1,,,,,,,,,,,,,,
,,,,,,,,,,,left.png,,w,right,6150644c34ae04340c40ea7d,2021-10-21_16h59.00.150,arrow_simon_punish,2021.1.2,Win32,60.0240096,,,,,,,,,,,,,,w,1,0.788,1.564953382,1,1,13,3,55,3,1,,,,,,,,,,,,,,
,,,,,,,,,,,right.png,,p,right,6150644c34ae04340c40ea7d,2021-10-21_16h59.00.150,arrow_simon_punish,2021.1.2,Win32,60.0240096,,,,,,,,,,,,,,p,1,1.522,2.112934385,0,1,14,0,56,1,1,,,,,,,,,,,,,,
,,,,,,,,,,,left.png,,w,left,6150644c34ae04340c40ea7d,2021-10-21_16h59.00.150,arrow_simon_punish,2021.1.2,Win32,60.0240096,,,,,,,,,,,,,,w,1,1.486,2.417172421,0,1,14,1,57,2,1,,,,,,,,,,,,,,
,,,,,,,,,,,right.png,,p,left,6150644c34ae04340c40ea7d,2021-10-21_16h59.00.150,arrow_simon_punish,2021.1.2,Win32,60.0240096,,,,,,,,,,,,,,w,0,1.086,2.388873192,1,1,14,2,58,0,1,,,,,,,,,,,,,,
,,,,,,,,,,,left.png,,w,left,6150644c34ae04340c40ea7d,2021-10-21_16h59.00.150,arrow_simon_punish,2021.1.2,Win32,60.0240096,,,,,,,,,,,,,,w,1,1.434,2.47846726,0,1,14,3,59,2,1,,,,,,,,,,,,,,
,,,,,,,,,,,,,,,6150644c34ae04340c40ea7d,2021-10-21_16h59.00.150,arrow_simon_punish,2021.1.2,Win32,60.0240096,,,,,,,,,,,,,,,,,,,,,,,,,space,4.038,4,1,0,2,0,1,1,,,,,
,,,,,,,,,,,right.png,,p,right,6150644c34ae04340c40ea7d,2021-10-21_16h59.00.150,arrow_simon_punish,2021.1.2,Win32,60.0240096,,,,,,,,,,,,,,p,1,1.651,1.643350814,1,5,0,0,0,1,1,,,,,,,,,,,,,,
,,,,,,,,,,,left.png,,w,right,6150644c34ae04340c40ea7d,2021-10-21_16h59.00.150,arrow_simon_punish,2021.1.2,Win32,60.0240096,,,,,,,,,,,,,,w,1,1.152,1.890900465,1,5,0,1,1,3,1,,,,,,,,,,,,,,
,,,,,,,,,,,left.png,,w,right,6150644c34ae04340c40ea7d,2021-10-21_16h59.00.150,arrow_simon_punish,2021.1.2,Win32,60.0240096,,,,,,,,,,,,,,w,1,1.234,2.224042342,1,5,0,2,2,3,1,,,,,,,,,,,,,,
,,,,,,,,,,,left.png,,w,right,6150644c34ae04340c40ea7d,2021-10-21_16h59.00.150,arrow_simon_punish,2021.1.2,Win32,60.0240096,,,,,,,,,,,,,,w,1,1.169,2.079425352,1,5,0,3,3,3,1,,,,,,,,,,,,,,
,,,,,,,,,,,left.png,,w,left,6150644c34ae04340c40ea7d,2021-10-21_16h59.00.150,arrow_simon_punish,2021.1.2,Win32,60.0240096,,,,,,,,,,,,,,w,1,1.283,1.642289706,1,5,1,0,4,2,1,,,,,,,,,,,,,,
,,,,,,,,,,,left.png,,w,left,6150644c34ae04340c40ea7d,2021-10-21_16h59.00.150,arrow_simon_punish,2021.1.2,Win32,60.0240096,,,,,,,,,,,,,,w,1,1.236,1.639451189,1,5,1,1,5,2,1,,,,,,,,,,,,,,
,,,,,,,,,,,right.png,,p,right,6150644c34ae04340c40ea7d,2021-10-21_16h59.00.150,arrow_simon_punish,2021.1.2,Win32,60.0240096,,,,,,,,,,,,,,p,1,1.337,1.83475815,1,5,1,2,6,1,1,,,,,,,,,,,,,,
,,,,,,,,,,,right.png,,p,right,6150644c34ae04340c40ea7d,2021-10-21_16h59.00.150,arrow_simon_punish,2021.1.2,Win32,60.0240096,,,,,,,,,,,,,,p,1,1.305,1.610103901,1,5,1,3,7,1,1,,,,,,,,,,,,,,
,,,,,,,,,,,right.png,,p,left,6150644c34ae04340c40ea7d,2021-10-21_16h59.00.150,arrow_simon_punish,2021.1.2,Win32,60.0240096,,,,,,,,,,,,,,p,1,1.586,1.626996448,0,5,2,0,8,0,1,,,,,,,,,,,,,,
,,,,,,,,,,,right.png,,p,right,6150644c34ae04340c40ea7d,2021-10-21_16h59.00.150,arrow_simon_punish,2021.1.2,Win32,60.0240096,,,,,,,,,,,,,,p,1,1.055,1.727262409,1,5,2,1,9,1,1,,,,,,,,,,,,,,
,,,,,,,,,,,right.png,,p,left,6150644c34ae04340c40ea7d,2021-10-21_16h59.00.150,arrow_simon_punish,2021.1.2,Win32,60.0240096,,,,,,,,,,,,,,p,1,1.383,2.031435372,1,5,2,2,10,0,1,,,,,,,,,,,,,,
,,,,,,,,,,,left.png,,w,left,6150644c34ae04340c40ea7d,2021-10-21_16h59.00.150,arrow_simon_punish,2021.1.2,Win32,60.0240096,,,,,,,,,,,,,,w,1,1.334,2.145793913,1,5,2,3,11,2,1,,,,,,,,,,,,,,
,,,,,,,,,,,right.png,,p,left,6150644c34ae04340c40ea7d,2021-10-21_16h59.00.150,arrow_simon_punish,2021.1.2,Win32,60.0240096,,,,,,,,,,,,,,p,1,1.339,1.967177151,1,5,3,0,12,0,1,,,,,,,,,,,,,,
,,,,,,,,,,,right.png,,p,left,6150644c34ae04340c40ea7d,2021-10-21_16h59.00.150,arrow_simon_punish,2021.1.2,Win32,60.0240096,,,,,,,,,,,,,,p,1,1.451,2.300388127,0,5,3,1,13,0,1,,,,,,,,,,,,,,
,,,,,,,,,,,right.png,,p,right,6150644c34ae04340c40ea7d,2021-10-21_16h59.00.150,arrow_simon_punish,2021.1.2,Win32,60.0240096,,,,,,,,,,,,,,p,1,1.135,1.672473137,1,5,3,2,14,1,1,,,,,,,,,,,,,,
,,,,,,,,,,,left.png,,w,right,6150644c34ae04340c40ea7d,2021-10-21_16h59.00.150,arrow_simon_punish,2021.1.2,Win32,60.0240096,,,,,,,,,,,,,,w,1,1.355,1.683082671,1,5,3,3,15,3,1,,,,,,,,,,,,,,
,,,,,,,,,,,left.png,,w,right,6150644c34ae04340c40ea7d,2021-10-21_16h59.00.150,arrow_simon_punish,2021.1.2,Win32,60.0240096,,,,,,,,,,,,,,w,1,1.351,2.072609879,1,5,4,0,16,3,1,,,,,,,,,,,,,,
,,,,,,,,,,,left.png,,w,left,6150644c34ae04340c40ea7d,2021-10-21_16h59.00.150,arrow_simon_punish,2021.1.2,Win32,60.0240096,,,,,,,,,,,,,,w,1,1.217,2.028949144,1,5,4,1,17,2,1,,,,,,,,,,,,,,
,,,,,,,,,,,right.png,,p,right,6150644c34ae04340c40ea7d,2021-10-21_16h59.00.150,arrow_simon_punish,2021.1.2,Win32,60.0240096,,,,,,,,,,,,,,p,1,1.269,1.962629245,1,5,4,2,18,1,1,,,,,,,,,,,,,,
,,,,,,,,,,,right.png,,p,right,6150644c34ae04340c40ea7d,2021-10-21_16h59.00.150,arrow_simon_punish,2021.1.2,Win32,60.0240096,,,,,,,,,,,,,,p,1,1.385,1.563066069,1,5,4,3,19,1,1,,,,,,,,,,,,,,
,,,,,,,,,,,right.png,,p,left,6150644c34ae04340c40ea7d,2021-10-21_16h59.00.150,arrow_simon_punish,2021.1.2,Win32,60.0240096,,,,,,,,,,,,,,p,1,1.904,1.582688904,1,5,5,0,20,0,1,,,,,,,,,,,,,,
,,,,,,,,,,,left.png,,w,left,6150644c34ae04340c40ea7d,2021-10-21_16h59.00.150,arrow_simon_punish,2021.1.2,Win32,60.0240096,,,,,,,,,,,,,,w,1,1.352,1.935360089,1,5,5,1,21,2,1,,,,,,,,,,,,,,
,,,,,,,,,,,right.png,,p,right,6150644c34ae04340c40ea7d,2021-10-21_16h59.00.150,arrow_simon_punish,2021.1.2,Win32,60.0240096,,,,,,,,,,,,,,p,1,1.384,1.754608714,1,5,5,2,22,1,1,,,,,,,,,,,,,,
,,,,,,,,,,,right.png,,p,left,6150644c34ae04340c40ea7d,2021-10-21_16h59.00.150,arrow_simon_punish,2021.1.2,Win32,60.0240096,,,,,,,,,,,,,,p,1,1.405,1.534059269,0,5,5,3,23,0,1,,,,,,,,,,,,,,
,,,,,,,,,,,right.png,,p,left,6150644c34ae04340c40ea7d,2021-10-21_16h59.00.150,arrow_simon_punish,2021.1.2,Win32,60.0240096,,,,,,,,,,,,,,p,1,1.403,1.833253886,0,5,6,0,24,0,1,,,,,,,,,,,,,,
,,,,,,,,,,,right.png,,p,left,6150644c34ae04340c40ea7d,2021-10-21_16h59.00.150,arrow_simon_punish,2021.1.2,Win32,60.0240096,,,,,,,,,,,,,,p,1,1.335,1.693551963,1,5,6,1,25,0,1,,,,,,,,,,,,,,
,,,,,,,,,,,right.png,,p,left,6150644c34ae04340c40ea7d,2021-10-21_16h59.00.150,arrow_simon_punish,2021.1.2,Win32,60.0240096,,,,,,,,,,,,,,p,1,1.587,1.903003054,0,5,6,2,26,0,1,,,,,,,,,,,,,,
,,,,,,,,,,,left.png,,w,left,6150644c34ae04340c40ea7d,2021-10-21_16h59.00.150,arrow_simon_punish,2021.1.2,Win32,60.0240096,,,,,,,,,,,,,,w,1,1.452,1.894625167,0,5,6,3,27,2,1,,,,,,,,,,,,,,
,,,,,,,,,,,left.png,,w,left,6150644c34ae04340c40ea7d,2021-10-21_16h59.00.150,arrow_simon_punish,2021.1.2,Win32,60.0240096,,,,,,,,,,,,,,w,1,1.62,2.467093778,1,5,7,0,28,2,1,,,,,,,,,,,,,,
,,,,,,,,,,,right.png,,p,left,6150644c34ae04340c40ea7d,2021-10-21_16h59.00.150,arrow_simon_punish,2021.1.2,Win32,60.0240096,,,,,,,,,,,,,,p,1,1.301,1.726122597,1,5,7,1,29,0,1,,,,,,,,,,,,,,
,,,,,,,,,,,left.png,,w,right,6150644c34ae04340c40ea7d,2021-10-21_16h59.00.150,arrow_simon_punish,2021.1.2,Win32,60.0240096,,,,,,,,,,,,,,w,1,1.385,1.567727949,1,5,7,2,30,3,1,,,,,,,,,,,,,,
,,,,,,,,,,,left.png,,w,left,6150644c34ae04340c40ea7d,2021-10-21_16h59.00.150,arrow_simon_punish,2021.1.2,Win32,60.0240096,,,,,,,,,,,,,,w,1,1.255,1.79281006,1,5,7,3,31,2,1,,,,,,,,,,,,,,
,,,,,,,,,,,right.png,,p,right,6150644c34ae04340c40ea7d,2021-10-21_16h59.00.150,arrow_simon_punish,2021.1.2,Win32,60.0240096,,,,,,,,,,,,,,p,1,1.134,1.876294481,1,5,8,0,32,1,1,,,,,,,,,,,,,,
,,,,,,,,,,,left.png,,w,right,6150644c34ae04340c40ea7d,2021-10-21_16h59.00.150,arrow_simon_punish,2021.1.2,Win32,60.0240096,,,,,,,,,,,,,,w,1,1.735,2.374459868,1,5,8,1,33,3,1,,,,,,,,,,,,,,
,,,,,,,,,,,right.png,,p,left,6150644c34ae04340c40ea7d,2021-10-21_16h59.00.150,arrow_simon_punish,2021.1.2,Win32,60.0240096,,,,,,,,,,,,,,p,1,1.951,2.449376544,1,5,8,2,34,0,1,,,,,,,,,,,,,,
,,,,,,,,,,,left.png,,w,right,6150644c34ae04340c40ea7d,2021-10-21_16h59.00.150,arrow_simon_punish,2021.1.2,Win32,60.0240096,,,,,,,,,,,,,,w,1,1.352,1.749162389,1,5,8,3,35,3,1,,,,,,,,,,,,,,
,,,,,,,,,,,right.png,,p,right,6150644c34ae04340c40ea7d,2021-10-21_16h59.00.150,arrow_simon_punish,2021.1.2,Win32,60.0240096,,,,,,,,,,,,,,p,1,1.273,1.559419939,1,5,9,0,36,1,1,,,,,,,,,,,,,,
,,,,,,,,,,,left.png,,w,right,6150644c34ae04340c40ea7d,2021-10-21_16h59.00.150,arrow_simon_punish,2021.1.2,Win32,60.0240096,,,,,,,,,,,,,,w,1,1.218,1.950632796,1,5,9,1,37,3,1,,,,,,,,,,,,,,
,,,,,,,,,,,right.png,,p,right,6150644c34ae04340c40ea7d,2021-10-21_16h59.00.150,arrow_simon_punish,2021.1.2,Win32,60.0240096,,,,,,,,,,,,,,p,1,1.25,2.21392884,1,5,9,2,38,1,1,,,,,,,,,,,,,,
,,,,,,,,,,,left.png,,w,right,6150644c34ae04340c40ea7d,2021-10-21_16h59.00.150,arrow_simon_punish,2021.1.2,Win32,60.0240096,,,,,,,,,,,,,,w,1,1.435,2.306619188,0,5,9,3,39,3,1,,,,,,,,,,,,,,
,,,,,,,,,,,right.png,,p,right,6150644c34ae04340c40ea7d,2021-10-21_16h59.00.150,arrow_simon_punish,2021.1.2,Win32,60.0240096,,,,,,,,,,,,,,p,1,1.268,2.262454535,1,5,10,0,40,1,1,,,,,,,,,,,,,,
,,,,,,,,,,,left.png,,w,right,6150644c34ae04340c40ea7d,2021-10-21_16h59.00.150,arrow_simon_punish,2021.1.2,Win32,60.0240096,,,,,,,,,,,,,,w,1,1.452,2.455310231,0,5,10,1,41,3,1,,,,,,,,,,,,,,
,,,,,,,,,,,right.png,,p,left,6150644c34ae04340c40ea7d,2021-10-21_16h59.00.150,arrow_simon_punish,2021.1.2,Win32,60.0240096,,,,,,,,,,,,,,p,1,1.135,2.028003253,1,5,10,2,42,0,1,,,,,,,,,,,,,,
,,,,,,,,,,,left.png,,w,left,6150644c34ae04340c40ea7d,2021-10-21_16h59.00.150,arrow_simon_punish,2021.1.2,Win32,60.0240096,,,,,,,,,,,,,,w,1,1.206,2.25705069,1,5,10,3,43,2,1,,,,,,,,,,,,,,
,,,,,,,,,,,left.png,,w,left,6150644c34ae04340c40ea7d,2021-10-21_16h59.00.150,arrow_simon_punish,2021.1.2,Win32,60.0240096,,,,,,,,,,,,,,w,1,1.249,1.748988953,1,5,11,0,44,2,1,,,,,,,,,,,,,,
,,,,,,,,,,,right.png,,p,right,6150644c34ae04340c40ea7d,2021-10-21_16h59.00.150,arrow_simon_punish,2021.1.2,Win32,60.0240096,,,,,,,,,,,,,,p,1,0.751,1.702547255,1,5,11,1,45,1,1,,,,,,,,,,,,,,
,,,,,,,,,,,right.png,,p,right,6150644c34ae04340c40ea7d,2021-10-21_16h59.00.150,arrow_simon_punish,2021.1.2,Win32,60.0240096,,,,,,,,,,,,,,p,1,1.651,2.487550595,1,5,11,2,46,1,1,,,,,,,,,,,,,,
,,,,,,,,,,,left.png,,w,left,6150644c34ae04340c40ea7d,2021-10-21_16h59.00.150,arrow_simon_punish,2021.1.2,Win32,60.0240096,,,,,,,,,,,,,,w,1,1.087,1.692605801,1,5,11,3,47,2,1,,,,,,,,,,,,,,
,,,,,,,,,,,right.png,,p,left,6150644c34ae04340c40ea7d,2021-10-21_16h59.00.150,arrow_simon_punish,2021.1.2,Win32,60.0240096,,,,,,,,,,,,,,p,1,1.367,1.761847651,1,5,12,0,48,0,1,,,,,,,,,,,,,,
,,,,,,,,,,,left.png,,w,right,6150644c34ae04340c40ea7d,2021-10-21_16h59.00.150,arrow_simon_punish,2021.1.2,Win32,60.0240096,,,,,,,,,,,,,,w,1,1.702,2.273652622,1,5,12,1,49,3,1,,,,,,,,,,,,,,
,,,,,,,,,,,left.png,,w,right,6150644c34ae04340c40ea7d,2021-10-21_16h59.00.150,arrow_simon_punish,2021.1.2,Win32,60.0240096,,,,,,,,,,,,,,w,1,1.401,1.712592698,0,5,12,2,50,3,1,,,,,,,,,,,,,,
,,,,,,,,,,,left.png,,w,right,6150644c34ae04340c40ea7d,2021-10-21_16h59.00.150,arrow_simon_punish,2021.1.2,Win32,60.0240096,,,,,,,,,,,,,,w,1,1.286,1.848669015,1,5,12,3,51,3,1,,,,,,,,,,,,,,
,,,,,,,,,,,right.png,,p,left,6150644c34ae04340c40ea7d,2021-10-21_16h59.00.150,arrow_simon_punish,2021.1.2,Win32,60.0240096,,,,,,,,,,,,,,p,1,1.602,2.296853119,1,5,13,0,52,0,1,,,,,,,,,,,,,,
,,,,,,,,,,,left.png,,w,left,6150644c34ae04340c40ea7d,2021-10-21_16h59.00.150,arrow_simon_punish,2021.1.2,Win32,60.0240096,,,,,,,,,,,,,,w,1,1.652,2.20587364,1,5,13,1,53,2,1,,,,,,,,,,,,,,
,,,,,,,,,,,right.png,,p,right,6150644c34ae04340c40ea7d,2021-10-21_16h59.00.150,arrow_simon_punish,2021.1.2,Win32,60.0240096,,,,,,,,,,,,,,p,1,1.449,2.476211007,0,5,13,2,54,1,1,,,,,,,,,,,,,,
,,,,,,,,,,,left.png,,w,left,6150644c34ae04340c40ea7d,2021-10-21_16h59.00.150,arrow_simon_punish,2021.1.2,Win32,60.0240096,,,,,,,,,,,,,,w,1,1.201,1.881166684,1,5,13,3,55,2,1,,,,,,,,,,,,,,
,,,,,,,,,,,left.png,,w,left,6150644c34ae04340c40ea7d,2021-10-21_16h59.00.150,arrow_simon_punish,2021.1.2,Win32,60.0240096,,,,,,,,,,,,,,w,1,1.385,2.312451681,1,5,14,0,56,2,1,,,,,,,,,,,,,,
,,,,,,,,,,,left.png,,w,right,6150644c34ae04340c40ea7d,2021-10-21_16h59.00.150,arrow_simon_punish,2021.1.2,Win32,60.0240096,,,,,,,,,,,,,,w,1,1.352,1.926469954,1,5,14,1,57,3,1,,,,,,,,,,,,,,
,,,,,,,,,,,left.png,,w,left,6150644c34ae04340c40ea7d,2021-10-21_16h59.00.150,arrow_simon_punish,2021.1.2,Win32,60.0240096,,,,,,,,,,,,,,w,1,1.635,2.444244807,1,5,14,2,58,2,1,,,,,,,,,,,,,,
,,,,,,,,,,,right.png,,p,left,6150644c34ae04340c40ea7d,2021-10-21_16h59.00.150,arrow_simon_punish,2021.1.2,Win32,60.0240096,,,,,,,,,,,,,,p,1,1.321,1.546003334,1,5,14,3,59,0,1,,,,,,,,,,,,,,
,,,,,,,,,,,,,,,6150644c34ae04340c40ea7d,2021-10-21_16h59.00.150,arrow_simon_punish,2021.1.2,Win32,60.0240096,,,,,,,,,,,,,,,,,,,,,,,,,space,1.604,5,1,1,3,1,1,5,,,,,
,,,,,,,,,,,left.png,,w,left,6150644c34ae04340c40ea7d,2021-10-21_16h59.00.150,arrow_simon_punish,2021.1.2,Win32,60.0240096,,,,,,,,,,,,,,w,1,1.187,2.299779284,1,1,0,0,0,2,1,,,,,,,,,,,,,,
,,,,,,,,,,,right.png,,p,right,6150644c34ae04340c40ea7d,2021-10-21_16h59.00.150,arrow_simon_punish,2021.1.2,Win32,60.0240096,,,,,,,,,,,,,,p,1,1.191,1.969195005,1,1,0,1,1,1,1,,,,,,,,,,,,,,
,,,,,,,,,,,left.png,,w,left,6150644c34ae04340c40ea7d,2021-10-21_16h59.00.150,arrow_simon_punish,2021.1.2,Win32,60.0240096,,,,,,,,,,,,,,w,1,1.104,2.27850692,1,1,0,2,2,2,1,,,,,,,,,,,,,,
,,,,,,,,,,,left.png,,w,right,6150644c34ae04340c40ea7d,2021-10-21_16h59.00.150,arrow_simon_punish,2021.1.2,Win32,60.0240096,,,,,,,,,,,,,,w,1,1.312,1.978989112,1,1,0,3,3,3,1,,,,,,,,,,,,,,
,,,,,,,,,,,right.png,,p,left,6150644c34ae04340c40ea7d,2021-10-21_16h59.00.150,arrow_simon_punish,2021.1.2,Win32,60.0240096,,,,,,,,,,,,,,p,1,1.418,1.954103447,0,1,1,0,4,0,1,,,,,,,,,,,,,,
,,,,,,,,,,,right.png,,p,left,6150644c34ae04340c40ea7d,2021-10-21_16h59.00.150,arrow_simon_punish,2021.1.2,Win32,60.0240096,,,,,,,,,,,,,,p,1,1.501,1.749514595,0,1,1,1,5,0,1,,,,,,,,,,,,,,
,,,,,,,,,,,left.png,,w,right,6150644c34ae04340c40ea7d,2021-10-21_16h59.00.150,arrow_simon_punish,2021.1.2,Win32,60.0240096,,,,,,,,,,,,,,w,1,1.372,1.640335103,1,1,1,2,6,3,1,,,,,,,,,,,,,,
,,,,,,,,,,,right.png,,p,left,6150644c34ae04340c40ea7d,2021-10-21_16h59.00.150,arrow_simon_punish,2021.1.2,Win32,60.0240096,,,,,,,,,,,,,,w,0,1.585,2.369107675,1,1,1,3,7,0,1,,,,,,,,,,,,,,
,,,,,,,,,,,left.png,,w,right,6150644c34ae04340c40ea7d,2021-10-21_16h59.00.150,arrow_simon_punish,2021.1.2,Win32,60.0240096,,,,,,,,,,,,,,w,1,1.738,1.937642409,1,1,2,0,8,3,1,,,,,,,,,,,,,,
,,,,,,,,,,,right.png,,p,left,6150644c34ae04340c40ea7d,2021-10-21_16h59.00.150,arrow_simon_punish,2021.1.2,Win32,60.0240096,,,,,,,,,,,,,,p,1,1.417,1.756978711,0,1,2,1,9,0,1,,,,,,,,,,,,,,
,,,,,,,,,,,left.png,,w,right,6150644c34ae04340c40ea7d,2021-10-21_16h59.00.150,arrow_simon_punish,2021.1.2,Win32,60.0240096,,,,,,,,,,,,,,w,1,1.3,1.533745926,1,1,2,2,10,3,1,,,,,,,,,,,,,,
,,,,,,,,,,,left.png,,w,left,6150644c34ae04340c40ea7d,2021-10-21_16h59.00.150,arrow_simon_punish,2021.1.2,Win32,60.0240096,,,,,,,,,,,,,,w,1,1.322,1.93112464,1,1,2,3,11,2,1,,,,,,,,,,,,,,
,,,,,,,,,,,left.png,,w,left,6150644c34ae04340c40ea7d,2021-10-21_16h59.00.150,arrow_simon_punish,2021.1.2,Win32,60.0240096,,,,,,,,,,,,,,w,1,1.519,1.976715201,0,1,3,0,12,2,1,,,,,,,,,,,,,,
,,,,,,,,,,,right.png,,p,left,6150644c34ae04340c40ea7d,2021-10-21_16h59.00.150,arrow_simon_punish,2021.1.2,Win32,60.0240096,,,,,,,,,,,,,,p,1,1.518,2.315329047,0,1,3,1,13,0,1,,,,,,,,,,,,,,
,,,,,,,,,,,left.png,,w,left,6150644c34ae04340c40ea7d,2021-10-21_16h59.00.150,arrow_simon_punish,2021.1.2,Win32,60.0240096,,,,,,,,,,,,,,w,1,1.573,2.450397621,0,1,3,2,14,2,1,,,,,,,,,,,,,,
,,,,,,,,,,,right.png,,p,right,6150644c34ae04340c40ea7d,2021-10-21_16h59.00.150,arrow_simon_punish,2021.1.2,Win32,60.0240096,,,,,,,,,,,,,,p,1,1.121,2.02274846,1,1,3,3,15,1,1,,,,,,,,,,,,,,
,,,,,,,,,,,left.png,,w,left,6150644c34ae04340c40ea7d,2021-10-21_16h59.00.150,arrow_simon_punish,2021.1.2,Win32,60.0240096,,,,,,,,,,,,,,w,1,0.936,1.930623758,1,1,4,0,16,2,1,,,,,,,,,,,,,,
,,,,,,,,,,,left.png,,w,right,6150644c34ae04340c40ea7d,2021-10-21_16h59.00.150,arrow_simon_punish,2021.1.2,Win32,60.0240096,,,,,,,,,,,,,,w,1,1.401,2.025427053,0,1,4,1,17,3,1,,,,,,,,,,,,,,
,,,,,,,,,,,right.png,,p,right,6150644c34ae04340c40ea7d,2021-10-21_16h59.00.150,arrow_simon_punish,2021.1.2,Win32,60.0240096,,,,,,,,,,,,,,p,1,1.534,2.414407732,0,1,4,2,18,1,1,,,,,,,,,,,,,,
,,,,,,,,,,,left.png,,w,left,6150644c34ae04340c40ea7d,2021-10-21_16h59.00.150,arrow_simon_punish,2021.1.2,Win32,60.0240096,,,,,,,,,,,,,,w,1,1.253,2.402530857,1,1,4,3,19,2,1,,,,,,,,,,,,,,
,,,,,,,,,,,left.png,,w,right,6150644c34ae04340c40ea7d,2021-10-21_16h59.00.150,arrow_simon_punish,2021.1.2,Win32,60.0240096,,,,,,,,,,,,,,w,1,1.35,1.826871474,1,1,5,0,20,3,1,,,,,,,,,,,,,,
,,,,,,,,,,,left.png,,w,right,6150644c34ae04340c40ea7d,2021-10-21_16h59.00.150,arrow_simon_punish,2021.1.2,Win32,60.0240096,,,,,,,,,,,,,,w,1,1.307,1.586959685,1,1,5,1,21,3,1,,,,,,,,,,,,,,
,,,,,,,,,,,right.png,,p,left,6150644c34ae04340c40ea7d,2021-10-21_16h59.00.150,arrow_simon_punish,2021.1.2,Win32,60.0240096,,,,,,,,,,,,,,p,1,1.054,1.507772828,1,1,5,2,22,0,1,,,,,,,,,,,,,,
,,,,,,,,,,,left.png,,w,right,6150644c34ae04340c40ea7d,2021-10-21_16h59.00.150,arrow_simon_punish,2021.1.2,Win32,60.0240096,,,,,,,,,,,,,,w,1,1.784,2.325894894,1,1,5,3,23,3,1,,,,,,,,,,,,,,
,,,,,,,,,,,left.png,,w,left,6150644c34ae04340c40ea7d,2021-10-21_16h59.00.150,arrow_simon_punish,2021.1.2,Win32,60.0240096,,,,,,,,,,,,,,w,1,1.437,2.026172502,0,1,6,0,24,2,1,,,,,,,,,,,,,,
,,,,,,,,,,,left.png,,w,left,6150644c34ae04340c40ea7d,2021-10-21_16h59.00.150,arrow_simon_punish,2021.1.2,Win32,60.0240096,,,,,,,,,,,,,,w,1,1.32,2.040397481,1,1,6,1,25,2,1,,,,,,,,,,,,,,
,,,,,,,,,,,right.png,,p,right,6150644c34ae04340c40ea7d,2021-10-21_16h59.00.150,arrow_simon_punish,2021.1.2,Win32,60.0240096,,,,,,,,,,,,,,p,1,1.253,2.187435133,1,1,6,2,26,1,1,,,,,,,,,,,,,,
,,,,,,,,,,,right.png,,p,right,6150644c34ae04340c40ea7d,2021-10-21_16h59.00.150,arrow_simon_punish,2021.1.2,Win32,60.0240096,,,,,,,,,,,,,,p,1,1.133,1.683383552,1,1,6,3,27,1,1,,,,,,,,,,,,,,
,,,,,,,,,,,left.png,,w,left,6150644c34ae04340c40ea7d,2021-10-21_16h59.00.150,arrow_simon_punish,2021.1.2,Win32,60.0240096,,,,,,,,,,,,,,w,1,1.252,1.768096426,1,1,7,0,28,2,1,,,,,,,,,,,,,,
,,,,,,,,,,,right.png,,p,right,6150644c34ae04340c40ea7d,2021-10-21_16h59.00.150,arrow_simon_punish,2021.1.2,Win32,60.0240096,,,,,,,,,,,,,,p,1,1.209,2.210159237,1,1,7,1,29,1,1,,,,,,,,,,,,,,
,,,,,,,,,,,right.png,,p,left,6150644c34ae04340c40ea7d,2021-10-21_16h59.00.150,arrow_simon_punish,2021.1.2,Win32,60.0240096,,,,,,,,,,,,,,p,1,1.485,2.176664802,0,1,7,2,30,0,1,,,,,,,,,,,,,,
,,,,,,,,,,,left.png,,w,left,6150644c34ae04340c40ea7d,2021-10-21_16h59.00.150,arrow_simon_punish,2021.1.2,Win32,60.0240096,,,,,,,,,,,,,,w,1,1.186,1.815305087,1,1,7,3,31,2,1,,,,,,,,,,,,,,
,,,,,,,,,,,right.png,,p,right,6150644c34ae04340c40ea7d,2021-10-21_16h59.00.150,arrow_simon_punish,2021.1.2,Win32,60.0240096,,,,,,,,,,,,,,p,1,1.301,2.010972681,1,1,8,0,32,1,1,,,,,,,,,,,,,,
,,,,,,,,,,,right.png,,p,right,6150644c34ae04340c40ea7d,2021-10-21_16h59.00.150,arrow_simon_punish,2021.1.2,Win32,60.0240096,,,,,,,,,,,,,,p,1,1.351,1.796935377,1,1,8,1,33,1,1,,,,,,,,,,,,,,
,,,,,,,,,,,right.png,,p,left,6150644c34ae04340c40ea7d,2021-10-21_16h59.00.150,arrow_simon_punish,2021.1.2,Win32,60.0240096,,,,,,,,,,,,,,p,1,1.468,1.990255535,0,1,8,2,34,0,1,,,,,,,,,,,,,,
,,,,,,,,,,,right.png,,p,left,6150644c34ae04340c40ea7d,2021-10-21_16h59.00.150,arrow_simon_punish,2021.1.2,Win32,60.0240096,,,,,,,,,,,,,,w,0,1.656,1.896433221,1,1,8,3,35,0,1,,,,,,,,,,,,,,
,,,,,,,,,,,right.png,,p,right,6150644c34ae04340c40ea7d,2021-10-21_16h59.00.150,arrow_simon_punish,2021.1.2,Win32,60.0240096,,,,,,,,,,,,,,p,1,1.533,1.566131984,0,1,9,0,36,1,1,,,,,,,,,,,,,,
,,,,,,,,,,,left.png,,w,right,6150644c34ae04340c40ea7d,2021-10-21_16h59.00.150,arrow_simon_punish,2021.1.2,Win32,60.0240096,,,,,,,,,,,,,,w,1,1.118,1.538612661,1,1,9,1,37,3,1,,,,,,,,,,,,,,
,,,,,,,,,,,left.png,,w,left,6150644c34ae04340c40ea7d,2021-10-21_16h59.00.150,arrow_simon_punish,2021.1.2,Win32,60.0240096,,,,,,,,,,,,,,w,1,1.451,2.040285398,0,1,9,2,38,2,1,,,,,,,,,,,,,,
,,,,,,,,,,,right.png,,p,left,6150644c34ae04340c40ea7d,2021-10-21_16h59.00.150,arrow_simon_punish,2021.1.2,Win32,60.0240096,,,,,,,,,,,,,,p,1,1.583,1.884700683,0,1,9,3,39,0,1,,,,,,,,,,,,,,
,,,,,,,,,,,right.png,,p,right,6150644c34ae04340c40ea7d,2021-10-21_16h59.00.150,arrow_simon_punish,2021.1.2,Win32,60.0240096,,,,,,,,,,,,,,p,1,1.419,2.220512063,0,1,10,0,40,1,1,,,,,,,,,,,,,,
,,,,,,,,,,,right.png,,p,left,6150644c34ae04340c40ea7d,2021-10-21_16h59.00.150,arrow_simon_punish,2021.1.2,Win32,60.0240096,,,,,,,,,,,,,,w,0,1.269,2.484996777,1,1,10,1,41,0,1,,,,,,,,,,,,,,
,,,,,,,,,,,left.png,,w,right,6150644c34ae04340c40ea7d,2021-10-21_16h59.00.150,arrow_simon_punish,2021.1.2,Win32,60.0240096,,,,,,,,,,,,,,w,1,1.635,2.389583685,1,1,10,2,42,3,1,,,,,,,,,,,,,,
,,,,,,,,,,,left.png,,w,right,6150644c34ae04340c40ea7d,2021-10-21_16h59.00.150,arrow_simon_punish,2021.1.2,Win32,60.0240096,,,,,,,,,,,,,,w,1,1.767,2.451174465,1,1,10,3,43,3,1,,,,,,,,,,,,,,
,,,,,,,,,,,right.png,,p,right,6150644c34ae04340c40ea7d,2021-10-21_16h59.00.150,arrow_simon_punish,2021.1.2,Win32,60.0240096,,,,,,,,,,,,,,p,1,1.402,2.2657833,0,1,11,0,44,1,1,,,,,,,,,,,,,,
,,,,,,,,,,,left.png,,w,right,6150644c34ae04340c40ea7d,2021-10-21_16h59.00.150,arrow_simon_punish,2021.1.2,Win32,60.0240096,,,,,,,,,,,,,,w,1,1.398,2.291982654,1,1,11,1,45,3,1,,,,,,,,,,,,,,
,,,,,,,,,,,right.png,,p,left,6150644c34ae04340c40ea7d,2021-10-21_16h59.00.150,arrow_simon_punish,2021.1.2,Win32,60.0240096,,,,,,,,,,,,,,p,1,1.506,2.33656059,0,1,11,2,46,0,1,,,,,,,,,,,,,,
,,,,,,,,,,,right.png,,p,right,6150644c34ae04340c40ea7d,2021-10-21_16h59.00.150,arrow_simon_punish,2021.1.2,Win32,60.0240096,,,,,,,,,,,,,,p,1,0.919,1.656865972,1,1,11,3,47,1,1,,,,,,,,,,,,,,
,,,,,,,,,,,right.png,,p,left,6150644c34ae04340c40ea7d,2021-10-21_16h59.00.150,arrow_simon_punish,2021.1.2,Win32,60.0240096,,,,,,,,,,,,,,p,1,1.403,2.120297794,0,1,12,0,48,0,1,,,,,,,,,,,,,,
,,,,,,,,,,,left.png,,w,left,6150644c34ae04340c40ea7d,2021-10-21_16h59.00.150,arrow_simon_punish,2021.1.2,Win32,60.0240096,,,,,,,,,,,,,,w,1,1.618,2.182202195,1,1,12,1,49,2,1,,,,,,,,,,,,,,
,,,,,,,,,,,left.png,,w,right,6150644c34ae04340c40ea7d,2021-10-21_16h59.00.150,arrow_simon_punish,2021.1.2,Win32,60.0240096,,,,,,,,,,,,,,w,1,1.269,2.042098221,1,1,12,2,50,3,1,,,,,,,,,,,,,,
,,,,,,,,,,,right.png,,p,left,6150644c34ae04340c40ea7d,2021-10-21_16h59.00.150,arrow_simon_punish,2021.1.2,Win32,60.0240096,,,,,,,,,,,,,,p,1,1.486,1.830996304,0,1,12,3,51,0,1,,,,,,,,,,,,,,
,,,,,,,,,,,right.png,,p,right,6150644c34ae04340c40ea7d,2021-10-21_16h59.00.150,arrow_simon_punish,2021.1.2,Win32,60.0240096,,,,,,,,,,,,,,p,1,1.236,1.98262094,1,1,13,0,52,1,1,,,,,,,,,,,,,,
,,,,,,,,,,,right.png,,p,right,6150644c34ae04340c40ea7d,2021-10-21_16h59.00.150,arrow_simon_punish,2021.1.2,Win32,60.0240096,,,,,,,,,,,,,,p,1,1.367,1.918512194,1,1,13,1,53,1,1,,,,,,,,,,,,,,
,,,,,,,,,,,left.png,,w,right,6150644c34ae04340c40ea7d,2021-10-21_16h59.00.150,arrow_simon_punish,2021.1.2,Win32,60.0240096,,,,,,,,,,,,,,w,1,1.635,2.359948933,1,1,13,2,54,3,1,,,,,,,,,,,,,,
,,,,,,,,,,,left.png,,w,right,6150644c34ae04340c40ea7d,2021-10-21_16h59.00.150,arrow_simon_punish,2021.1.2,Win32,60.0240096,,,,,,,,,,,,,,w,1,1.219,1.933902932,1,1,13,3,55,3,1,,,,,,,,,,,,,,
,,,,,,,,,,,left.png,,w,left,6150644c34ae04340c40ea7d,2021-10-21_16h59.00.150,arrow_simon_punish,2021.1.2,Win32,60.0240096,,,,,,,,,,,,,,w,1,1.356,1.79498689,1,1,14,0,56,2,1,,,,,,,,,,,,,,
,,,,,,,,,,,left.png,,w,left,6150644c34ae04340c40ea7d,2021-10-21_16h59.00.150,arrow_simon_punish,2021.1.2,Win32,60.0240096,,,,,,,,,,,,,,w,1,1.467,1.712545757,0,1,14,1,57,2,1,,,,,,,,,,,,,,
,,,,,,,,,,,right.png,,p,right,6150644c34ae04340c40ea7d,2021-10-21_16h59.00.150,arrow_simon_punish,2021.1.2,Win32,60.0240096,,,,,,,,,,,,,,p,1,1.369,2.191251609,1,1,14,2,58,1,1,,,,,,,,,,,,,,
,,,,,,,,,,,right.png,,p,left,6150644c34ae04340c40ea7d,2021-10-21_16h59.00.150,arrow_simon_punish,2021.1.2,Win32,60.0240096,,,,,,,,,,,,,,p,1,1.452,1.904431639,0,1,14,3,59,0,1,,,,,,,,,,,,,,
,,,,,,,,,,,,,,,6150644c34ae04340c40ea7d,2021-10-21_16h59.00.150,arrow_simon_punish,2021.1.2,Win32,60.0240096,,,,,,,,,,,,,,,,,,,,,,,,,space,44.602,6,2,0,4,0,1,1,,,,,
,,,,,,,,,,,left.png,,w,left,6150644c34ae04340c40ea7d,2021-10-21_16h59.00.150,arrow_simon_punish,2021.1.2,Win32,60.0240096,,,,,,,,,,,,,,w,1,1.251,2.050429265,1,5,0,0,0,2,1,,,,,,,,,,,,,,
,,,,,,,,,,,right.png,,p,left,6150644c34ae04340c40ea7d,2021-10-21_16h59.00.150,arrow_simon_punish,2021.1.2,Win32,60.0240096,,,,,,,,,,,,,,p,1,1.357,1.53900175,1,5,0,1,1,0,1,,,,,,,,,,,,,,
,,,,,,,,,,,left.png,,w,right,6150644c34ae04340c40ea7d,2021-10-21_16h59.00.150,arrow_simon_punish,2021.1.2,Win32,60.0240096,,,,,,,,,,,,,,w,1,1.67,2.038183896,1,5,0,2,2,3,1,,,,,,,,,,,,,,
,,,,,,,,,,,right.png,,p,right,6150644c34ae04340c40ea7d,2021-10-21_16h59.00.150,arrow_simon_punish,2021.1.2,Win32,60.0240096,,,,,,,,,,,,,,p,1,1.203,2.104042824,1,5,0,3,3,1,1,,,,,,,,,,,,,,
,,,,,,,,,,,right.png,,p,left,6150644c34ae04340c40ea7d,2021-10-21_16h59.00.150,arrow_simon_punish,2021.1.2,Win32,60.0240096,,,,,,,,,,,,,,p,1,1.268,1.641467632,1,5,1,0,4,0,1,,,,,,,,,,,,,,
,,,,,,,,,,,right.png,,p,left,6150644c34ae04340c40ea7d,2021-10-21_16h59.00.150,arrow_simon_punish,2021.1.2,Win32,60.0240096,,,,,,,,,,,,,,p,1,1.805,2.198660406,1,5,1,1,5,0,1,,,,,,,,,,,,,,
,,,,,,,,,,,right.png,,p,right,6150644c34ae04340c40ea7d,2021-10-21_16h59.00.150,arrow_simon_punish,2021.1.2,Win32,60.0240096,,,,,,,,,,,,,,p,1,1.252,1.998253271,1,5,1,2,6,1,1,,,,,,,,,,,,,,
,,,,,,,,,,,right.png,,p,right,6150644c34ae04340c40ea7d,2021-10-21_16h59.00.150,arrow_simon_punish,2021.1.2,Win32,60.0240096,,,,,,,,,,,,,,p,1,1.388,2.284657914,1,5,1,3,7,1,1,,,,,,,,,,,,,,
,,,,,,,,,,,left.png,,w,left,6150644c34ae04340c40ea7d,2021-10-21_16h59.00.150,arrow_simon_punish,2021.1.2,Win32,60.0240096,,,,,,,,,,,,,,w,1,1.455,1.520119196,0,5,2,0,8,2,1,,,,,,,,,,,,,,
,,,,,,,,,,,right.png,,p,right,6150644c34ae04340c40ea7d,2021-10-21_16h59.00.150,arrow_simon_punish,2021.1.2,Win32,60.0240096,,,,,,,,,,,,,,p,1,1.223,1.843820795,1,5,2,1,9,1,1,,,,,,,,,,,,,,
,,,,,,,,,,,left.png,,w,right,6150644c34ae04340c40ea7d,2021-10-21_16h59.00.150,arrow_simon_punish,2021.1.2,Win32,60.0240096,,,,,,,,,,,,,,w,1,1.016,2.219901161,1,5,2,2,10,3,1,,,,,,,,,,,,,,
,,,,,,,,,,,right.png,,p,left,6150644c34ae04340c40ea7d,2021-10-21_16h59.00.150,arrow_simon_punish,2021.1.2,Win32,60.0240096,,,,,,,,,,,,,,p,1,1.503,2.304175448,0,5,2,3,11,0,1,,,,,,,,,,,,,,
,,,,,,,,,,,right.png,,p,right,6150644c34ae04340c40ea7d,2021-10-21_16h59.00.150,arrow_simon_punish,2021.1.2,Win32,60.0240096,,,,,,,,,,,,,,p,1,1.252,1.924261761,1,5,3,0,12,1,1,,,,,,,,,,,,,,
,,,,,,,,,,,right.png,,p,left,6150644c34ae04340c40ea7d,2021-10-21_16h59.00.150,arrow_simon_punish,2021.1.2,Win32,60.0240096,,,,,,,,,,,,,,w,0,1.338,2.488568273,1,5,3,1,13,0,1,,,,,,,,,,,,,,
,,,,,,,,,,,left.png,,w,right,6150644c34ae04340c40ea7d,2021-10-21_16h59.00.150,arrow_simon_punish,2021.1.2,Win32,60.0240096,,,,,,,,,,,,,,w,1,1.922,1.86097317,1,5,3,2,14,3,1,,,,,,,,,,,,,,
,,,,,,,,,,,right.png,,p,left,6150644c34ae04340c40ea7d,2021-10-21_16h59.00.150,arrow_simon_punish,2021.1.2,Win32,60.0240096,,,,,,,,,,,,,,p,1,2.439,2.249882502,1,5,3,3,15,0,1,,,,,,,,,,,,,,
,,,,,,,,,,,right.png,,p,right,6150644c34ae04340c40ea7d,2021-10-21_16h59.00.150,arrow_simon_punish,2021.1.2,Win32,60.0240096,,,,,,,,,,,,,,p,1,1.767,1.871486948,1,5,4,0,16,1,1,,,,,,,,,,,,,,
,,,,,,,,,,,right.png,,p,right,6150644c34ae04340c40ea7d,2021-10-21_16h59.00.150,arrow_simon_punish,2021.1.2,Win32,60.0240096,,,,,,,,,,,,,,p,1,1.37,2.261780863,1,5,4,1,17,1,1,,,,,,,,,,,,,,
,,,,,,,,,,,right.png,,p,left,6150644c34ae04340c40ea7d,2021-10-21_16h59.00.150,arrow_simon_punish,2021.1.2,Win32,60.0240096,,,,,,,,,,,,,,p,1,1.333,1.516534506,1,5,4,2,18,0,1,,,,,,,,,,,,,,
,,,,,,,,,,,right.png,,p,left,6150644c34ae04340c40ea7d,2021-10-21_16h59.00.150,arrow_simon_punish,2021.1.2,Win32,60.0240096,,,,,,,,,,,,,,p,1,1.255,1.975655706,1,5,4,3,19,0,1,,,,,,,,,,,,,,
,,,,,,,,,,,left.png,,w,right,6150644c34ae04340c40ea7d,2021-10-21_16h59.00.150,arrow_simon_punish,2021.1.2,Win32,60.0240096,,,,,,,,,,,,,,w,1,1.252,1.738184282,1,5,5,0,20,3,1,,,,,,,,,,,,,,
,,,,,,,,,,,left.png,,w,left,6150644c34ae04340c40ea7d,2021-10-21_16h59.00.150,arrow_simon_punish,2021.1.2,Win32,60.0240096,,,,,,,,,,,,,,w,1,1.356,2.123244997,1,5,5,1,21,2,1,,,,,,,,,,,,,,
,,,,,,,,,,,left.png,,w,right,6150644c34ae04340c40ea7d,2021-10-21_16h59.00.150,arrow_simon_punish,2021.1.2,Win32,60.0240096,,,,,,,,,,,,,,w,1,1.721,2.396769408,1,5,5,2,22,3,1,,,,,,,,,,,,,,
,,,,,,,,,,,right.png,,p,right,6150644c34ae04340c40ea7d,2021-10-21_16h59.00.150,arrow_simon_punish,2021.1.2,Win32,60.0240096,,,,,,,,,,,,,,p,1,1.45,2.378389715,0,5,5,3,23,1,1,,,,,,,,,,,,,,
,,,,,,,,,,,left.png,,w,right,6150644c34ae04340c40ea7d,2021-10-21_16h59.00.150,arrow_simon_punish,2021.1.2,Win32,60.0240096,,,,,,,,,,,,,,w,1,1.219,2.00267213,1,5,6,0,24,3,1,,,,,,,,,,,,,,
,,,,,,,,,,,left.png,,w,left,6150644c34ae04340c40ea7d,2021-10-21_16h59.00.150,arrow_simon_punish,2021.1.2,Win32,60.0240096,,,,,,,,,,,,,,w,1,0.9,1.637912478,1,5,6,1,25,2,1,,,,,,,,,,,,,,
,,,,,,,,,,,left.png,,w,right,6150644c34ae04340c40ea7d,2021-10-21_16h59.00.150,arrow_simon_punish,2021.1.2,Win32,60.0240096,,,,,,,,,,,,,,w,1,1.173,1.720065124,1,5,6,2,26,3,1,,,,,,,,,,,,,,
,,,,,,,,,,,left.png,,w,left,6150644c34ae04340c40ea7d,2021-10-21_16h59.00.150,arrow_simon_punish,2021.1.2,Win32,60.0240096,,,,,,,,,,,,,,w,1,1.619,2.458994322,1,5,6,3,27,2,1,,,,,,,,,,,,,,
,,,,,,,,,,,left.png,,w,right,6150644c34ae04340c40ea7d,2021-10-21_16h59.00.150,arrow_simon_punish,2021.1.2,Win32,60.0240096,,,,,,,,,,,,,,p,0,1.618,2.41289311,1,5,7,0,28,3,1,,,,,,,,,,,,,,
,,,,,,,,,,,right.png,,p,left,6150644c34ae04340c40ea7d,2021-10-21_16h59.00.150,arrow_simon_punish,2021.1.2,Win32,60.0240096,,,,,,,,,,,,,,p,1,1.617,2.222751606,1,5,7,1,29,0,1,,,,,,,,,,,,,,
,,,,,,,,,,,right.png,,p,right,6150644c34ae04340c40ea7d,2021-10-21_16h59.00.150,arrow_simon_punish,2021.1.2,Win32,60.0240096,,,,,,,,,,,,,,p,1,1.401,1.63404569,0,5,7,2,30,1,1,,,,,,,,,,,,,,
,,,,,,,,,,,right.png,,p,left,6150644c34ae04340c40ea7d,2021-10-21_16h59.00.150,arrow_simon_punish,2021.1.2,Win32,60.0240096,,,,,,,,,,,,,,p,1,1.371,1.656049844,1,5,7,3,31,0,1,,,,,,,,,,,,,,
,,,,,,,,,,,left.png,,w,left,6150644c34ae04340c40ea7d,2021-10-21_16h59.00.150,arrow_simon_punish,2021.1.2,Win32,60.0240096,,,,,,,,,,,,,,w,1,1.385,2.320044268,1,5,8,0,32,2,1,,,,,,,,,,,,,,
,,,,,,,,,,,right.png,,p,right,6150644c34ae04340c40ea7d,2021-10-21_16h59.00.150,arrow_simon_punish,2021.1.2,Win32,60.0240096,,,,,,,,,,,,,,p,1,1.286,2.305977052,1,5,8,1,33,1,1,,,,,,,,,,,,,,
,,,,,,,,,,,left.png,,w,left,6150644c34ae04340c40ea7d,2021-10-21_16h59.00.150,arrow_simon_punish,2021.1.2,Win32,60.0240096,,,,,,,,,,,,,,w,1,0.922,1.586633271,1,5,8,2,34,2,1,,,,,,,,,,,,,,
,,,,,,,,,,,left.png,,w,right,6150644c34ae04340c40ea7d,2021-10-21_16h59.00.150,arrow_simon_punish,2021.1.2,Win32,60.0240096,,,,,,,,,,,,,,w,1,1.268,2.15437972,1,5,8,3,35,3,1,,,,,,,,,,,,,,
,,,,,,,,,,,left.png,,w,left,6150644c34ae04340c40ea7d,2021-10-21_16h59.00.150,arrow_simon_punish,2021.1.2,Win32,60.0240096,,,,,,,,,,,,,,w,1,1.133,1.975146521,1,5,9,0,36,2,1,,,,,,,,,,,,,,
,,,,,,,,,,,right.png,,p,left,6150644c34ae04340c40ea7d,2021-10-21_16h59.00.150,arrow_simon_punish,2021.1.2,Win32,60.0240096,,,,,,,,,,,,,,p,1,1.286,1.948427793,1,5,9,1,37,0,1,,,,,,,,,,,,,,
,,,,,,,,,,,left.png,,w,right,6150644c34ae04340c40ea7d,2021-10-21_16h59.00.150,arrow_simon_punish,2021.1.2,Win32,60.0240096,,,,,,,,,,,,,,w,1,1.252,1.958239308,1,5,9,2,38,3,1,,,,,,,,,,,,,,
,,,,,,,,,,,left.png,,w,left,6150644c34ae04340c40ea7d,2021-10-21_16h59.00.150,arrow_simon_punish,2021.1.2,Win32,60.0240096,,,,,,,,,,,,,,w,1,1.606,1.583695573,1,5,9,3,39,2,1,,,,,,,,,,,,,,
,,,,,,,,,,,right.png,,p,right,6150644c34ae04340c40ea7d,2021-10-21_16h59.00.150,arrow_simon_punish,2021.1.2,Win32,60.0240096,,,,,,,,,,,,,,p,1,1.452,2.471576634,0,5,10,0,40,1,1,,,,,,,,,,,,,,
,,,,,,,,,,,left.png,,w,left,6150644c34ae04340c40ea7d,2021-10-21_16h59.00.150,arrow_simon_punish,2021.1.2,Win32,60.0240096,,,,,,,,,,,,,,w,1,1.156,2.276436254,1,5,10,1,41,2,1,,,,,,,,,,,,,,
,,,,,,,,,,,left.png,,w,left,6150644c34ae04340c40ea7d,2021-10-21_16h59.00.150,arrow_simon_punish,2021.1.2,Win32,60.0240096,,,,,,,,,,,,,,w,1,1.337,1.711068541,1,5,10,2,42,2,1,,,,,,,,,,,,,,
,,,,,,,,,,,left.png,,w,left,6150644c34ae04340c40ea7d,2021-10-21_16h59.00.150,arrow_simon_punish,2021.1.2,Win32,60.0240096,,,,,,,,,,,,,,w,1,1.135,1.729559342,1,5,10,3,43,2,1,,,,,,,,,,,,,,
,,,,,,,,,,,right.png,,p,left,6150644c34ae04340c40ea7d,2021-10-21_16h59.00.150,arrow_simon_punish,2021.1.2,Win32,60.0240096,,,,,,,,,,,,,,p,1,1.218,1.502957422,1,5,11,0,44,0,1,,,,,,,,,,,,,,
,,,,,,,,,,,right.png,,p,right,6150644c34ae04340c40ea7d,2021-10-21_16h59.00.150,arrow_simon_punish,2021.1.2,Win32,60.0240096,,,,,,,,,,,,,,p,1,1.201,1.997363872,1,5,11,1,45,1,1,,,,,,,,,,,,,,
,,,,,,,,,,,left.png,,w,right,6150644c34ae04340c40ea7d,2021-10-21_16h59.00.150,arrow_simon_punish,2021.1.2,Win32,60.0240096,,,,,,,,,,,,,,w,1,1.12,1.597845332,1,5,11,2,46,3,1,,,,,,,,,,,,,,
,,,,,,,,,,,left.png,,w,left,6150644c34ae04340c40ea7d,2021-10-21_16h59.00.150,arrow_simon_punish,2021.1.2,Win32,60.0240096,,,,,,,,,,,,,,w,1,1.375,1.648325142,1,5,11,3,47,2,1,,,,,,,,,,,,,,
,,,,,,,,,,,left.png,,w,right,6150644c34ae04340c40ea7d,2021-10-21_16h59.00.150,arrow_simon_punish,2021.1.2,Win32,60.0240096,,,,,,,,,,,,,,w,1,1.519,1.816741378,0,5,12,0,48,3,1,,,,,,,,,,,,,,
,,,,,,,,,,,left.png,,w,right,6150644c34ae04340c40ea7d,2021-10-21_16h59.00.150,arrow_simon_punish,2021.1.2,Win32,60.0240096,,,,,,,,,,,,,,w,1,1.735,2.346734539,1,5,12,1,49,3,1,,,,,,,,,,,,,,
,,,,,,,,,,,right.png,,p,left,6150644c34ae04340c40ea7d,2021-10-21_16h59.00.150,arrow_simon_punish,2021.1.2,Win32,60.0240096,,,,,,,,,,,,,,p,1,1.469,2.0544945,0,5,12,2,50,0,1,,,,,,,,,,,,,,
,,,,,,,,,,,right.png,,p,left,6150644c34ae04340c40ea7d,2021-10-21_16h59.00.150,arrow_simon_punish,2021.1.2,Win32,60.0240096,,,,,,,,,,,,,,p,1,1.4,1.552882868,0,5,12,3,51,0,1,,,,,,,,,,,,,,
,,,,,,,,,,,right.png,,p,right,6150644c34ae04340c40ea7d,2021-10-21_16h59.00.150,arrow_simon_punish,2021.1.2,Win32,60.0240096,,,,,,,,,,,,,,p,1,1.202,2.147361613,1,5,13,0,52,1,1,,,,,,,,,,,,,,
,,,,,,,,,,,right.png,,p,left,6150644c34ae04340c40ea7d,2021-10-21_16h59.00.150,arrow_simon_punish,2021.1.2,Win32,60.0240096,,,,,,,,,,,,,,p,1,1.386,2.012419775,1,5,13,1,53,0,1,,,,,,,,,,,,,,
,,,,,,,,,,,left.png,,w,right,6150644c34ae04340c40ea7d,2021-10-21_16h59.00.150,arrow_simon_punish,2021.1.2,Win32,60.0240096,,,,,,,,,,,,,,w,1,1.183,1.976097039,1,5,13,2,54,3,1,,,,,,,,,,,,,,
,,,,,,,,,,,left.png,,w,left,6150644c34ae04340c40ea7d,2021-10-21_16h59.00.150,arrow_simon_punish,2021.1.2,Win32,60.0240096,,,,,,,,,,,,,,p,0,2.566,2.409694098,1,5,13,3,55,2,1,,,,,,,,,,,,,,
,,,,,,,,,,,left.png,,w,left,6150644c34ae04340c40ea7d,2021-10-21_16h59.00.150,arrow_simon_punish,2021.1.2,Win32,60.0240096,,,,,,,,,,,,,,w,1,1.591,2.376591013,0,5,14,0,56,2,1,,,,,,,,,,,,,,
,,,,,,,,,,,right.png,,p,right,6150644c34ae04340c40ea7d,2021-10-21_16h59.00.150,arrow_simon_punish,2021.1.2,Win32,60.0240096,,,,,,,,,,,,,,p,1,1.502,2.35843494,0,5,14,1,57,1,1,,,,,,,,,,,,,,
,,,,,,,,,,,right.png,,p,right,6150644c34ae04340c40ea7d,2021-10-21_16h59.00.150,arrow_simon_punish,2021.1.2,Win32,60.0240096,,,,,,,,,,,,,,p,1,1.288,1.746890232,1,5,14,2,58,1,1,,,,,,,,,,,,,,
,,,,,,,,,,,left.png,,w,right,6150644c34ae04340c40ea7d,2021-10-21_16h59.00.150,arrow_simon_punish,2021.1.2,Win32,60.0240096,,,,,,,,,,,,,,w,1,1.184,1.770849477,1,5,14,3,59,3,1,,,,,,,,,,,,,,
,,,,,,,,,,,,,,,6150644c34ae04340c40ea7d,2021-10-21_16h59.00.150,arrow_simon_punish,2021.1.2,Win32,60.0240096,,,,,,,,,,,,,,,,,,,,,,,,,space,20.376,7,2,1,5,1,1,5,,,,,
,,,,,,,,,,,left.png,,w,right,6150644c34ae04340c40ea7d,2021-10-21_16h59.00.150,arrow_simon_punish,2021.1.2,Win32,60.0240096,,,,,,,,,,,,,,w,1,1.434,1.765722491,0,1,0,0,0,3,1,,,,,,,,,,,,,,
,,,,,,,,,,,left.png,,w,left,6150644c34ae04340c40ea7d,2021-10-21_16h59.00.150,arrow_simon_punish,2021.1.2,Win32,60.0240096,,,,,,,,,,,,,,w,1,1.084,2.081801442,1,1,0,1,1,2,1,,,,,,,,,,,,,,
,,,,,,,,,,,left.png,,w,left,6150644c34ae04340c40ea7d,2021-10-21_16h59.00.150,arrow_simon_punish,2021.1.2,Win32,60.0240096,,,,,,,,,,,,,,w,1,1.367,2.315098555,1,1,0,2,2,2,1,,,,,,,,,,,,,,
,,,,,,,,,,,right.png,,p,right,6150644c34ae04340c40ea7d,2021-10-21_16h59.00.150,arrow_simon_punish,2021.1.2,Win32,60.0240096,,,,,,,,,,,,,,w,0,1.484,1.640540551,1,1,0,3,3,1,1,,,,,,,,,,,,,,
,,,,,,,,,,,right.png,,p,right,6150644c34ae04340c40ea7d,2021-10-21_16h59.00.150,arrow_simon_punish,2021.1.2,Win32,60.0240096,,,,,,,,,,,,,,p,1,1.354,2.250740007,1,1,1,0,4,1,1,,,,,,,,,,,,,,
,,,,,,,,,,,left.png,,w,right,6150644c34ae04340c40ea7d,2021-10-21_16h59.00.150,arrow_simon_punish,2021.1.2,Win32,60.0240096,,,,,,,,,,,,,,w,1,1.27,2.046265484,1,1,1,1,5,3,1,,,,,,,,,,,,,,
,,,,,,,,,,,left.png,,w,left,6150644c34ae04340c40ea7d,2021-10-21_16h59.00.150,arrow_simon_punish,2021.1.2,Win32,60.0240096,,,,,,,,,,,,,,w,1,1.518,2.203126354,0,1,1,2,6,2,1,,,,,,,,,,,,,,
,,,,,,,,,,,right.png,,p,left,6150644c34ae04340c40ea7d,2021-10-21_16h59.00.150,arrow_simon_punish,2021.1.2,Win32,60.0240096,,,,,,,,,,,,,,p,1,1.835,2.470960589,1,1,1,3,7,0,1,,,,,,,,,,,,,,
,,,,,,,,,,,right.png,,p,left,6150644c34ae04340c40ea7d,2021-10-21_16h59.00.150,arrow_simon_punish,2021.1.2,Win32,60.0240096,,,,,,,,,,,,,,p,1,1.285,2.108590592,1,1,2,0,8,0,1,,,,,,,,,,,,,,
,,,,,,,,,,,left.png,,w,left,6150644c34ae04340c40ea7d,2021-10-21_16h59.00.150,arrow_simon_punish,2021.1.2,Win32,60.0240096,,,,,,,,,,,,,,w,1,1.067,1.774444729,1,1,2,1,9,2,1,,,,,,,,,,,,,,
,,,,,,,,,,,left.png,,w,left,6150644c34ae04340c40ea7d,2021-10-21_16h59.00.150,arrow_simon_punish,2021.1.2,Win32,60.0240096,,,,,,,,,,,,,,w,1,0.77,1.685010821,1,1,2,2,10,2,1,,,,,,,,,,,,,,
,,,,,,,,,,,right.png,,p,left,6150644c34ae04340c40ea7d,2021-10-21_16h59.00.150,arrow_simon_punish,2021.1.2,Win32,60.0240096,,,,,,,,,,,,,,p,1,0.789,1.619811891,1,1,2,3,11,0,1,,,,,,,,,,,,,,
,,,,,,,,,,,left.png,,w,right,6150644c34ae04340c40ea7d,2021-10-21_16h59.00.150,arrow_simon_punish,2021.1.2,Win32,60.0240096,,,,,,,,,,,,,,w,1,1.556,2.43884392,0,1,3,0,12,3,1,,,,,,,,,,,,,,
,,,,,,,,,,,right.png,,p,right,6150644c34ae04340c40ea7d,2021-10-21_16h59.00.150,arrow_simon_punish,2021.1.2,Win32,60.0240096,,,,,,,,,,,,,,p,1,1.636,2.305926944,1,1,3,1,13,1,1,,,,,,,,,,,,,,
,,,,,,,,,,,right.png,,p,left,6150644c34ae04340c40ea7d,2021-10-21_16h59.00.150,arrow_simon_punish,2021.1.2,Win32,60.0240096,,,,,,,,,,,,,,p,1,1.434,2.148346012,0,1,3,2,14,0,1,,,,,,,,,,,,,,
,,,,,,,,,,,right.png,,p,left,6150644c34ae04340c40ea7d,2021-10-21_16h59.00.150,arrow_simon_punish,2021.1.2,Win32,60.0240096,,,,,,,,,,,,,,w,0,1.004,2.047744284,1,1,3,3,15,0,1,,,,,,,,,,,,,,
,,,,,,,,,,,right.png,,p,right,6150644c34ae04340c40ea7d,2021-10-21_16h59.00.150,arrow_simon_punish,2021.1.2,Win32,60.0240096,,,,,,,,,,,,,,p,1,1.033,1.940694133,1,1,4,0,16,1,1,,,,,,,,,,,,,,
,,,,,,,,,,,right.png,,p,left,6150644c34ae04340c40ea7d,2021-10-21_16h59.00.150,arrow_simon_punish,2021.1.2,Win32,60.0240096,,,,,,,,,,,,,,p,1,1.35,2.040301755,1,1,4,1,17,0,1,,,,,,,,,,,,,,
,,,,,,,,,,,left.png,,w,right,6150644c34ae04340c40ea7d,2021-10-21_16h59.00.150,arrow_simon_punish,2021.1.2,Win32,60.0240096,,,,,,,,,,,,,,w,1,0.92,1.650195681,1,1,4,2,18,3,1,,,,,,,,,,,,,,
,,,,,,,,,,,right.png,,p,left,6150644c34ae04340c40ea7d,2021-10-21_16h59.00.150,arrow_simon_punish,2021.1.2,Win32,60.0240096,,,,,,,,,,,,,,p,1,1.467,2.271388437,0,1,4,3,19,0,1,,,,,,,,,,,,,,
,,,,,,,,,,,left.png,,w,right,6150644c34ae04340c40ea7d,2021-10-21_16h59.00.150,arrow_simon_punish,2021.1.2,Win32,60.0240096,,,,,,,,,,,,,,w,1,1.618,2.403896793,1,1,5,0,20,3,1,,,,,,,,,,,,,,
,,,,,,,,,,,right.png,,p,left,6150644c34ae04340c40ea7d,2021-10-21_16h59.00.150,arrow_simon_punish,2021.1.2,Win32,60.0240096,,,,,,,,,,,,,,p,1,1.083,1.977945474,1,1,5,1,21,0,1,,,,,,,,,,,,,,
,,,,,,,,,,,left.png,,w,left,6150644c34ae04340c40ea7d,2021-10-21_16h59.00.150,arrow_simon_punish,2021.1.2,Win32,60.0240096,,,,,,,,,,,,,,w,1,1.168,1.996292891,1,1,5,2,22,2,1,,,,,,,,,,,,,,
,,,,,,,,,,,left.png,,w,left,6150644c34ae04340c40ea7d,2021-10-21_16h59.00.150,arrow_simon_punish,2021.1.2,Win32,60.0240096,,,,,,,,,,,,,,w,1,1.534,2.345863864,0,1,5,3,23,2,1,,,,,,,,,,,,,,
,,,,,,,,,,,left.png,,w,left,6150644c34ae04340c40ea7d,2021-10-21_16h59.00.150,arrow_simon_punish,2021.1.2,Win32,60.0240096,,,,,,,,,,,,,,w,1,0.883,1.754989356,1,1,6,0,24,2,1,,,,,,,,,,,,,,
,,,,,,,,,,,right.png,,p,right,6150644c34ae04340c40ea7d,2021-10-21_16h59.00.150,arrow_simon_punish,2021.1.2,Win32,60.0240096,,,,,,,,,,,,,,p,1,0.869,1.824475735,1,1,6,1,25,1,1,,,,,,,,,,,,,,
,,,,,,,,,,,left.png,,w,left,6150644c34ae04340c40ea7d,2021-10-21_16h59.00.150,arrow_simon_punish,2021.1.2,Win32,60.0240096,,,,,,,,,,,,,,w,1,1.372,2.238622331,1,1,6,2,26,2,1,,,,,,,,,,,,,,
,,,,,,,,,,,right.png,,p,right,6150644c34ae04340c40ea7d,2021-10-21_16h59.00.150,arrow_simon_punish,2021.1.2,Win32,60.0240096,,,,,,,,,,,,,,p,1,0.773,1.729071693,1,1,6,3,27,1,1,,,,,,,,,,,,,,
,,,,,,,,,,,left.png,,w,right,6150644c34ae04340c40ea7d,2021-10-21_16h59.00.150,arrow_simon_punish,2021.1.2,Win32,60.0240096,,,,,,,,,,,,,,p,0,1.302,2.072353303,1,1,7,0,28,3,1,,,,,,,,,,,,,,
,,,,,,,,,,,right.png,,p,left,6150644c34ae04340c40ea7d,2021-10-21_16h59.00.150,arrow_simon_punish,2021.1.2,Win32,60.0240096,,,,,,,,,,,,,,p,1,1.568,2.325763894,0,1,7,1,29,0,1,,,,,,,,,,,,,,
,,,,,,,,,,,left.png,,w,left,6150644c34ae04340c40ea7d,2021-10-21_16h59.00.150,arrow_simon_punish,2021.1.2,Win32,60.0240096,,,,,,,,,,,,,,w,1,0.734,1.747481559,1,1,7,2,30,2,1,,,,,,,,,,,,,,
,,,,,,,,,,,left.png,,w,left,6150644c34ae04340c40ea7d,2021-10-21_16h59.00.150,arrow_simon_punish,2021.1.2,Win32,60.0240096,,,,,,,,,,,,,,w,1,1.05,2.046519874,1,1,7,3,31,2,1,,,,,,,,,,,,,,
,,,,,,,,,,,right.png,,p,left,6150644c34ae04340c40ea7d,2021-10-21_16h59.00.150,arrow_simon_punish,2021.1.2,Win32,60.0240096,,,,,,,,,,,,,,p,1,1.951,2.470004165,1,1,8,0,32,0,1,,,,,,,,,,,,,,
,,,,,,,,,,,right.png,,p,right,6150644c34ae04340c40ea7d,2021-10-21_16h59.00.150,arrow_simon_punish,2021.1.2,Win32,60.0240096,,,,,,,,,,,,,,p,1,0.905,1.557726125,1,1,8,1,33,1,1,,,,,,,,,,,,,,
,,,,,,,,,,,right.png,,p,right,6150644c34ae04340c40ea7d,2021-10-21_16h59.00.150,arrow_simon_punish,2021.1.2,Win32,60.0240096,,,,,,,,,,,,,,p,1,1.319,2.100651142,1,1,8,2,34,1,1,,,,,,,,,,,,,,
,,,,,,,,,,,left.png,,w,right,6150644c34ae04340c40ea7d,2021-10-21_16h59.00.150,arrow_simon_punish,2021.1.2,Win32,60.0240096,,,,,,,,,,,,,,w,1,1.1,1.913988957,1,1,8,3,35,3,1,,,,,,,,,,,,,,
,,,,,,,,,,,right.png,,p,right,6150644c34ae04340c40ea7d,2021-10-21_16h59.00.150,arrow_simon_punish,2021.1.2,Win32,60.0240096,,,,,,,,,,,,,,p,1,1.085,2.145359359,1,1,9,0,36,1,1,,,,,,,,,,,,,,
,,,,,,,,,,,right.png,,p,right,6150644c34ae04340c40ea7d,2021-10-21_16h59.00.150,arrow_simon_punish,2021.1.2,Win32,60.0240096,,,,,,,,,,,,,,p,1,0.853,1.896369834,1,1,9,1,37,1,1,,,,,,,,,,,,,,
,,,,,,,,,,,left.png,,w,right,6150644c34ae04340c40ea7d,2021-10-21_16h59.00.150,arrow_simon_punish,2021.1.2,Win32,60.0240096,,,,,,,,,,,,,,w,1,1.003,1.854363671,1,1,9,2,38,3,1,,,,,,,,,,,,,,
,,,,,,,,,,,left.png,,w,right,6150644c34ae04340c40ea7d,2021-10-21_16h59.00.150,arrow_simon_punish,2021.1.2,Win32,60.0240096,,,,,,,,,,,,,,w,1,0.934,1.756618471,1,1,9,3,39,3,1,,,,,,,,,,,,,,
,,,,,,,,,,,right.png,,p,right,6150644c34ae04340c40ea7d,2021-10-21_16h59.00.150,arrow_simon_punish,2021.1.2,Win32,60.0240096,,,,,,,,,,,,,,p,1,1.335,2.332064374,1,1,10,0,40,1,1,,,,,,,,,,,,,,
,,,,,,,,,,,right.png,,p,right,6150644c34ae04340c40ea7d,2021-10-21_16h59.00.150,arrow_simon_punish,2021.1.2,Win32,60.0240096,,,,,,,,,,,,,,p,1,1.168,1.893042235,1,1,10,1,41,1,1,,,,,,,,,,,,,,
,,,,,,,,,,,left.png,,w,right,6150644c34ae04340c40ea7d,2021-10-21_16h59.00.150,arrow_simon_punish,2021.1.2,Win32,60.0240096,,,,,,,,,,,,,,w,1,0.889,1.731454977,1,1,10,2,42,3,1,,,,,,,,,,,,,,
,,,,,,,,,,,right.png,,p,left,6150644c34ae04340c40ea7d,2021-10-21_16h59.00.150,arrow_simon_punish,2021.1.2,Win32,60.0240096,,,,,,,,,,,,,,p,1,0.718,1.737009955,1,1,10,3,43,0,1,,,,,,,,,,,,,,
,,,,,,,,,,,left.png,,w,left,6150644c34ae04340c40ea7d,2021-10-21_16h59.00.150,arrow_simon_punish,2021.1.2,Win32,60.0240096,,,,,,,,,,,,,,w,1,1.07,1.768917388,1,1,11,0,44,2,1,,,,,,,,,,,,,,
,,,,,,,,,,,left.png,,w,left,6150644c34ae04340c40ea7d,2021-10-21_16h59.00.150,arrow_simon_punish,2021.1.2,Win32,60.0240096,,,,,,,,,,,,,,w,1,1.102,1.875181114,1,1,11,1,45,2,1,,,,,,,,,,,,,,
,,,,,,,,,,,right.png,,p,right,6150644c34ae04340c40ea7d,2021-10-21_16h59.00.150,arrow_simon_punish,2021.1.2,Win32,60.0240096,,,,,,,,,,,,,,p,1,1.117,1.621581079,1,1,11,2,46,1,1,,,,,,,,,,,,,,
,,,,,,,,,,,left.png,,w,right,6150644c34ae04340c40ea7d,2021-10-21_16h59.00.150,arrow_simon_punish,2021.1.2,Win32,60.0240096,,,,,,,,,,,,,,w,1,1.073,1.712053945,1,1,11,3,47,3,1,,,,,,,,,,,,,,
,,,,,,,,,,,right.png,,p,left,6150644c34ae04340c40ea7d,2021-10-21_16h59.00.150,arrow_simon_punish,2021.1.2,Win32,60.0240096,,,,,,,,,,,,,,p,1,1.351,1.847298829,1,1,12,0,48,0,1,,,,,,,,,,,,,,
,,,,,,,,,,,left.png,,w,left,6150644c34ae04340c40ea7d,2021-10-21_16h59.00.150,arrow_simon_punish,2021.1.2,Win32,60.0240096,,,,,,,,,,,,,,w,1,1.185,2.261141092,1,1,12,1,49,2,1,,,,,,,,,,,,,,
,,,,,,,,,,,right.png,,p,left,6150644c34ae04340c40ea7d,2021-10-21_16h59.00.150,arrow_simon_punish,2021.1.2,Win32,60.0240096,,,,,,,,,,,,,,p,1,1.384,2.19613203,1,1,12,2,50,0,1,,,,,,,,,,,,,,
,,,,,,,,,,,right.png,,p,right,6150644c34ae04340c40ea7d,2021-10-21_16h59.00.150,arrow_simon_punish,2021.1.2,Win32,60.0240096,,,,,,,,,,,,,,p,1,1.752,2.468538682,1,1,12,3,51,1,1,,,,,,,,,,,,,,
,,,,,,,,,,,left.png,,w,right,6150644c34ae04340c40ea7d,2021-10-21_16h59.00.150,arrow_simon_punish,2021.1.2,Win32,60.0240096,,,,,,,,,,,,,,w,1,1.156,2.11046501,1,1,13,0,52,3,1,,,,,,,,,,,,,,
,,,,,,,,,,,right.png,,p,left,6150644c34ae04340c40ea7d,2021-10-21_16h59.00.150,arrow_simon_punish,2021.1.2,Win32,60.0240096,,,,,,,,,,,,,,p,1,1.169,1.982330888,1,1,13,1,53,0,1,,,,,,,,,,,,,,
,,,,,,,,,,,right.png,,p,left,6150644c34ae04340c40ea7d,2021-10-21_16h59.00.150,arrow_simon_punish,2021.1.2,Win32,60.0240096,,,,,,,,,,,,,,p,1,0.785,1.762944037,1,1,13,2,54,0,1,,,,,,,,,,,,,,
,,,,,,,,,,,left.png,,w,left,6150644c34ae04340c40ea7d,2021-10-21_16h59.00.150,arrow_simon_punish,2021.1.2,Win32,60.0240096,,,,,,,,,,,,,,w,1,1.77,2.494108099,1,1,13,3,55,2,1,,,,,,,,,,,,,,
,,,,,,,,,,,left.png,,w,right,6150644c34ae04340c40ea7d,2021-10-21_16h59.00.150,arrow_simon_punish,2021.1.2,Win32,60.0240096,,,,,,,,,,,,,,w,1,1.453,1.980962666,0,1,14,0,56,3,1,,,,,,,,,,,,,,
,,,,,,,,,,,left.png,,w,right,6150644c34ae04340c40ea7d,2021-10-21_16h59.00.150,arrow_simon_punish,2021.1.2,Win32,60.0240096,,,,,,,,,,,,,,w,1,1.066,1.540974097,1,1,14,1,57,3,1,,,,,,,,,,,,,,
,,,,,,,,,,,left.png,,w,right,6150644c34ae04340c40ea7d,2021-10-21_16h59.00.150,arrow_simon_punish,2021.1.2,Win32,60.0240096,,,,,,,,,,,,,,w,1,1.379,1.821436338,1,1,14,2,58,3,1,,,,,,,,,,,,,,
,,,,,,,,,,,right.png,,p,right,6150644c34ae04340c40ea7d,2021-10-21_16h59.00.150,arrow_simon_punish,2021.1.2,Win32,60.0240096,,,,,,,,,,,,,,p,1,1.334,1.9565236,1,1,14,3,59,1,1,,,,,,,,,,,,,,
,,,,,,,,,,,,,,,6150644c34ae04340c40ea7d,2021-10-21_16h59.00.150,arrow_simon_punish,2021.1.2,Win32,60.0240096,,,,,,,,,,,,,,,,,,,,,,,,,space,14.01,8,3,0,6,0,1,1,,,,,
,,,,,,,,,,,right.png,,p,right,6150644c34ae04340c40ea7d,2021-10-21_16h59.00.150,arrow_simon_punish,2021.1.2,Win32,60.0240096,,,,,,,,,,,,,,p,1,0.75,1.661600755,1,5,0,0,0,1,1,,,,,,,,,,,,,,
,,,,,,,,,,,right.png,,p,right,6150644c34ae04340c40ea7d,2021-10-21_16h59.00.150,arrow_simon_punish,2021.1.2,Win32,60.0240096,,,,,,,,,,,,,,p,1,1.101,1.977683319,1,5,0,1,1,1,1,,,,,,,,,,,,,,
,,,,,,,,,,,left.png,,w,right,6150644c34ae04340c40ea7d,2021-10-21_16h59.00.150,arrow_simon_punish,2021.1.2,Win32,60.0240096,,,,,,,,,,,,,,w,1,0.887,1.72464939,1,5,0,2,2,3,1,,,,,,,,,,,,,,
,,,,,,,,,,,left.png,,w,left,6150644c34ae04340c40ea7d,2021-10-21_16h59.00.150,arrow_simon_punish,2021.1.2,Win32,60.0240096,,,,,,,,,,,,,,w,1,1.296,2.013825719,1,5,0,3,3,2,1,,,,,,,,,,,,,,
,,,,,,,,,,,left.png,,w,right,6150644c34ae04340c40ea7d,2021-10-21_16h59.00.150,arrow_simon_punish,2021.1.2,Win32,60.0240096,,,,,,,,,,,,,,w,1,1.217,2.029879881,1,5,1,0,4,3,1,,,,,,,,,,,,,,
,,,,,,,,,,,left.png,,w,left,6150644c34ae04340c40ea7d,2021-10-21_16h59.00.150,arrow_simon_punish,2021.1.2,Win32,60.0240096,,,,,,,,,,,,,,w,1,1.452,2.250459086,0,5,1,1,5,2,1,,,,,,,,,,,,,,
,,,,,,,,,,,left.png,,w,right,6150644c34ae04340c40ea7d,2021-10-21_16h59.00.150,arrow_simon_punish,2021.1.2,Win32,60.0240096,,,,,,,,,,,,,,w,1,1.384,1.82769656,1,5,1,2,6,3,1,,,,,,,,,,,,,,
,,,,,,,,,,,right.png,,p,right,6150644c34ae04340c40ea7d,2021-10-21_16h59.00.150,arrow_simon_punish,2021.1.2,Win32,60.0240096,,,,,,,,,,,,,,p,1,1.368,1.670790491,1,5,1,3,7,1,1,,,,,,,,,,,,,,
,,,,,,,,,,,left.png,,w,right,6150644c34ae04340c40ea7d,2021-10-21_16h59.00.150,arrow_simon_punish,2021.1.2,Win32,60.0240096,,,,,,,,,,,,,,w,1,1.335,1.955399439,1,5,2,0,8,3,1,,,,,,,,,,,,,,
,,,,,,,,,,,left.png,,w,right,6150644c34ae04340c40ea7d,2021-10-21_16h59.00.150,arrow_simon_punish,2021.1.2,Win32,60.0240096,,,,,,,,,,,,,,w,1,1.185,1.951506847,1,5,2,1,9,3,1,,,,,,,,,,,,,,
,,,,,,,,,,,right.png,,p,left,6150644c34ae04340c40ea7d,2021-10-21_16h59.00.150,arrow_simon_punish,2021.1.2,Win32,60.0240096,,,,,,,,,,,,,,p,1,1.052,1.716634587,1,5,2,2,10,0,1,,,,,,,,,,,,,,
,,,,,,,,,,,left.png,,w,right,6150644c34ae04340c40ea7d,2021-10-21_16h59.00.150,arrow_simon_punish,2021.1.2,Win32,60.0240096,,,,,,,,,,,,,,w,1,1.352,2.38336951,1,5,2,3,11,3,1,,,,,,,,,,,,,,
,,,,,,,,,,,right.png,,p,right,6150644c34ae04340c40ea7d,2021-10-21_16h59.00.150,arrow_simon_punish,2021.1.2,Win32,60.0240096,,,,,,,,,,,,,,p,1,1.169,1.738931101,1,5,3,0,12,1,1,,,,,,,,,,,,,,
,,,,,,,,,,,right.png,,p,left,6150644c34ae04340c40ea7d,2021-10-21_16h59.00.150,arrow_simon_punish,2021.1.2,Win32,60.0240096,,,,,,,,,,,,,,p,1,1.083,1.542354843,1,5,3,1,13,0,1,,,,,,,,,,,,,,
