instruct_resp_simon.keys,instruct_resp_simon.corr,instruct_resp_simon.rt,trial_resp_simon.keys,trial_resp_simon.corr,trial_resp_simon.rt,trials_train_simon.thisRepN,trials_train_simon.thisTrialN,trials_train_simon.thisN,trials_train_simon.thisIndex,trials_train_simon.ran,target_file,target_pos,target_resp,target_side,participant,date,expName,psychopyVersion,OS,frameRate,instruct_resp_timing.keys,instruct_resp_timing.corr,instruct_resp_timing.rt,trial_resp_timing.keys,trial_resp_timing.rt,trials_train_timing.thisRepN,trials_train_timing.thisTrialN,trials_train_timing.thisN,trials_train_timing.thisIndex,trials_train_timing.ran,instruct_resp.keys,instruct_resp.corr,instruct_resp.rt,trial_resp.keys,trial_resp.corr,trial_resp.rt,target_onset,err,pun,trials.thisRepN,trials.thisTrialN,trials.thisN,trials.thisIndex,trials.ran,block_note_resp.keys,block_note_resp.rt,block_num,blocks.thisRepN,blocks.thisTrialN,blocks.thisN,blocks.thisIndex,blocks.ran,punish,complete_resp.keys,complete_resp.rt,raffle_trial,raffle_err,raffle_rew
space,0,38.822,p,1,1.409,0,0,0,1,1,right.png,,p,right,616ef3ce75a4007b7eb8ddfa,2021-10-21_09h21.08.330,arrow_simon_punish,2021.1.2,MacIntel,62.5,,,,,,,,,,,,,,,,,,,,,,,,,,,,,,,,,,,,,,
,,,w,0,1.739,0,1,1,0,1,right.png,,p,left,616ef3ce75a4007b7eb8ddfa,2021-10-21_09h21.08.330,arrow_simon_punish,2021.1.2,MacIntel,62.5,,,,,,,,,,,,,,,,,,,,,,,,,,,,,,,,,,,,,,
,,,w,1,1.38,0,2,2,3,1,left.png,,w,right,616ef3ce75a4007b7eb8ddfa,2021-10-21_09h21.08.330,arrow_simon_punish,2021.1.2,MacIntel,62.5,,,,,,,,,,,,,,,,,,,,,,,,,,,,,,,,,,,,,,
,,,w,1,1.259,0,3,3,2,1,left.png,,w,left,616ef3ce75a4007b7eb8ddfa,2021-10-21_09h21.08.330,arrow_simon_punish,2021.1.2,MacIntel,62.5,,,,,,,,,,,,,,,,,,,,,,,,,,,,,,,,,,,,,,
,,,p,1,1.215,1,0,4,1,1,right.png,,p,right,616ef3ce75a4007b7eb8ddfa,2021-10-21_09h21.08.330,arrow_simon_punish,2021.1.2,MacIntel,62.5,,,,,,,,,,,,,,,,,,,,,,,,,,,,,,,,,,,,,,
,,,w,1,0.934,1,1,5,2,1,left.png,,w,left,616ef3ce75a4007b7eb8ddfa,2021-10-21_09h21.08.330,arrow_simon_punish,2021.1.2,MacIntel,62.5,,,,,,,,,,,,,,,,,,,,,,,,,,,,,,,,,,,,,,
,,,w,1,0.845,1,2,6,3,1,left.png,,w,right,616ef3ce75a4007b7eb8ddfa,2021-10-21_09h21.08.330,arrow_simon_punish,2021.1.2,MacIntel,62.5,,,,,,,,,,,,,,,,,,,,,,,,,,,,,,,,,,,,,,
,,,p,1,0.668,1,3,7,0,1,right.png,,p,left,616ef3ce75a4007b7eb8ddfa,2021-10-21_09h21.08.330,arrow_simon_punish,2021.1.2,MacIntel,62.5,,,,,,,,,,,,,,,,,,,,,,,,,,,,,,,,,,,,,,
,,,p,1,0.442,2,0,8,0,1,right.png,,p,left,616ef3ce75a4007b7eb8ddfa,2021-10-21_09h21.08.330,arrow_simon_punish,2021.1.2,MacIntel,62.5,,,,,,,,,,,,,,,,,,,,,,,,,,,,,,,,,,,,,,
,,,w,1,0.557,2,1,9,2,1,left.png,,w,left,616ef3ce75a4007b7eb8ddfa,2021-10-21_09h21.08.330,arrow_simon_punish,2021.1.2,MacIntel,62.5,,,,,,,,,,,,,,,,,,,,,,,,,,,,,,,,,,,,,,
,,,p,1,1.238,2,2,10,1,1,right.png,,p,right,616ef3ce75a4007b7eb8ddfa,2021-10-21_09h21.08.330,arrow_simon_punish,2021.1.2,MacIntel,62.5,,,,,,,,,,,,,,,,,,,,,,,,,,,,,,,,,,,,,,
,,,w,1,1.338,2,3,11,3,1,left.png,,w,right,616ef3ce75a4007b7eb8ddfa,2021-10-21_09h21.08.330,arrow_simon_punish,2021.1.2,MacIntel,62.5,,,,,,,,,,,,,,,,,,,,,,,,,,,,,,,,,,,,,,
,,,p,1,0.648,3,0,12,1,1,right.png,,p,right,616ef3ce75a4007b7eb8ddfa,2021-10-21_09h21.08.330,arrow_simon_punish,2021.1.2,MacIntel,62.5,,,,,,,,,,,,,,,,,,,,,,,,,,,,,,,,,,,,,,
,,,p,1,1.422,3,1,13,0,1,right.png,,p,left,616ef3ce75a4007b7eb8ddfa,2021-10-21_09h21.08.330,arrow_simon_punish,2021.1.2,MacIntel,62.5,,,,,,,,,,,,,,,,,,,,,,,,,,,,,,,,,,,,,,
,,,w,1,1.335,3,2,14,2,1,left.png,,w,left,616ef3ce75a4007b7eb8ddfa,2021-10-21_09h21.08.330,arrow_simon_punish,2021.1.2,MacIntel,62.5,,,,,,,,,,,,,,,,,,,,,,,,,,,,,,,,,,,,,,
,,,w,1,0.83,3,3,15,3,1,left.png,,w,right,616ef3ce75a4007b7eb8ddfa,2021-10-21_09h21.08.330,arrow_simon_punish,2021.1.2,MacIntel,62.5,,,,,,,,,,,,,,,,,,,,,,,,,,,,,,,,,,,,,,
,,,w,1,0.574,4,0,16,3,1,left.png,,w,right,616ef3ce75a4007b7eb8ddfa,2021-10-21_09h21.08.330,arrow_simon_punish,2021.1.2,MacIntel,62.5,,,,,,,,,,,,,,,,,,,,,,,,,,,,,,,,,,,,,,
,,,w,1,1.107,4,1,17,2,1,left.png,,w,left,616ef3ce75a4007b7eb8ddfa,2021-10-21_09h21.08.330,arrow_simon_punish,2021.1.2,MacIntel,62.5,,,,,,,,,,,,,,,,,,,,,,,,,,,,,,,,,,,,,,
,,,p,1,0.585,4,2,18,1,1,right.png,,p,right,616ef3ce75a4007b7eb8ddfa,2021-10-21_09h21.08.330,arrow_simon_punish,2021.1.2,MacIntel,62.5,,,,,,,,,,,,,,,,,,,,,,,,,,,,,,,,,,,,,,
,,,p,1,1.542,4,3,19,0,1,right.png,,p,left,616ef3ce75a4007b7eb8ddfa,2021-10-21_09h21.08.330,arrow_simon_punish,2021.1.2,MacIntel,62.5,,,,,,,,,,,,,,,,,,,,,,,,,,,,,,,,,,,,,,
,,,w,1,0.773,5,0,20,3,1,left.png,,w,right,616ef3ce75a4007b7eb8ddfa,2021-10-21_09h21.08.330,arrow_simon_punish,2021.1.2,MacIntel,62.5,,,,,,,,,,,,,,,,,,,,,,,,,,,,,,,,,,,,,,
,,,p,1,1.125,5,1,21,0,1,right.png,,p,left,616ef3ce75a4007b7eb8ddfa,2021-10-21_09h21.08.330,arrow_simon_punish,2021.1.2,MacIntel,62.5,,,,,,,,,,,,,,,,,,,,,,,,,,,,,,,,,,,,,,
,,,w,1,0.89,5,2,22,2,1,left.png,,w,left,616ef3ce75a4007b7eb8ddfa,2021-10-21_09h21.08.330,arrow_simon_punish,2021.1.2,MacIntel,62.5,,,,,,,,,,,,,,,,,,,,,,,,,,,,,,,,,,,,,,
,,,p,1,1.229,5,3,23,1,1,right.png,,p,right,616ef3ce75a4007b7eb8ddfa,2021-10-21_09h21.08.330,arrow_simon_punish,2021.1.2,MacIntel,62.5,,,,,,,,,,,,,,,,,,,,,,,,,,,,,,,,,,,,,,
,,,p,1,0.584,6,0,24,1,1,right.png,,p,right,616ef3ce75a4007b7eb8ddfa,2021-10-21_09h21.08.330,arrow_simon_punish,2021.1.2,MacIntel,62.5,,,,,,,,,,,,,,,,,,,,,,,,,,,,,,,,,,,,,,
,,,w,1,0.912,6,1,25,3,1,left.png,,w,right,616ef3ce75a4007b7eb8ddfa,2021-10-21_09h21.08.330,arrow_simon_punish,2021.1.2,MacIntel,62.5,,,,,,,,,,,,,,,,,,,,,,,,,,,,,,,,,,,,,,
,,,w,1,0.857,6,2,26,2,1,left.png,,w,left,616ef3ce75a4007b7eb8ddfa,2021-10-21_09h21.08.330,arrow_simon_punish,2021.1.2,MacIntel,62.5,,,,,,,,,,,,,,,,,,,,,,,,,,,,,,,,,,,,,,
,,,p,1,1.391,6,3,27,0,1,right.png,,p,left,616ef3ce75a4007b7eb8ddfa,2021-10-21_09h21.08.330,arrow_simon_punish,2021.1.2,MacIntel,62.5,,,,,,,,,,,,,,,,,,,,,,,,,,,,,,,,,,,,,,
,,,p,1,1.249,7,0,28,1,1,right.png,,p,right,616ef3ce75a4007b7eb8ddfa,2021-10-21_09h21.08.330,arrow_simon_punish,2021.1.2,MacIntel,62.5,,,,,,,,,,,,,,,,,,,,,,,,,,,,,,,,,,,,,,
,,,w,1,0.645,7,1,29,2,1,left.png,,w,left,616ef3ce75a4007b7eb8ddfa,2021-10-21_09h21.08.330,arrow_simon_punish,2021.1.2,MacIntel,62.5,,,,,,,,,,,,,,,,,,,,,,,,,,,,,,,,,,,,,,
,,,w,0,0.569,7,2,30,0,1,right.png,,p,left,616ef3ce75a4007b7eb8ddfa,2021-10-21_09h21.08.330,arrow_simon_punish,2021.1.2,MacIntel,62.5,,,,,,,,,,,,,,,,,,,,,,,,,,,,,,,,,,,,,,
,,,w,1,1.268,7,3,31,3,1,left.png,,w,right,616ef3ce75a4007b7eb8ddfa,2021-10-21_09h21.08.330,arrow_simon_punish,2021.1.2,MacIntel,62.5,,,,,,,,,,,,,,,,,,,,,,,,,,,,,,,,,,,,,,
,,,w,1,0.97,8,0,32,2,1,left.png,,w,left,616ef3ce75a4007b7eb8ddfa,2021-10-21_09h21.08.330,arrow_simon_punish,2021.1.2,MacIntel,62.5,,,,,,,,,,,,,,,,,,,,,,,,,,,,,,,,,,,,,,
,,,p,1,1.321,8,1,33,0,1,right.png,,p,left,616ef3ce75a4007b7eb8ddfa,2021-10-21_09h21.08.330,arrow_simon_punish,2021.1.2,MacIntel,62.5,,,,,,,,,,,,,,,,,,,,,,,,,,,,,,,,,,,,,,
,,,w,1,0.697,8,2,34,3,1,left.png,,w,right,616ef3ce75a4007b7eb8ddfa,2021-10-21_09h21.08.330,arrow_simon_punish,2021.1.2,MacIntel,62.5,,,,,,,,,,,,,,,,,,,,,,,,,,,,,,,,,,,,,,
,,,p,1,1.265,8,3,35,1,1,right.png,,p,right,616ef3ce75a4007b7eb8ddfa,2021-10-21_09h21.08.330,arrow_simon_punish,2021.1.2,MacIntel,62.5,,,,,,,,,,,,,,,,,,,,,,,,,,,,,,,,,,,,,,
,,,p,1,0.686,9,0,36,1,1,right.png,,p,right,616ef3ce75a4007b7eb8ddfa,2021-10-21_09h21.08.330,arrow_simon_punish,2021.1.2,MacIntel,62.5,,,,,,,,,,,,,,,,,,,,,,,,,,,,,,,,,,,,,,
,,,w,1,0.493,9,1,37,3,1,left.png,,w,right,616ef3ce75a4007b7eb8ddfa,2021-10-21_09h21.08.330,arrow_simon_punish,2021.1.2,MacIntel,62.5,,,,,,,,,,,,,,,,,,,,,,,,,,,,,,,,,,,,,,
,,,p,1,0.999,9,2,38,0,1,right.png,,p,left,616ef3ce75a4007b7eb8ddfa,2021-10-21_09h21.08.330,arrow_simon_punish,2021.1.2,MacIntel,62.5,,,,,,,,,,,,,,,,,,,,,,,,,,,,,,,,,,,,,,
,,,w,1,0.792,9,3,39,2,1,left.png,,w,left,616ef3ce75a4007b7eb8ddfa,2021-10-21_09h21.08.330,arrow_simon_punish,2021.1.2,MacIntel,62.5,,,,,,,,,,,,,,,,,,,,,,,,,,,,,,,,,,,,,,
,,,,,,,,,,,,,,,616ef3ce75a4007b7eb8ddfa,2021-10-21_09h21.08.330,arrow_simon_punish,2021.1.2,MacIntel,62.5,space,0,32.041,p,2.749,0,0,0,0,1,,,,,,,,,,,,,,,,,,,,,,,,,,,,
,,,,,,,,,,,,,,,616ef3ce75a4007b7eb8ddfa,2021-10-21_09h21.08.330,arrow_simon_punish,2021.1.2,MacIntel,62.5,,,,p,2.138,1,0,1,0,1,,,,,,,,,,,,,,,,,,,,,,,,,,,,
,,,,,,,,,,,,,,,616ef3ce75a4007b7eb8ddfa,2021-10-21_09h21.08.330,arrow_simon_punish,2021.1.2,MacIntel,62.5,,,,p,2.254,2,0,2,0,1,,,,,,,,,,,,,,,,,,,,,,,,,,,,
,,,,,,,,,,,,,,,616ef3ce75a4007b7eb8ddfa,2021-10-21_09h21.08.330,arrow_simon_punish,2021.1.2,MacIntel,62.5,,,,w,2.404,3,0,3,0,1,,,,,,,,,,,,,,,,,,,,,,,,,,,,
,,,,,,,,,,,,,,,616ef3ce75a4007b7eb8ddfa,2021-10-21_09h21.08.330,arrow_simon_punish,2021.1.2,MacIntel,62.5,,,,w,2.483,4,0,4,0,1,,,,,,,,,,,,,,,,,,,,,,,,,,,,
,,,,,,,,,,,,,,,616ef3ce75a4007b7eb8ddfa,2021-10-21_09h21.08.330,arrow_simon_punish,2021.1.2,MacIntel,62.5,,,,p,2.38,5,0,5,0,1,,,,,,,,,,,,,,,,,,,,,,,,,,,,
,,,,,,,,,,,,,,,616ef3ce75a4007b7eb8ddfa,2021-10-21_09h21.08.330,arrow_simon_punish,2021.1.2,MacIntel,62.5,,,,w,2.344,6,0,6,0,1,,,,,,,,,,,,,,,,,,,,,,,,,,,,
,,,,,,,,,,,,,,,616ef3ce75a4007b7eb8ddfa,2021-10-21_09h21.08.330,arrow_simon_punish,2021.1.2,MacIntel,62.5,,,,w,2.542,7,0,7,0,1,,,,,,,,,,,,,,,,,,,,,,,,,,,,
,,,,,,,,,,,,,,,616ef3ce75a4007b7eb8ddfa,2021-10-21_09h21.08.330,arrow_simon_punish,2021.1.2,MacIntel,62.5,,,,w,2.517,8,0,8,0,1,,,,,,,,,,,,,,,,,,,,,,,,,,,,
,,,,,,,,,,,,,,,616ef3ce75a4007b7eb8ddfa,2021-10-21_09h21.08.330,arrow_simon_punish,2021.1.2,MacIntel,62.5,,,,w,2.532,9,0,9,0,1,,,,,,,,,,,,,,,,,,,,,,,,,,,,
,,,,,,,,,,,,,,,616ef3ce75a4007b7eb8ddfa,2021-10-21_09h21.08.330,arrow_simon_punish,2021.1.2,MacIntel,62.5,,,,p,2.534,10,0,10,0,1,,,,,,,,,,,,,,,,,,,,,,,,,,,,
,,,,,,,,,,,,,,,616ef3ce75a4007b7eb8ddfa,2021-10-21_09h21.08.330,arrow_simon_punish,2021.1.2,MacIntel,62.5,,,,p,2.534,11,0,11,0,1,,,,,,,,,,,,,,,,,,,,,,,,,,,,
,,,,,,,,,,,,,,,616ef3ce75a4007b7eb8ddfa,2021-10-21_09h21.08.330,arrow_simon_punish,2021.1.2,MacIntel,62.5,,,,p,2.535,12,0,12,0,1,,,,,,,,,,,,,,,,,,,,,,,,,,,,
,,,,,,,,,,,,,,,616ef3ce75a4007b7eb8ddfa,2021-10-21_09h21.08.330,arrow_simon_punish,2021.1.2,MacIntel,62.5,,,,w,2.456,13,0,13,0,1,,,,,,,,,,,,,,,,,,,,,,,,,,,,
,,,,,,,,,,,,,,,616ef3ce75a4007b7eb8ddfa,2021-10-21_09h21.08.330,arrow_simon_punish,2021.1.2,MacIntel,62.5,,,,p,2.473,14,0,14,0,1,,,,,,,,,,,,,,,,,,,,,,,,,,,,
,,,,,,,,,,,,,,,616ef3ce75a4007b7eb8ddfa,2021-10-21_09h21.08.330,arrow_simon_punish,2021.1.2,MacIntel,62.5,,,,w,2.508,15,0,15,0,1,,,,,,,,,,,,,,,,,,,,,,,,,,,,
,,,,,,,,,,,,,,,616ef3ce75a4007b7eb8ddfa,2021-10-21_09h21.08.330,arrow_simon_punish,2021.1.2,MacIntel,62.5,,,,p,2.402,16,0,16,0,1,,,,,,,,,,,,,,,,,,,,,,,,,,,,
,,,,,,,,,,,,,,,616ef3ce75a4007b7eb8ddfa,2021-10-21_09h21.08.330,arrow_simon_punish,2021.1.2,MacIntel,62.5,,,,p,2.457,17,0,17,0,1,,,,,,,,,,,,,,,,,,,,,,,,,,,,
,,,,,,,,,,,,,,,616ef3ce75a4007b7eb8ddfa,2021-10-21_09h21.08.330,arrow_simon_punish,2021.1.2,MacIntel,62.5,,,,p,2.489,18,0,18,0,1,,,,,,,,,,,,,,,,,,,,,,,,,,,,
,,,,,,,,,,,,,,,616ef3ce75a4007b7eb8ddfa,2021-10-21_09h21.08.330,arrow_simon_punish,2021.1.2,MacIntel,62.5,,,,p,2.434,19,0,19,0,1,,,,,,,,,,,,,,,,,,,,,,,,,,,,
,,,,,,,,,,,,,,,616ef3ce75a4007b7eb8ddfa,2021-10-21_09h21.08.330,arrow_simon_punish,2021.1.2,MacIntel,62.5,,,,p,2.414,20,0,20,0,1,,,,,,,,,,,,,,,,,,,,,,,,,,,,
,,,,,,,,,,,,,,,616ef3ce75a4007b7eb8ddfa,2021-10-21_09h21.08.330,arrow_simon_punish,2021.1.2,MacIntel,62.5,,,,p,2.482,21,0,21,0,1,,,,,,,,,,,,,,,,,,,,,,,,,,,,
,,,,,,,,,,,,,,,616ef3ce75a4007b7eb8ddfa,2021-10-21_09h21.08.330,arrow_simon_punish,2021.1.2,MacIntel,62.5,,,,w,2.489,22,0,22,0,1,,,,,,,,,,,,,,,,,,,,,,,,,,,,
,,,,,,,,,,,,,,,616ef3ce75a4007b7eb8ddfa,2021-10-21_09h21.08.330,arrow_simon_punish,2021.1.2,MacIntel,62.5,,,,w,2.509,23,0,23,0,1,,,,,,,,,,,,,,,,,,,,,,,,,,,,
,,,,,,,,,,,,,,,616ef3ce75a4007b7eb8ddfa,2021-10-21_09h21.08.330,arrow_simon_punish,2021.1.2,MacIntel,62.5,,,,w,2.451,24,0,24,0,1,,,,,,,,,,,,,,,,,,,,,,,,,,,,
,,,,,,,,,,,,,,,616ef3ce75a4007b7eb8ddfa,2021-10-21_09h21.08.330,arrow_simon_punish,2021.1.2,MacIntel,62.5,,,,w,2.525,25,0,25,0,1,,,,,,,,,,,,,,,,,,,,,,,,,,,,
,,,,,,,,,,,,,,,616ef3ce75a4007b7eb8ddfa,2021-10-21_09h21.08.330,arrow_simon_punish,2021.1.2,MacIntel,62.5,,,,w,2.454,26,0,26,0,1,,,,,,,,,,,,,,,,,,,,,,,,,,,,
,,,,,,,,,,,,,,,616ef3ce75a4007b7eb8ddfa,2021-10-21_09h21.08.330,arrow_simon_punish,2021.1.2,MacIntel,62.5,,,,w,2.476,27,0,27,0,1,,,,,,,,,,,,,,,,,,,,,,,,,,,,
,,,,,,,,,,,,,,,616ef3ce75a4007b7eb8ddfa,2021-10-21_09h21.08.330,arrow_simon_punish,2021.1.2,MacIntel,62.5,,,,w,2.44,28,0,28,0,1,,,,,,,,,,,,,,,,,,,,,,,,,,,,
,,,,,,,,,,,,,,,616ef3ce75a4007b7eb8ddfa,2021-10-21_09h21.08.330,arrow_simon_punish,2021.1.2,MacIntel,62.5,,,,w,2.47,29,0,29,0,1,,,,,,,,,,,,,,,,,,,,,,,,,,,,
,,,,,,,,,,,,,,,616ef3ce75a4007b7eb8ddfa,2021-10-21_09h21.08.330,arrow_simon_punish,2021.1.2,MacIntel,62.5,,,,w,2.435,30,0,30,0,1,,,,,,,,,,,,,,,,,,,,,,,,,,,,
,,,,,,,,,,,,,,,616ef3ce75a4007b7eb8ddfa,2021-10-21_09h21.08.330,arrow_simon_punish,2021.1.2,MacIntel,62.5,,,,w,2.381,31,0,31,0,1,,,,,,,,,,,,,,,,,,,,,,,,,,,,
,,,,,,,,,,,,,,,616ef3ce75a4007b7eb8ddfa,2021-10-21_09h21.08.330,arrow_simon_punish,2021.1.2,MacIntel,62.5,,,,p,2.491,32,0,32,0,1,,,,,,,,,,,,,,,,,,,,,,,,,,,,
,,,,,,,,,,,,,,,616ef3ce75a4007b7eb8ddfa,2021-10-21_09h21.08.330,arrow_simon_punish,2021.1.2,MacIntel,62.5,,,,p,2.484,33,0,33,0,1,,,,,,,,,,,,,,,,,,,,,,,,,,,,
,,,,,,,,,,,,,,,616ef3ce75a4007b7eb8ddfa,2021-10-21_09h21.08.330,arrow_simon_punish,2021.1.2,MacIntel,62.5,,,,p,2.669,34,0,34,0,1,,,,,,,,,,,,,,,,,,,,,,,,,,,,
,,,,,,,,,,,,,,,616ef3ce75a4007b7eb8ddfa,2021-10-21_09h21.08.330,arrow_simon_punish,2021.1.2,MacIntel,62.5,,,,p,2.483,35,0,35,0,1,,,,,,,,,,,,,,,,,,,,,,,,,,,,
,,,,,,,,,,,,,,,616ef3ce75a4007b7eb8ddfa,2021-10-21_09h21.08.330,arrow_simon_punish,2021.1.2,MacIntel,62.5,,,,w,2.401,36,0,36,0,1,,,,,,,,,,,,,,,,,,,,,,,,,,,,
,,,,,,,,,,,,,,,616ef3ce75a4007b7eb8ddfa,2021-10-21_09h21.08.330,arrow_simon_punish,2021.1.2,MacIntel,62.5,,,,p,2.451,37,0,37,0,1,,,,,,,,,,,,,,,,,,,,,,,,,,,,
,,,,,,,,,,,,,,,616ef3ce75a4007b7eb8ddfa,2021-10-21_09h21.08.330,arrow_simon_punish,2021.1.2,MacIntel,62.5,,,,w,2.451,38,0,38,0,1,,,,,,,,,,,,,,,,,,,,,,,,,,,,
,,,,,,,,,,,,,,,616ef3ce75a4007b7eb8ddfa,2021-10-21_09h21.08.330,arrow_simon_punish,2021.1.2,MacIntel,62.5,,,,p,2.437,39,0,39,0,1,,,,,,,,,,,,,,,,,,,,,,,,,,,,
,,,,,,,,,,,,,,,616ef3ce75a4007b7eb8ddfa,2021-10-21_09h21.08.330,arrow_simon_punish,2021.1.2,MacIntel,62.5,,,,w,2.409,40,0,40,0,1,,,,,,,,,,,,,,,,,,,,,,,,,,,,
,,,,,,,,,,,,,,,616ef3ce75a4007b7eb8ddfa,2021-10-21_09h21.08.330,arrow_simon_punish,2021.1.2,MacIntel,62.5,,,,p,2.367,41,0,41,0,1,,,,,,,,,,,,,,,,,,,,,,,,,,,,
,,,,,,,,,,,,,,,616ef3ce75a4007b7eb8ddfa,2021-10-21_09h21.08.330,arrow_simon_punish,2021.1.2,MacIntel,62.5,,,,p,2.473,42,0,42,0,1,,,,,,,,,,,,,,,,,,,,,,,,,,,,
,,,,,,,,,,,,,,,616ef3ce75a4007b7eb8ddfa,2021-10-21_09h21.08.330,arrow_simon_punish,2021.1.2,MacIntel,62.5,,,,w,2.432,43,0,43,0,1,,,,,,,,,,,,,,,,,,,,,,,,,,,,
,,,,,,,,,,,,,,,616ef3ce75a4007b7eb8ddfa,2021-10-21_09h21.08.330,arrow_simon_punish,2021.1.2,MacIntel,62.5,,,,p,2.445,44,0,44,0,1,,,,,,,,,,,,,,,,,,,,,,,,,,,,
,,,,,,,,,,,,,,,616ef3ce75a4007b7eb8ddfa,2021-10-21_09h21.08.330,arrow_simon_punish,2021.1.2,MacIntel,62.5,,,,w,2.41,45,0,45,0,1,,,,,,,,,,,,,,,,,,,,,,,,,,,,
,,,,,,,,,,,,,,,616ef3ce75a4007b7eb8ddfa,2021-10-21_09h21.08.330,arrow_simon_punish,2021.1.2,MacIntel,62.5,,,,p,2.353,46,0,46,0,1,,,,,,,,,,,,,,,,,,,,,,,,,,,,
,,,,,,,,,,,,,,,616ef3ce75a4007b7eb8ddfa,2021-10-21_09h21.08.330,arrow_simon_punish,2021.1.2,MacIntel,62.5,,,,w,2.508,47,0,47,0,1,,,,,,,,,,,,,,,,,,,,,,,,,,,,
,,,,,,,,,,,,,,,616ef3ce75a4007b7eb8ddfa,2021-10-21_09h21.08.330,arrow_simon_punish,2021.1.2,MacIntel,62.5,,,,p,2.447,48,0,48,0,1,,,,,,,,,,,,,,,,,,,,,,,,,,,,
,,,,,,,,,,,,,,,616ef3ce75a4007b7eb8ddfa,2021-10-21_09h21.08.330,arrow_simon_punish,2021.1.2,MacIntel,62.5,,,,w,2.382,49,0,49,0,1,,,,,,,,,,,,,,,,,,,,,,,,,,,,
,,,,,,,,,,,,,,,616ef3ce75a4007b7eb8ddfa,2021-10-21_09h21.08.330,arrow_simon_punish,2021.1.2,MacIntel,62.5,,,,p,2.457,50,0,50,0,1,,,,,,,,,,,,,,,,,,,,,,,,,,,,
,,,,,,,,,,,,,,,616ef3ce75a4007b7eb8ddfa,2021-10-21_09h21.08.330,arrow_simon_punish,2021.1.2,MacIntel,62.5,,,,p,2.47,51,0,51,0,1,,,,,,,,,,,,,,,,,,,,,,,,,,,,
,,,,,,,,,,,,,,,616ef3ce75a4007b7eb8ddfa,2021-10-21_09h21.08.330,arrow_simon_punish,2021.1.2,MacIntel,62.5,,,,p,2.423,52,0,52,0,1,,,,,,,,,,,,,,,,,,,,,,,,,,,,
,,,,,,,,,,,,,,,616ef3ce75a4007b7eb8ddfa,2021-10-21_09h21.08.330,arrow_simon_punish,2021.1.2,MacIntel,62.5,,,,p,2.423,53,0,53,0,1,,,,,,,,,,,,,,,,,,,,,,,,,,,,
,,,,,,,,,,,,,,,616ef3ce75a4007b7eb8ddfa,2021-10-21_09h21.08.330,arrow_simon_punish,2021.1.2,MacIntel,62.5,,,,p,2.385,54,0,54,0,1,,,,,,,,,,,,,,,,,,,,,,,,,,,,
,,,,,,,,,,,,,,,616ef3ce75a4007b7eb8ddfa,2021-10-21_09h21.08.330,arrow_simon_punish,2021.1.2,MacIntel,62.5,,,,p,2.523,55,0,55,0,1,,,,,,,,,,,,,,,,,,,,,,,,,,,,
,,,,,,,,,,,,,,,616ef3ce75a4007b7eb8ddfa,2021-10-21_09h21.08.330,arrow_simon_punish,2021.1.2,MacIntel,62.5,,,,p,2.475,56,0,56,0,1,,,,,,,,,,,,,,,,,,,,,,,,,,,,
,,,,,,,,,,,,,,,616ef3ce75a4007b7eb8ddfa,2021-10-21_09h21.08.330,arrow_simon_punish,2021.1.2,MacIntel,62.5,,,,p,2.47,57,0,57,0,1,,,,,,,,,,,,,,,,,,,,,,,,,,,,
,,,,,,,,,,,,,,,616ef3ce75a4007b7eb8ddfa,2021-10-21_09h21.08.330,arrow_simon_punish,2021.1.2,MacIntel,62.5,,,,p,2.415,58,0,58,0,1,,,,,,,,,,,,,,,,,,,,,,,,,,,,
,,,,,,,,,,,,,,,616ef3ce75a4007b7eb8ddfa,2021-10-21_09h21.08.330,arrow_simon_punish,2021.1.2,MacIntel,62.5,,,,p,2.375,59,0,59,0,1,,,,,,,,,,,,,,,,,,,,,,,,,,,,
,,,,,,,,,,,left.png,,w,right,616ef3ce75a4007b7eb8ddfa,2021-10-21_09h21.08.330,arrow_simon_punish,2021.1.2,MacIntel,62.5,,,,,,,,,,,space,0,103.057,w,1,0.881,1.880124276,1,1,0,0,0,3,1,,,,,,,,,,,,,,
,,,,,,,,,,,left.png,,w,left,616ef3ce75a4007b7eb8ddfa,2021-10-21_09h21.08.330,arrow_simon_punish,2021.1.2,MacIntel,62.5,,,,,,,,,,,,,,w,1,1.038,1.595580731,1,1,0,1,1,2,1,,,,,,,,,,,,,,
,,,,,,,,,,,right.png,,p,right,616ef3ce75a4007b7eb8ddfa,2021-10-21_09h21.08.330,arrow_simon_punish,2021.1.2,MacIntel,62.5,,,,,,,,,,,,,,p,1,1.08,1.639612549,1,1,0,2,2,1,1,,,,,,,,,,,,,,
,,,,,,,,,,,right.png,,p,left,616ef3ce75a4007b7eb8ddfa,2021-10-21_09h21.08.330,arrow_simon_punish,2021.1.2,MacIntel,62.5,,,,,,,,,,,,,,p,1,1.124,1.751244299,1,1,0,3,3,0,1,,,,,,,,,,,,,,
,,,,,,,,,,,right.png,,p,left,616ef3ce75a4007b7eb8ddfa,2021-10-21_09h21.08.330,arrow_simon_punish,2021.1.2,MacIntel,62.5,,,,,,,,,,,,,,p,1,1.299,1.798195812,1,1,1,0,4,0,1,,,,,,,,,,,,,,
,,,,,,,,,,,left.png,,w,right,616ef3ce75a4007b7eb8ddfa,2021-10-21_09h21.08.330,arrow_simon_punish,2021.1.2,MacIntel,62.5,,,,,,,,,,,,,,w,1,1.367,1.560663336,1,1,1,1,5,3,1,,,,,,,,,,,,,,
,,,,,,,,,,,left.png,,w,left,616ef3ce75a4007b7eb8ddfa,2021-10-21_09h21.08.330,arrow_simon_punish,2021.1.2,MacIntel,62.5,,,,,,,,,,,,,,w,1,0.636,1.682587509,1,1,1,2,6,2,1,,,,,,,,,,,,,,
,,,,,,,,,,,left.png,,w,left,616ef3ce75a4007b7eb8ddfa,2021-10-21_09h21.08.330,arrow_simon_punish,2021.1.2,MacIntel,62.5,,,,,,,,,,,,,,w,1,1.17,2.060669993,1,1,1,3,7,2,1,,,,,,,,,,,,,,
,,,,,,,,,,,right.png,,p,left,616ef3ce75a4007b7eb8ddfa,2021-10-21_09h21.08.330,arrow_simon_punish,2021.1.2,MacIntel,62.5,,,,,,,,,,,,,,p,1,1.441,2.276222574,0,1,2,0,8,0,1,,,,,,,,,,,,,,
,,,,,,,,,,,left.png,,w,right,616ef3ce75a4007b7eb8ddfa,2021-10-21_09h21.08.330,arrow_simon_punish,2021.1.2,MacIntel,62.5,,,,,,,,,,,,,,w,1,0.985,1.504190262,1,1,2,1,9,3,1,,,,,,,,,,,,,,
,,,,,,,,,,,left.png,,w,left,616ef3ce75a4007b7eb8ddfa,2021-10-21_09h21.08.330,arrow_simon_punish,2021.1.2,MacIntel,62.5,,,,,,,,,,,,,,w,1,1.141,2.299870538,1,1,2,2,10,2,1,,,,,,,,,,,,,,
,,,,,,,,,,,left.png,,w,right,616ef3ce75a4007b7eb8ddfa,2021-10-21_09h21.08.330,arrow_simon_punish,2021.1.2,MacIntel,62.5,,,,,,,,,,,,,,p,0,1.118,2.331622223,1,1,2,3,11,3,1,,,,,,,,,,,,,,
,,,,,,,,,,,left.png,,w,right,616ef3ce75a4007b7eb8ddfa,2021-10-21_09h21.08.330,arrow_simon_punish,2021.1.2,MacIntel,62.5,,,,,,,,,,,,,,p,0,1.192,2.448386033,1,1,3,0,12,3,1,,,,,,,,,,,,,,
,,,,,,,,,,,left.png,,w,left,616ef3ce75a4007b7eb8ddfa,2021-10-21_09h21.08.330,arrow_simon_punish,2021.1.2,MacIntel,62.5,,,,,,,,,,,,,,w,1,0.963,1.974783941,1,1,3,1,13,2,1,,,,,,,,,,,,,,
,,,,,,,,,,,right.png,,p,left,616ef3ce75a4007b7eb8ddfa,2021-10-21_09h21.08.330,arrow_simon_punish,2021.1.2,MacIntel,62.5,,,,,,,,,,,,,,p,1,1.169,2.190339321,1,1,3,2,14,0,1,,,,,,,,,,,,,,
,,,,,,,,,,,right.png,,p,right,616ef3ce75a4007b7eb8ddfa,2021-10-21_09h21.08.330,arrow_simon_punish,2021.1.2,MacIntel,62.5,,,,,,,,,,,,,,p,1,1.069,2.215817915,1,1,3,3,15,1,1,,,,,,,,,,,,,,
,,,,,,,,,,,right.png,,p,left,616ef3ce75a4007b7eb8ddfa,2021-10-21_09h21.08.330,arrow_simon_punish,2021.1.2,MacIntel,62.5,,,,,,,,,,,,,,p,1,1.117,1.862144615,1,1,4,0,16,0,1,,,,,,,,,,,,,,
,,,,,,,,,,,left.png,,w,left,616ef3ce75a4007b7eb8ddfa,2021-10-21_09h21.08.330,arrow_simon_punish,2021.1.2,MacIntel,62.5,,,,,,,,,,,,,,w,1,1.088,1.961020073,1,1,4,1,17,2,1,,,,,,,,,,,,,,
,,,,,,,,,,,right.png,,p,right,616ef3ce75a4007b7eb8ddfa,2021-10-21_09h21.08.330,arrow_simon_punish,2021.1.2,MacIntel,62.5,,,,,,,,,,,,,,p,1,1.077,1.874414723,1,1,4,2,18,1,1,,,,,,,,,,,,,,
,,,,,,,,,,,right.png,,p,right,616ef3ce75a4007b7eb8ddfa,2021-10-21_09h21.08.330,arrow_simon_punish,2021.1.2,MacIntel,62.5,,,,,,,,,,,,,,p,1,0.969,2.163037005,1,1,4,3,19,1,1,,,,,,,,,,,,,,
,,,,,,,,,,,right.png,,p,right,616ef3ce75a4007b7eb8ddfa,2021-10-21_09h21.08.330,arrow_simon_punish,2021.1.2,MacIntel,62.5,,,,,,,,,,,,,,p,1,0.969,1.772674296,1,1,5,0,20,1,1,,,,,,,,,,,,,,
,,,,,,,,,,,left.png,,w,left,616ef3ce75a4007b7eb8ddfa,2021-10-21_09h21.08.330,arrow_simon_punish,2021.1.2,MacIntel,62.5,,,,,,,,,,,,,,w,1,1.336,2.059420152,1,1,5,1,21,2,1,,,,,,,,,,,,,,
,,,,,,,,,,,left.png,,w,left,616ef3ce75a4007b7eb8ddfa,2021-10-21_09h21.08.330,arrow_simon_punish,2021.1.2,MacIntel,62.5,,,,,,,,,,,,,,w,1,1.163,2.11920681,1,1,5,2,22,2,1,,,,,,,,,,,,,,
,,,,,,,,,,,right.png,,p,right,616ef3ce75a4007b7eb8ddfa,2021-10-21_09h21.08.330,arrow_simon_punish,2021.1.2,MacIntel,62.5,,,,,,,,,,,,,,p,1,1.485,1.540586196,0,1,5,3,23,1,1,,,,,,,,,,,,,,
,,,,,,,,,,,left.png,,w,right,616ef3ce75a4007b7eb8ddfa,2021-10-21_09h21.08.330,arrow_simon_punish,2021.1.2,MacIntel,62.5,,,,,,,,,,,,,,w,1,0.978,1.834612176,1,1,6,0,24,3,1,,,,,,,,,,,,,,
,,,,,,,,,,,right.png,,p,left,616ef3ce75a4007b7eb8ddfa,2021-10-21_09h21.08.330,arrow_simon_punish,2021.1.2,MacIntel,62.5,,,,,,,,,,,,,,p,1,0.965,1.532868209,1,1,6,1,25,0,1,,,,,,,,,,,,,,
,,,,,,,,,,,left.png,,w,right,616ef3ce75a4007b7eb8ddfa,2021-10-21_09h21.08.330,arrow_simon_punish,2021.1.2,MacIntel,62.5,,,,,,,,,,,,,,w,1,1.172,2.284400435,1,1,6,2,26,3,1,,,,,,,,,,,,,,
,,,,,,,,,,,left.png,,w,left,616ef3ce75a4007b7eb8ddfa,2021-10-21_09h21.08.330,arrow_simon_punish,2021.1.2,MacIntel,62.5,,,,,,,,,,,,,,w,1,1.191,2.150361192,1,1,6,3,27,2,1,,,,,,,,,,,,,,
,,,,,,,,,,,left.png,,w,left,616ef3ce75a4007b7eb8ddfa,2021-10-21_09h21.08.330,arrow_simon_punish,2021.1.2,MacIntel,62.5,,,,,,,,,,,,,,w,1,1.034,1.803699261,1,1,7,0,28,2,1,,,,,,,,,,,,,,
,,,,,,,,,,,right.png,,p,left,616ef3ce75a4007b7eb8ddfa,2021-10-21_09h21.08.330,arrow_simon_punish,2021.1.2,MacIntel,62.5,,,,,,,,,,,,,,p,1,1.042,1.814478067,1,1,7,1,29,0,1,,,,,,,,,,,,,,
,,,,,,,,,,,right.png,,p,left,616ef3ce75a4007b7eb8ddfa,2021-10-21_09h21.08.330,arrow_simon_punish,2021.1.2,MacIntel,62.5,,,,,,,,,,,,,,p,1,1.089,1.904534694,1,1,7,2,30,0,1,,,,,,,,,,,,,,
,,,,,,,,,,,left.png,,w,left,616ef3ce75a4007b7eb8ddfa,2021-10-21_09h21.08.330,arrow_simon_punish,2021.1.2,MacIntel,62.5,,,,,,,,,,,,,,w,1,1.078,2.245610792,1,1,7,3,31,2,1,,,,,,,,,,,,,,
,,,,,,,,,,,right.png,,p,right,616ef3ce75a4007b7eb8ddfa,2021-10-21_09h21.08.330,arrow_simon_punish,2021.1.2,MacIntel,62.5,,,,,,,,,,,,,,p,1,1.014,1.924359925,1,1,8,0,32,1,1,,,,,,,,,,,,,,
,,,,,,,,,,,left.png,,w,right,616ef3ce75a4007b7eb8ddfa,2021-10-21_09h21.08.330,arrow_simon_punish,2021.1.2,MacIntel,62.5,,,,,,,,,,,,,,w,1,1.069,2.055389904,1,1,8,1,33,3,1,,,,,,,,,,,,,,
,,,,,,,,,,,right.png,,p,right,616ef3ce75a4007b7eb8ddfa,2021-10-21_09h21.08.330,arrow_simon_punish,2021.1.2,MacIntel,62.5,,,,,,,,,,,,,,p,1,1.225,2.475732461,1,1,8,2,34,1,1,,,,,,,,,,,,,,
,,,,,,,,,,,left.png,,w,left,616ef3ce75a4007b7eb8ddfa,2021-10-21_09h21.08.330,arrow_simon_punish,2021.1.2,MacIntel,62.5,,,,,,,,,,,,,,w,1,0.928,1.934573278,1,1,8,3,35,2,1,,,,,,,,,,,,,,
,,,,,,,,,,,right.png,,p,left,616ef3ce75a4007b7eb8ddfa,2021-10-21_09h21.08.330,arrow_simon_punish,2021.1.2,MacIntel,62.5,,,,,,,,,,,,,,p,1,0.965,1.96177076,1,1,9,0,36,0,1,,,,,,,,,,,,,,
,,,,,,,,,,,left.png,,w,right,616ef3ce75a4007b7eb8ddfa,2021-10-21_09h21.08.330,arrow_simon_punish,2021.1.2,MacIntel,62.5,,,,,,,,,,,,,,w,1,1.044,1.529474119,1,1,9,1,37,3,1,,,,,,,,,,,,,,
,,,,,,,,,,,left.png,,w,right,616ef3ce75a4007b7eb8ddfa,2021-10-21_09h21.08.330,arrow_simon_punish,2021.1.2,MacIntel,62.5,,,,,,,,,,,,,,w,1,0.908,1.59978,1,1,9,2,38,3,1,,,,,,,,,,,,,,
,,,,,,,,,,,right.png,,p,left,616ef3ce75a4007b7eb8ddfa,2021-10-21_09h21.08.330,arrow_simon_punish,2021.1.2,MacIntel,62.5,,,,,,,,,,,,,,p,1,0.854,1.851480931,1,1,9,3,39,0,1,,,,,,,,,,,,,,
,,,,,,,,,,,left.png,,w,right,616ef3ce75a4007b7eb8ddfa,2021-10-21_09h21.08.330,arrow_simon_punish,2021.1.2,MacIntel,62.5,,,,,,,,,,,,,,w,1,0.889,1.693351401,1,1,10,0,40,3,1,,,,,,,,,,,,,,
,,,,,,,,,,,right.png,,p,right,616ef3ce75a4007b7eb8ddfa,2021-10-21_09h21.08.330,arrow_simon_punish,2021.1.2,MacIntel,62.5,,,,,,,,,,,,,,p,1,0.819,1.804362513,1,1,10,1,41,1,1,,,,,,,,,,,,,,
,,,,,,,,,,,right.png,,p,right,616ef3ce75a4007b7eb8ddfa,2021-10-21_09h21.08.330,arrow_simon_punish,2021.1.2,MacIntel,62.5,,,,,,,,,,,,,,p,1,1.006,2.16435704,1,1,10,2,42,1,1,,,,,,,,,,,,,,
,,,,,,,,,,,left.png,,w,right,616ef3ce75a4007b7eb8ddfa,2021-10-21_09h21.08.330,arrow_simon_punish,2021.1.2,MacIntel,62.5,,,,,,,,,,,,,,w,1,0.931,1.618759849,1,1,10,3,43,3,1,,,,,,,,,,,,,,
,,,,,,,,,,,left.png,,w,left,616ef3ce75a4007b7eb8ddfa,2021-10-21_09h21.08.330,arrow_simon_punish,2021.1.2,MacIntel,62.5,,,,,,,,,,,,,,w,1,1.074,1.606874006,1,1,11,0,44,2,1,,,,,,,,,,,,,,
,,,,,,,,,,,right.png,,p,right,616ef3ce75a4007b7eb8ddfa,2021-10-21_09h21.08.330,arrow_simon_punish,2021.1.2,MacIntel,62.5,,,,,,,,,,,,,,p,1,1.078,1.635799872,1,1,11,1,45,1,1,,,,,,,,,,,,,,
,,,,,,,,,,,left.png,,w,left,616ef3ce75a4007b7eb8ddfa,2021-10-21_09h21.08.330,arrow_simon_punish,2021.1.2,MacIntel,62.5,,,,,,,,,,,,,,w,1,1.021,1.847280021,1,1,11,2,46,2,1,,,,,,,,,,,,,,
,,,,,,,,,,,right.png,,p,left,616ef3ce75a4007b7eb8ddfa,2021-10-21_09h21.08.330,arrow_simon_punish,2021.1.2,MacIntel,62.5,,,,,,,,,,,,,,p,1,1.058,2.133689368,1,1,11,3,47,0,1,,,,,,,,,,,,,,
,,,,,,,,,,,right.png,,p,left,616ef3ce75a4007b7eb8ddfa,2021-10-21_09h21.08.330,arrow_simon_punish,2021.1.2,MacIntel,62.5,,,,,,,,,,,,,,w,0,1.124,2.374766709,1,1,12,0,48,0,1,,,,,,,,,,,,,,
,,,,,,,,,,,left.png,,w,right,616ef3ce75a4007b7eb8ddfa,2021-10-21_09h21.08.330,arrow_simon_punish,2021.1.2,MacIntel,62.5,,,,,,,,,,,,,,w,1,1.579,2.154759337,0,1,12,1,49,3,1,,,,,,,,,,,,,,
,,,,,,,,,,,right.png,,p,left,616ef3ce75a4007b7eb8ddfa,2021-10-21_09h21.08.330,arrow_simon_punish,2021.1.2,MacIntel,62.5,,,,,,,,,,,,,,p,1,1.854,1.809769616,1,1,12,2,50,0,1,,,,,,,,,,,,,,
,,,,,,,,,,,left.png,,w,right,616ef3ce75a4007b7eb8ddfa,2021-10-21_09h21.08.330,arrow_simon_punish,2021.1.2,MacIntel,62.5,,,,,,,,,,,,,,w,1,1.498,2.231268633,0,1,12,3,51,3,1,,,,,,,,,,,,,,
,,,,,,,,,,,right.png,,p,right,616ef3ce75a4007b7eb8ddfa,2021-10-21_09h21.08.330,arrow_simon_punish,2021.1.2,MacIntel,62.5,,,,,,,,,,,,,,p,1,1.381,2.224702098,1,1,13,0,52,1,1,,,,,,,,,,,,,,
,,,,,,,,,,,right.png,,p,left,616ef3ce75a4007b7eb8ddfa,2021-10-21_09h21.08.330,arrow_simon_punish,2021.1.2,MacIntel,62.5,,,,,,,,,,,,,,p,1,1.313,1.644342951,1,1,13,1,53,0,1,,,,,,,,,,,,,,
,,,,,,,,,,,right.png,,p,right,616ef3ce75a4007b7eb8ddfa,2021-10-21_09h21.08.330,arrow_simon_punish,2021.1.2,MacIntel,62.5,,,,,,,,,,,,,,p,1,1.566,2.455779901,0,1,13,2,54,1,1,,,,,,,,,,,,,,
,,,,,,,,,,,right.png,,p,right,616ef3ce75a4007b7eb8ddfa,2021-10-21_09h21.08.330,arrow_simon_punish,2021.1.2,MacIntel,62.5,,,,,,,,,,,,,,p,1,1.126,1.67047557,1,1,13,3,55,1,1,,,,,,,,,,,,,,
,,,,,,,,,,,left.png,,w,left,616ef3ce75a4007b7eb8ddfa,2021-10-21_09h21.08.330,arrow_simon_punish,2021.1.2,MacIntel,62.5,,,,,,,,,,,,,,w,1,1.04,1.790594587,1,1,14,0,56,2,1,,,,,,,,,,,,,,
,,,,,,,,,,,right.png,,p,left,616ef3ce75a4007b7eb8ddfa,2021-10-21_09h21.08.330,arrow_simon_punish,2021.1.2,MacIntel,62.5,,,,,,,,,,,,,,p,1,1.335,2.426907332,1,1,14,1,57,0,1,,,,,,,,,,,,,,
,,,,,,,,,,,right.png,,p,right,616ef3ce75a4007b7eb8ddfa,2021-10-21_09h21.08.330,arrow_simon_punish,2021.1.2,MacIntel,62.5,,,,,,,,,,,,,,p,1,1.003,1.959259445,1,1,14,2,58,1,1,,,,,,,,,,,,,,
,,,,,,,,,,,left.png,,w,right,616ef3ce75a4007b7eb8ddfa,2021-10-21_09h21.08.330,arrow_simon_punish,2021.1.2,MacIntel,62.5,,,,,,,,,,,,,,w,1,1.014,1.761092123,1,1,14,3,59,3,1,,,,,,,,,,,,,,
,,,,,,,,,,,,,,,616ef3ce75a4007b7eb8ddfa,2021-10-21_09h21.08.330,arrow_simon_punish,2021.1.2,MacIntel,62.5,,,,,,,,,,,,,,,,,,,,,,,,,space,42.377,2,0,0,0,0,1,1,,,,,
,,,,,,,,,,,left.png,,w,left,616ef3ce75a4007b7eb8ddfa,2021-10-21_09h21.08.330,arrow_simon_punish,2021.1.2,MacIntel,62.5,,,,,,,,,,,,,,p,0,0.409,2.252811829,1,5,0,0,0,2,1,,,,,,,,,,,,,,
,,,,,,,,,,,right.png,,p,right,616ef3ce75a4007b7eb8ddfa,2021-10-21_09h21.08.330,arrow_simon_punish,2021.1.2,MacIntel,62.5,,,,,,,,,,,,,,p,1,0.617,1.656175964,1,5,0,1,1,1,1,,,,,,,,,,,,,,
,,,,,,,,,,,left.png,,w,left,616ef3ce75a4007b7eb8ddfa,2021-10-21_09h21.08.330,arrow_simon_punish,2021.1.2,MacIntel,62.5,,,,,,,,,,,,,,w,1,3.657,2.301813434,1,5,0,2,2,2,1,,,,,,,,,,,,,,
,,,,,,,,,,,right.png,,p,right,616ef3ce75a4007b7eb8ddfa,2021-10-21_09h21.08.330,arrow_simon_punish,2021.1.2,MacIntel,62.5,,,,,,,,,,,,,,p,1,1.107,1.922364836,1,5,0,3,3,1,1,,,,,,,,,,,,,,
,,,,,,,,,,,right.png,,p,left,616ef3ce75a4007b7eb8ddfa,2021-10-21_09h21.08.330,arrow_simon_punish,2021.1.2,MacIntel,62.5,,,,,,,,,,,,,,p,1,1.094,1.955202493,1,5,1,0,4,0,1,,,,,,,,,,,,,,
,,,,,,,,,,,right.png,,p,right,616ef3ce75a4007b7eb8ddfa,2021-10-21_09h21.08.330,arrow_simon_punish,2021.1.2,MacIntel,62.5,,,,,,,,,,,,,,p,1,1.368,2.488526581,1,5,1,1,5,1,1,,,,,,,,,,,,,,
,,,,,,,,,,,right.png,,p,left,616ef3ce75a4007b7eb8ddfa,2021-10-21_09h21.08.330,arrow_simon_punish,2021.1.2,MacIntel,62.5,,,,,,,,,,,,,,p,1,1.019,1.682364876,1,5,1,2,6,0,1,,,,,,,,,,,,,,
,,,,,,,,,,,left.png,,w,right,616ef3ce75a4007b7eb8ddfa,2021-10-21_09h21.08.330,arrow_simon_punish,2021.1.2,MacIntel,62.5,,,,,,,,,,,,,,w,1,1.053,1.639414809,1,5,1,3,7,3,1,,,,,,,,,,,,,,
,,,,,,,,,,,right.png,,p,left,616ef3ce75a4007b7eb8ddfa,2021-10-21_09h21.08.330,arrow_simon_punish,2021.1.2,MacIntel,62.5,,,,,,,,,,,,,,w,0,1.079,2.305669675,1,5,2,0,8,0,1,,,,,,,,,,,,,,
,,,,,,,,,,,left.png,,w,left,616ef3ce75a4007b7eb8ddfa,2021-10-21_09h21.08.330,arrow_simon_punish,2021.1.2,MacIntel,62.5,,,,,,,,,,,,,,w,1,1.172,2.335261703,1,5,2,1,9,2,1,,,,,,,,,,,,,,
,,,,,,,,,,,right.png,,p,right,616ef3ce75a4007b7eb8ddfa,2021-10-21_09h21.08.330,arrow_simon_punish,2021.1.2,MacIntel,62.5,,,,,,,,,,,,,,p,1,0.981,2.087113131,1,5,2,2,10,1,1,,,,,,,,,,,,,,
,,,,,,,,,,,right.png,,p,left,616ef3ce75a4007b7eb8ddfa,2021-10-21_09h21.08.330,arrow_simon_punish,2021.1.2,MacIntel,62.5,,,,,,,,,,,,,,p,1,1.541,2.162615689,0,5,2,3,11,0,1,,,,,,,,,,,,,,
,,,,,,,,,,,right.png,,p,left,616ef3ce75a4007b7eb8ddfa,2021-10-21_09h21.08.330,arrow_simon_punish,2021.1.2,MacIntel,62.5,,,,,,,,,,,,,,p,1,1.333,2.420357247,1,5,3,0,12,0,1,,,,,,,,,,,,,,
,,,,,,,,,,,left.png,,w,left,616ef3ce75a4007b7eb8ddfa,2021-10-21_09h21.08.330,arrow_simon_punish,2021.1.2,MacIntel,62.5,,,,,,,,,,,,,,w,1,1.213,2.440208701,1,5,3,1,13,2,1,,,,,,,,,,,,,,
,,,,,,,,,,,right.png,,p,left,616ef3ce75a4007b7eb8ddfa,2021-10-21_09h21.08.330,arrow_simon_punish,2021.1.2,MacIntel,62.5,,,,,,,,,,,,,,p,1,1.009,2.173831969,1,5,3,2,14,0,1,,,,,,,,,,,,,,
,,,,,,,,,,,right.png,,p,left,616ef3ce75a4007b7eb8ddfa,2021-10-21_09h21.08.330,arrow_simon_punish,2021.1.2,MacIntel,62.5,,,,,,,,,,,,,,p,1,1.058,1.999651416,1,5,3,3,15,0,1,,,,,,,,,,,,,,
,,,,,,,,,,,left.png,,w,left,616ef3ce75a4007b7eb8ddfa,2021-10-21_09h21.08.330,arrow_simon_punish,2021.1.2,MacIntel,62.5,,,,,,,,,,,,,,w,1,0.999,2.233336082,1,5,4,0,16,2,1,,,,,,,,,,,,,,
,,,,,,,,,,,left.png,,w,right,616ef3ce75a4007b7eb8ddfa,2021-10-21_09h21.08.330,arrow_simon_punish,2021.1.2,MacIntel,62.5,,,,,,,,,,,,,,w,1,0.934,1.657727203,1,5,4,1,17,3,1,,,,,,,,,,,,,,
,,,,,,,,,,,left.png,,w,right,616ef3ce75a4007b7eb8ddfa,2021-10-21_09h21.08.330,arrow_simon_punish,2021.1.2,MacIntel,62.5,,,,,,,,,,,,,,p,0,0.566,1.804421114,1,5,4,2,18,3,1,,,,,,,,,,,,,,
,,,,,,,,,,,left.png,,w,right,616ef3ce75a4007b7eb8ddfa,2021-10-21_09h21.08.330,arrow_simon_punish,2021.1.2,MacIntel,62.5,,,,,,,,,,,,,,w,1,1.134,2.266321172,1,5,4,3,19,3,1,,,,,,,,,,,,,,
,,,,,,,,,,,left.png,,w,right,616ef3ce75a4007b7eb8ddfa,2021-10-21_09h21.08.330,arrow_simon_punish,2021.1.2,MacIntel,62.5,,,,,,,,,,,,,,w,1,0.985,1.517009954,1,5,5,0,20,3,1,,,,,,,,,,,,,,
,,,,,,,,,,,right.png,,p,right,616ef3ce75a4007b7eb8ddfa,2021-10-21_09h21.08.330,arrow_simon_punish,2021.1.2,MacIntel,62.5,,,,,,,,,,,,,,p,1,1.074,2.234434243,1,5,5,1,21,1,1,,,,,,,,,,,,,,
,,,,,,,,,,,left.png,,w,right,616ef3ce75a4007b7eb8ddfa,2021-10-21_09h21.08.330,arrow_simon_punish,2021.1.2,MacIntel,62.5,,,,,,,,,,,,,,w,1,1.018,2.121220585,1,5,5,2,22,3,1,,,,,,,,,,,,,,
,,,,,,,,,,,right.png,,p,right,616ef3ce75a4007b7eb8ddfa,2021-10-21_09h21.08.330,arrow_simon_punish,2021.1.2,MacIntel,62.5,,,,,,,,,,,,,,p,1,1.23,2.458499354,1,5,5,3,23,1,1,,,,,,,,,,,,,,
,,,,,,,,,,,left.png,,w,right,616ef3ce75a4007b7eb8ddfa,2021-10-21_09h21.08.330,arrow_simon_punish,2021.1.2,MacIntel,62.5,,,,,,,,,,,,,,p,0,1.135,2.401628152,1,5,6,0,24,3,1,,,,,,,,,,,,,,
,,,,,,,,,,,left.png,,w,left,616ef3ce75a4007b7eb8ddfa,2021-10-21_09h21.08.330,arrow_simon_punish,2021.1.2,MacIntel,62.5,,,,,,,,,,,,,,w,1,1.07,1.902793444,1,5,6,1,25,2,1,,,,,,,,,,,,,,
,,,,,,,,,,,left.png,,w,right,616ef3ce75a4007b7eb8ddfa,2021-10-21_09h21.08.330,arrow_simon_punish,2021.1.2,MacIntel,62.5,,,,,,,,,,,,,,w,1,1.019,1.840926416,1,5,6,2,26,3,1,,,,,,,,,,,,,,
,,,,,,,,,,,left.png,,w,left,616ef3ce75a4007b7eb8ddfa,2021-10-21_09h21.08.330,arrow_simon_punish,2021.1.2,MacIntel,62.5,,,,,,,,,,,,,,w,1,1.089,2.125124354,1,5,6,3,27,2,1,,,,,,,,,,,,,,
,,,,,,,,,,,left.png,,w,right,616ef3ce75a4007b7eb8ddfa,2021-10-21_09h21.08.330,arrow_simon_punish,2021.1.2,MacIntel,62.5,,,,,,,,,,,,,,w,1,1.068,1.707493482,1,5,7,0,28,3,1,,,,,,,,,,,,,,
,,,,,,,,,,,right.png,,p,left,616ef3ce75a4007b7eb8ddfa,2021-10-21_09h21.08.330,arrow_simon_punish,2021.1.2,MacIntel,62.5,,,,,,,,,,,,,,p,1,0.991,1.578327607,1,5,7,1,29,0,1,,,,,,,,,,,,,,
,,,,,,,,,,,right.png,,p,right,616ef3ce75a4007b7eb8ddfa,2021-10-21_09h21.08.330,arrow_simon_punish,2021.1.2,MacIntel,62.5,,,,,,,,,,,,,,p,1,0.96,1.645468178,1,5,7,2,30,1,1,,,,,,,,,,,,,,
,,,,,,,,,,,left.png,,w,left,616ef3ce75a4007b7eb8ddfa,2021-10-21_09h21.08.330,arrow_simon_punish,2021.1.2,MacIntel,62.5,,,,,,,,,,,,,,w,1,0.982,1.515214735,1,5,7,3,31,2,1,,,,,,,,,,,,,,
,,,,,,,,,,,left.png,,w,right,616ef3ce75a4007b7eb8ddfa,2021-10-21_09h21.08.330,arrow_simon_punish,2021.1.2,MacIntel,62.5,,,,,,,,,,,,,,w,1,1.037,1.84011396,1,5,8,0,32,3,1,,,,,,,,,,,,,,
,,,,,,,,,,,right.png,,p,left,616ef3ce75a4007b7eb8ddfa,2021-10-21_09h21.08.330,arrow_simon_punish,2021.1.2,MacIntel,62.5,,,,,,,,,,,,,,p,1,1.007,1.538544906,1,5,8,1,33,0,1,,,,,,,,,,,,,,
,,,,,,,,,,,right.png,,p,right,616ef3ce75a4007b7eb8ddfa,2021-10-21_09h21.08.330,arrow_simon_punish,2021.1.2,MacIntel,62.5,,,,,,,,,,,,,,p,1,1.049,1.733964854,1,5,8,2,34,1,1,,,,,,,,,,,,,,
,,,,,,,,,,,left.png,,w,right,616ef3ce75a4007b7eb8ddfa,2021-10-21_09h21.08.330,arrow_simon_punish,2021.1.2,MacIntel,62.5,,,,,,,,,,,,,,w,1,1.306,2.427534515,1,5,8,3,35,3,1,,,,,,,,,,,,,,
,,,,,,,,,,,right.png,,p,left,616ef3ce75a4007b7eb8ddfa,2021-10-21_09h21.08.330,arrow_simon_punish,2021.1.2,MacIntel,62.5,,,,,,,,,,,,,,p,1,1.087,2.160442794,1,5,9,0,36,0,1,,,,,,,,,,,,,,
,,,,,,,,,,,right.png,,p,left,616ef3ce75a4007b7eb8ddfa,2021-10-21_09h21.08.330,arrow_simon_punish,2021.1.2,MacIntel,62.5,,,,,,,,,,,,,,p,1,0.983,1.624976966,1,5,9,1,37,0,1,,,,,,,,,,,,,,
,,,,,,,,,,,left.png,,w,left,616ef3ce75a4007b7eb8ddfa,2021-10-21_09h21.08.330,arrow_simon_punish,2021.1.2,MacIntel,62.5,,,,,,,,,,,,,,w,1,1.21,2.476486884,1,5,9,2,38,2,1,,,,,,,,,,,,,,
,,,,,,,,,,,left.png,,w,left,616ef3ce75a4007b7eb8ddfa,2021-10-21_09h21.08.330,arrow_simon_punish,2021.1.2,MacIntel,62.5,,,,,,,,,,,,,,w,1,1.025,2.123894569,1,5,9,3,39,2,1,,,,,,,,,,,,,,
,,,,,,,,,,,right.png,,p,right,616ef3ce75a4007b7eb8ddfa,2021-10-21_09h21.08.330,arrow_simon_punish,2021.1.2,MacIntel,62.5,,,,,,,,,,,,,,p,1,1.216,2.499190868,1,5,10,0,40,1,1,,,,,,,,,,,,,,
,,,,,,,,,,,left.png,,w,left,616ef3ce75a4007b7eb8ddfa,2021-10-21_09h21.08.330,arrow_simon_punish,2021.1.2,MacIntel,62.5,,,,,,,,,,,,,,w,1,0.318,1.524155141,1,5,10,1,41,2,1,,,,,,,,,,,,,,
,,,,,,,,,,,right.png,,p,right,616ef3ce75a4007b7eb8ddfa,2021-10-21_09h21.08.330,arrow_simon_punish,2021.1.2,MacIntel,62.5,,,,,,,,,,,,,,p,1,1.104,1.851247053,1,5,10,2,42,1,1,,,,,,,,,,,,,,
,,,,,,,,,,,right.png,,p,left,616ef3ce75a4007b7eb8ddfa,2021-10-21_09h21.08.330,arrow_simon_punish,2021.1.2,MacIntel,62.5,,,,,,,,,,,,,,p,1,1.052,1.762142926,1,5,10,3,43,0,1,,,,,,,,,,,,,,
,,,,,,,,,,,left.png,,w,right,616ef3ce75a4007b7eb8ddfa,2021-10-21_09h21.08.330,arrow_simon_punish,2021.1.2,MacIntel,62.5,,,,,,,,,,,,,,w,1,1.035,1.73146733,1,5,11,0,44,3,1,,,,,,,,,,,,,,
,,,,,,,,,,,left.png,,w,left,616ef3ce75a4007b7eb8ddfa,2021-10-21_09h21.08.330,arrow_simon_punish,2021.1.2,MacIntel,62.5,,,,,,,,,,,,,,w,1,1.103,2.037106832,1,5,11,1,45,2,1,,,,,,,,,,,,,,
,,,,,,,,,,,right.png,,p,left,616ef3ce75a4007b7eb8ddfa,2021-10-21_09h21.08.330,arrow_simon_punish,2021.1.2,MacIntel,62.5,,,,,,,,,,,,,,p,1,1.046,2.006041402,1,5,11,2,46,0,1,,,,,,,,,,,,,,
,,,,,,,,,,,left.png,,w,left,616ef3ce75a4007b7eb8ddfa,2021-10-21_09h21.08.330,arrow_simon_punish,2021.1.2,MacIntel,62.5,,,,,,,,,,,,,,w,1,1.207,2.435824629,1,5,11,3,47,2,1,,,,,,,,,,,,,,
,,,,,,,,,,,left.png,,w,right,616ef3ce75a4007b7eb8ddfa,2021-10-21_09h21.08.330,arrow_simon_punish,2021.1.2,MacIntel,62.5,,,,,,,,,,,,,,p,0,1.249,2.457411205,1,5,12,0,48,3,1,,,,,,,,,,,,,,
,,,,,,,,,,,left.png,,w,right,616ef3ce75a4007b7eb8ddfa,2021-10-21_09h21.08.330,arrow_simon_punish,2021.1.2,MacIntel,62.5,,,,,,,,,,,,,,w,1,1.155,2.220515824,1,5,12,1,49,3,1,,,,,,,,,,,,,,
,,,,,,,,,,,right.png,,p,left,616ef3ce75a4007b7eb8ddfa,2021-10-21_09h21.08.330,arrow_simon_punish,2021.1.2,MacIntel,62.5,,,,,,,,,,,,,,p,1,1.016,1.751621914,1,5,12,2,50,0,1,,,,,,,,,,,,,,
,,,,,,,,,,,right.png,,p,right,616ef3ce75a4007b7eb8ddfa,2021-10-21_09h21.08.330,arrow_simon_punish,2021.1.2,MacIntel,62.5,,,,,,,,,,,,,,p,1,1.024,1.763398049,1,5,12,3,51,1,1,,,,,,,,,,,,,,
,,,,,,,,,,,right.png,,p,left,616ef3ce75a4007b7eb8ddfa,2021-10-21_09h21.08.330,arrow_simon_punish,2021.1.2,MacIntel,62.5,,,,,,,,,,,,,,p,1,1.024,1.957861398,1,5,13,0,52,0,1,,,,,,,,,,,,,,
,,,,,,,,,,,right.png,,p,right,616ef3ce75a4007b7eb8ddfa,2021-10-21_09h21.08.330,arrow_simon_punish,2021.1.2,MacIntel,62.5,,,,,,,,,,,,,,p,1,1.079,2.124414691,1,5,13,1,53,1,1,,,,,,,,,,,,,,
,,,,,,,,,,,left.png,,w,left,616ef3ce75a4007b7eb8ddfa,2021-10-21_09h21.08.330,arrow_simon_punish,2021.1.2,MacIntel,62.5,,,,,,,,,,,,,,w,1,1.14,2.206233492,1,5,13,2,54,2,1,,,,,,,,,,,,,,
,,,,,,,,,,,left.png,,w,right,616ef3ce75a4007b7eb8ddfa,2021-10-21_09h21.08.330,arrow_simon_punish,2021.1.2,MacIntel,62.5,,,,,,,,,,,,,,w,1,0.994,1.632105044,1,5,13,3,55,3,1,,,,,,,,,,,,,,
,,,,,,,,,,,right.png,,p,right,616ef3ce75a4007b7eb8ddfa,2021-10-21_09h21.08.330,arrow_simon_punish,2021.1.2,MacIntel,62.5,,,,,,,,,,,,,,p,1,1.121,2.122827489,1,5,14,0,56,1,1,,,,,,,,,,,,,,
,,,,,,,,,,,right.png,,p,right,616ef3ce75a4007b7eb8ddfa,2021-10-21_09h21.08.330,arrow_simon_punish,2021.1.2,MacIntel,62.5,,,,,,,,,,,,,,p,1,1.07,1.986506978,1,5,14,1,57,1,1,,,,,,,,,,,,,,
,,,,,,,,,,,right.png,,p,right,616ef3ce75a4007b7eb8ddfa,2021-10-21_09h21.08.330,arrow_simon_punish,2021.1.2,MacIntel,62.5,,,,,,,,,,,,,,p,1,1.067,1.970467139,1,5,14,2,58,1,1,,,,,,,,,,,,,,
,,,,,,,,,,,left.png,,w,left,616ef3ce75a4007b7eb8ddfa,2021-10-21_09h21.08.330,arrow_simon_punish,2021.1.2,MacIntel,62.5,,,,,,,,,,,,,,w,1,1.037,1.830011864,1,5,14,3,59,2,1,,,,,,,,,,,,,,
,,,,,,,,,,,,,,,616ef3ce75a4007b7eb8ddfa,2021-10-21_09h21.08.330,arrow_simon_punish,2021.1.2,MacIntel,62.5,,,,,,,,,,,,,,,,,,,,,,,,,space,16.655,3,0,1,1,1,1,5,,,,,
,,,,,,,,,,,left.png,,w,right,616ef3ce75a4007b7eb8ddfa,2021-10-21_09h21.08.330,arrow_simon_punish,2021.1.2,MacIntel,62.5,,,,,,,,,,,,,,w,1,1,1.702153644,1,1,0,0,0,3,1,,,,,,,,,,,,,,
,,,,,,,,,,,right.png,,p,left,616ef3ce75a4007b7eb8ddfa,2021-10-21_09h21.08.330,arrow_simon_punish,2021.1.2,MacIntel,62.5,,,,,,,,,,,,,,p,1,1.129,2.067697056,1,1,0,1,1,0,1,,,,,,,,,,,,,,
,,,,,,,,,,,left.png,,w,left,616ef3ce75a4007b7eb8ddfa,2021-10-21_09h21.08.330,arrow_simon_punish,2021.1.2,MacIntel,62.5,,,,,,,,,,,,,,w,1,1.054,1.516112453,1,1,0,2,2,2,1,,,,,,,,,,,,,,
,,,,,,,,,,,left.png,,w,left,616ef3ce75a4007b7eb8ddfa,2021-10-21_09h21.08.330,arrow_simon_punish,2021.1.2,MacIntel,62.5,,,,,,,,,,,,,,w,1,1.131,2.362538719,1,1,0,3,3,2,1,,,,,,,,,,,,,,
,,,,,,,,,,,left.png,,w,left,616ef3ce75a4007b7eb8ddfa,2021-10-21_09h21.08.330,arrow_simon_punish,2021.1.2,MacIntel,62.5,,,,,,,,,,,,,,w,1,1.062,2.138600447,1,1,1,0,4,2,1,,,,,,,,,,,,,,
,,,,,,,,,,,left.png,,w,left,616ef3ce75a4007b7eb8ddfa,2021-10-21_09h21.08.330,arrow_simon_punish,2021.1.2,MacIntel,62.5,,,,,,,,,,,,,,w,1,1.102,2.102751152,1,1,1,1,5,2,1,,,,,,,,,,,,,,
,,,,,,,,,,,left.png,,w,right,616ef3ce75a4007b7eb8ddfa,2021-10-21_09h21.08.330,arrow_simon_punish,2021.1.2,MacIntel,62.5,,,,,,,,,,,,,,w,1,1.033,1.50044603,1,1,1,2,6,3,1,,,,,,,,,,,,,,
,,,,,,,,,,,left.png,,w,left,616ef3ce75a4007b7eb8ddfa,2021-10-21_09h21.08.330,arrow_simon_punish,2021.1.2,MacIntel,62.5,,,,,,,,,,,,,,w,1,1.252,2.494779252,1,1,1,3,7,2,1,,,,,,,,,,,,,,
,,,,,,,,,,,right.png,,p,left,616ef3ce75a4007b7eb8ddfa,2021-10-21_09h21.08.330,arrow_simon_punish,2021.1.2,MacIntel,62.5,,,,,,,,,,,,,,w,0,1.259,2.471497607,1,1,2,0,8,0,1,,,,,,,,,,,,,,
,,,,,,,,,,,right.png,,p,right,616ef3ce75a4007b7eb8ddfa,2021-10-21_09h21.08.330,arrow_simon_punish,2021.1.2,MacIntel,62.5,,,,,,,,,,,,,,p,1,1.051,1.822671069,1,1,2,1,9,1,1,,,,,,,,,,,,,,
,,,,,,,,,,,left.png,,w,right,616ef3ce75a4007b7eb8ddfa,2021-10-21_09h21.08.330,arrow_simon_punish,2021.1.2,MacIntel,62.5,,,,,,,,,,,,,,w,1,1.208,2.157189957,1,1,2,2,10,3,1,,,,,,,,,,,,,,
,,,,,,,,,,,right.png,,p,left,616ef3ce75a4007b7eb8ddfa,2021-10-21_09h21.08.330,arrow_simon_punish,2021.1.2,MacIntel,62.5,,,,,,,,,,,,,,p,1,1.033,1.810799852,1,1,2,3,11,0,1,,,,,,,,,,,,,,
,,,,,,,,,,,left.png,,w,left,616ef3ce75a4007b7eb8ddfa,2021-10-21_09h21.08.330,arrow_simon_punish,2021.1.2,MacIntel,62.5,,,,,,,,,,,,,,w,1,0.949,1.844968388,1,1,3,0,12,2,1,,,,,,,,,,,,,,
,,,,,,,,,,,left.png,,w,left,616ef3ce75a4007b7eb8ddfa,2021-10-21_09h21.08.330,arrow_simon_punish,2021.1.2,MacIntel,62.5,,,,,,,,,,,,,,w,1,1.05,1.597825853,1,1,3,1,13,2,1,,,,,,,,,,,,,,
,,,,,,,,,,,left.png,,w,right,616ef3ce75a4007b7eb8ddfa,2021-10-21_09h21.08.330,arrow_simon_punish,2021.1.2,MacIntel,62.5,,,,,,,,,,,,,,p,0,1.127,2.312618174,1,1,3,2,14,3,1,,,,,,,,,,,,,,
,,,,,,,,,,,left.png,,w,left,616ef3ce75a4007b7eb8ddfa,2021-10-21_09h21.08.330,arrow_simon_punish,2021.1.2,MacIntel,62.5,,,,,,,,,,,,,,w,1,1.169,2.293430711,1,1,3,3,15,2,1,,,,,,,,,,,,,,
,,,,,,,,,,,right.png,,p,right,616ef3ce75a4007b7eb8ddfa,2021-10-21_09h21.08.330,arrow_simon_punish,2021.1.2,MacIntel,62.5,,,,,,,,,,,,,,p,1,1.415,2.424490632,0,1,4,0,16,1,1,,,,,,,,,,,,,,
,,,,,,,,,,,left.png,,w,left,616ef3ce75a4007b7eb8ddfa,2021-10-21_09h21.08.330,arrow_simon_punish,2021.1.2,MacIntel,62.5,,,,,,,,,,,,,,w,1,1.023,1.82497701,1,1,4,1,17,2,1,,,,,,,,,,,,,,
,,,,,,,,,,,right.png,,p,left,616ef3ce75a4007b7eb8ddfa,2021-10-21_09h21.08.330,arrow_simon_punish,2021.1.2,MacIntel,62.5,,,,,,,,,,,,,,p,1,1.057,1.543058246,1,1,4,2,18,0,1,,,,,,,,,,,,,,
,,,,,,,,,,,right.png,,p,left,616ef3ce75a4007b7eb8ddfa,2021-10-21_09h21.08.330,arrow_simon_punish,2021.1.2,MacIntel,62.5,,,,,,,,,,,,,,p,1,1.038,1.724255318,1,1,4,3,19,0,1,,,,,,,,,,,,,,
,,,,,,,,,,,right.png,,p,left,616ef3ce75a4007b7eb8ddfa,2021-10-21_09h21.08.330,arrow_simon_punish,2021.1.2,MacIntel,62.5,,,,,,,,,,,,,,p,1,1.133,2.090442499,1,1,5,0,20,0,1,,,,,,,,,,,,,,
,,,,,,,,,,,left.png,,w,right,616ef3ce75a4007b7eb8ddfa,2021-10-21_09h21.08.330,arrow_simon_punish,2021.1.2,MacIntel,62.5,,,,,,,,,,,,,,w,1,1.151,2.259398561,1,1,5,1,21,3,1,,,,,,,,,,,,,,
,,,,,,,,,,,right.png,,p,left,616ef3ce75a4007b7eb8ddfa,2021-10-21_09h21.08.330,arrow_simon_punish,2021.1.2,MacIntel,62.5,,,,,,,,,,,,,,p,1,1.267,2.376950606,1,1,5,2,22,0,1,,,,,,,,,,,,,,
,,,,,,,,,,,left.png,,w,right,616ef3ce75a4007b7eb8ddfa,2021-10-21_09h21.08.330,arrow_simon_punish,2021.1.2,MacIntel,62.5,,,,,,,,,,,,,,w,1,1.055,1.837962978,1,1,5,3,23,3,1,,,,,,,,,,,,,,
,,,,,,,,,,,right.png,,p,right,616ef3ce75a4007b7eb8ddfa,2021-10-21_09h21.08.330,arrow_simon_punish,2021.1.2,MacIntel,62.5,,,,,,,,,,,,,,p,1,1.051,1.758580484,1,1,6,0,24,1,1,,,,,,,,,,,,,,
,,,,,,,,,,,right.png,,p,left,616ef3ce75a4007b7eb8ddfa,2021-10-21_09h21.08.330,arrow_simon_punish,2021.1.2,MacIntel,62.5,,,,,,,,,,,,,,p,1,1.003,1.571764344,1,1,6,1,25,0,1,,,,,,,,,,,,,,
,,,,,,,,,,,right.png,,p,right,616ef3ce75a4007b7eb8ddfa,2021-10-21_09h21.08.330,arrow_simon_punish,2021.1.2,MacIntel,62.5,,,,,,,,,,,,,,p,1,1.035,2.157413353,1,1,6,2,26,1,1,,,,,,,,,,,,,,
,,,,,,,,,,,right.png,,p,right,616ef3ce75a4007b7eb8ddfa,2021-10-21_09h21.08.330,arrow_simon_punish,2021.1.2,MacIntel,62.5,,,,,,,,,,,,,,p,1,1.052,2.234059076,1,1,6,3,27,1,1,,,,,,,,,,,,,,
,,,,,,,,,,,left.png,,w,right,616ef3ce75a4007b7eb8ddfa,2021-10-21_09h21.08.330,arrow_simon_punish,2021.1.2,MacIntel,62.5,,,,,,,,,,,,,,p,0,1.191,2.437465407,1,1,7,0,28,3,1,,,,,,,,,,,,,,
,,,,,,,,,,,left.png,,w,left,616ef3ce75a4007b7eb8ddfa,2021-10-21_09h21.08.330,arrow_simon_punish,2021.1.2,MacIntel,62.5,,,,,,,,,,,,,,w,1,1.006,1.642538767,1,1,7,1,29,2,1,,,,,,,,,,,,,,
,,,,,,,,,,,right.png,,p,left,616ef3ce75a4007b7eb8ddfa,2021-10-21_09h21.08.330,arrow_simon_punish,2021.1.2,MacIntel,62.5,,,,,,,,,,,,,,p,1,1.124,1.723176182,1,1,7,2,30,0,1,,,,,,,,,,,,,,
,,,,,,,,,,,right.png,,p,left,616ef3ce75a4007b7eb8ddfa,2021-10-21_09h21.08.330,arrow_simon_punish,2021.1.2,MacIntel,62.5,,,,,,,,,,,,,,p,1,1.206,2.288864499,1,1,7,3,31,0,1,,,,,,,,,,,,,,
,,,,,,,,,,,left.png,,w,left,616ef3ce75a4007b7eb8ddfa,2021-10-21_09h21.08.330,arrow_simon_punish,2021.1.2,MacIntel,62.5,,,,,,,,,,,,,,w,1,1.027,1.83699683,1,1,8,0,32,2,1,,,,,,,,,,,,,,
,,,,,,,,,,,right.png,,p,left,616ef3ce75a4007b7eb8ddfa,2021-10-21_09h21.08.330,arrow_simon_punish,2021.1.2,MacIntel,62.5,,,,,,,,,,,,,,p,1,1.159,2.203221793,1,1,8,1,33,0,1,,,,,,,,,,,,,,
,,,,,,,,,,,right.png,,p,left,616ef3ce75a4007b7eb8ddfa,2021-10-21_09h21.08.330,arrow_simon_punish,2021.1.2,MacIntel,62.5,,,,,,,,,,,,,,p,1,1.391,2.49759034,1,1,8,2,34,0,1,,,,,,,,,,,,,,
,,,,,,,,,,,left.png,,w,right,616ef3ce75a4007b7eb8ddfa,2021-10-21_09h21.08.330,arrow_simon_punish,2021.1.2,MacIntel,62.5,,,,,,,,,,,,,,w,1,1.069,1.641031012,1,1,8,3,35,3,1,,,,,,,,,,,,,,
,,,,,,,,,,,right.png,,p,right,616ef3ce75a4007b7eb8ddfa,2021-10-21_09h21.08.330,arrow_simon_punish,2021.1.2,MacIntel,62.5,,,,,,,,,,,,,,p,1,1.235,2.38947809,1,1,9,0,36,1,1,,,,,,,,,,,,,,
,,,,,,,,,,,left.png,,w,left,616ef3ce75a4007b7eb8ddfa,2021-10-21_09h21.08.330,arrow_simon_punish,2021.1.2,MacIntel,62.5,,,,,,,,,,,,,,w,1,1.024,1.905143352,1,1,9,1,37,2,1,,,,,,,,,,,,,,
,,,,,,,,,,,left.png,,w,left,616ef3ce75a4007b7eb8ddfa,2021-10-21_09h21.08.330,arrow_simon_punish,2021.1.2,MacIntel,62.5,,,,,,,,,,,,,,w,1,1.034,1.773105615,1,1,9,2,38,2,1,,,,,,,,,,,,,,
,,,,,,,,,,,left.png,,w,left,616ef3ce75a4007b7eb8ddfa,2021-10-21_09h21.08.330,arrow_simon_punish,2021.1.2,MacIntel,62.5,,,,,,,,,,,,,,w,1,1.19,2.015218455,1,1,9,3,39,2,1,,,,,,,,,,,,,,
,,,,,,,,,,,right.png,,p,right,616ef3ce75a4007b7eb8ddfa,2021-10-21_09h21.08.330,arrow_simon_punish,2021.1.2,MacIntel,62.5,,,,,,,,,,,,,,p,1,1.101,2.262909848,1,1,10,0,40,1,1,,,,,,,,,,,,,,
,,,,,,,,,,,right.png,,p,left,616ef3ce75a4007b7eb8ddfa,2021-10-21_09h21.08.330,arrow_simon_punish,2021.1.2,MacIntel,62.5,,,,,,,,,,,,,,p,1,1.101,1.95414276,1,1,10,1,41,0,1,,,,,,,,,,,,,,
,,,,,,,,,,,left.png,,w,right,616ef3ce75a4007b7eb8ddfa,2021-10-21_09h21.08.330,arrow_simon_punish,2021.1.2,MacIntel,62.5,,,,,,,,,,,,,,w,1,0.869,1.992720108,1,1,10,2,42,3,1,,,,,,,,,,,,,,
,,,,,,,,,,,left.png,,w,right,616ef3ce75a4007b7eb8ddfa,2021-10-21_09h21.08.330,arrow_simon_punish,2021.1.2,MacIntel,62.5,,,,,,,,,,,,,,w,1,1.069,1.723261315,1,1,10,3,43,3,1,,,,,,,,,,,,,,
,,,,,,,,,,,left.png,,w,right,616ef3ce75a4007b7eb8ddfa,2021-10-21_09h21.08.330,arrow_simon_punish,2021.1.2,MacIntel,62.5,,,,,,,,,,,,,,w,1,1.226,2.381300295,1,1,11,0,44,3,1,,,,,,,,,,,,,,
,,,,,,,,,,,right.png,,p,left,616ef3ce75a4007b7eb8ddfa,2021-10-21_09h21.08.330,arrow_simon_punish,2021.1.2,MacIntel,62.5,,,,,,,,,,,,,,p,1,1.033,1.563326417,1,1,11,1,45,0,1,,,,,,,,,,,,,,
,,,,,,,,,,,right.png,,p,right,616ef3ce75a4007b7eb8ddfa,2021-10-21_09h21.08.330,arrow_simon_punish,2021.1.2,MacIntel,62.5,,,,,,,,,,,,,,p,1,0.966,1.534597726,1,1,11,2,46,1,1,,,,,,,,,,,,,,
,,,,,,,,,,,right.png,,p,right,616ef3ce75a4007b7eb8ddfa,2021-10-21_09h21.08.330,arrow_simon_punish,2021.1.2,MacIntel,62.5,,,,,,,,,,,,,,p,1,1.057,2.108107534,1,1,11,3,47,1,1,,,,,,,,,,,,,,
,,,,,,,,,,,left.png,,w,right,616ef3ce75a4007b7eb8ddfa,2021-10-21_09h21.08.330,arrow_simon_punish,2021.1.2,MacIntel,62.5,,,,,,,,,,,,,,w,1,1.138,2.344923899,1,1,12,0,48,3,1,,,,,,,,,,,,,,
,,,,,,,,,,,left.png,,w,right,616ef3ce75a4007b7eb8ddfa,2021-10-21_09h21.08.330,arrow_simon_punish,2021.1.2,MacIntel,62.5,,,,,,,,,,,,,,w,1,1.026,1.622528802,1,1,12,1,49,3,1,,,,,,,,,,,,,,
,,,,,,,,,,,left.png,,w,right,616ef3ce75a4007b7eb8ddfa,2021-10-21_09h21.08.330,arrow_simon_punish,2021.1.2,MacIntel,62.5,,,,,,,,,,,,,,w,1,1.039,1.854164491,1,1,12,2,50,3,1,,,,,,,,,,,,,,
,,,,,,,,,,,right.png,,p,right,616ef3ce75a4007b7eb8ddfa,2021-10-21_09h21.08.330,arrow_simon_punish,2021.1.2,MacIntel,62.5,,,,,,,,,,,,,,p,1,1.168,2.386660352,1,1,12,3,51,1,1,,,,,,,,,,,,,,
,,,,,,,,,,,left.png,,w,left,616ef3ce75a4007b7eb8ddfa,2021-10-21_09h21.08.330,arrow_simon_punish,2021.1.2,MacIntel,62.5,,,,,,,,,,,,,,w,1,0.974,1.671370346,1,1,13,0,52,2,1,,,,,,,,,,,,,,
,,,,,,,,,,,right.png,,p,right,616ef3ce75a4007b7eb8ddfa,2021-10-21_09h21.08.330,arrow_simon_punish,2021.1.2,MacIntel,62.5,,,,,,,,,,,,,,p,1,0.989,1.664223126,1,1,13,1,53,1,1,,,,,,,,,,,,,,
,,,,,,,,,,,right.png,,p,right,616ef3ce75a4007b7eb8ddfa,2021-10-21_09h21.08.330,arrow_simon_punish,2021.1.2,MacIntel,62.5,,,,,,,,,,,,,,p,1,1.036,1.81662484,1,1,13,2,54,1,1,,,,,,,,,,,,,,
,,,,,,,,,,,right.png,,p,right,616ef3ce75a4007b7eb8ddfa,2021-10-21_09h21.08.330,arrow_simon_punish,2021.1.2,MacIntel,62.5,,,,,,,,,,,,,,p,1,0.972,1.560548304,1,1,13,3,55,1,1,,,,,,,,,,,,,,
,,,,,,,,,,,left.png,,w,right,616ef3ce75a4007b7eb8ddfa,2021-10-21_09h21.08.330,arrow_simon_punish,2021.1.2,MacIntel,62.5,,,,,,,,,,,,,,w,1,1.001,1.945353145,1,1,14,0,56,3,1,,,,,,,,,,,,,,
,,,,,,,,,,,right.png,,p,right,616ef3ce75a4007b7eb8ddfa,2021-10-21_09h21.08.330,arrow_simon_punish,2021.1.2,MacIntel,62.5,,,,,,,,,,,,,,p,1,1.056,1.89513712,1,1,14,1,57,1,1,,,,,,,,,,,,,,
,,,,,,,,,,,right.png,,p,left,616ef3ce75a4007b7eb8ddfa,2021-10-21_09h21.08.330,arrow_simon_punish,2021.1.2,MacIntel,62.5,,,,,,,,,,,,,,p,1,1.083,2.109936855,1,1,14,2,58,0,1,,,,,,,,,,,,,,
,,,,,,,,,,,right.png,,p,right,616ef3ce75a4007b7eb8ddfa,2021-10-21_09h21.08.330,arrow_simon_punish,2021.1.2,MacIntel,62.5,,,,,,,,,,,,,,p,1,1.244,2.124680507,1,1,14,3,59,1,1,,,,,,,,,,,,,,
,,,,,,,,,,,,,,,616ef3ce75a4007b7eb8ddfa,2021-10-21_09h21.08.330,arrow_simon_punish,2021.1.2,MacIntel,62.5,,,,,,,,,,,,,,,,,,,,,,,,,space,5.236,4,1,0,2,0,1,1,,,,,
,,,,,,,,,,,right.png,,p,right,616ef3ce75a4007b7eb8ddfa,2021-10-21_09h21.08.330,arrow_simon_punish,2021.1.2,MacIntel,62.5,,,,,,,,,,,,,,p,1,1.038,1.718926873,1,5,0,0,0,1,1,,,,,,,,,,,,,,
,,,,,,,,,,,left.png,,w,left,616ef3ce75a4007b7eb8ddfa,2021-10-21_09h21.08.330,arrow_simon_punish,2021.1.2,MacIntel,62.5,,,,,,,,,,,,,,w,1,1.069,1.796640398,1,5,0,1,1,2,1,,,,,,,,,,,,,,
,,,,,,,,,,,right.png,,p,right,616ef3ce75a4007b7eb8ddfa,2021-10-21_09h21.08.330,arrow_simon_punish,2021.1.2,MacIntel,62.5,,,,,,,,,,,,,,p,1,1.015,1.690230302,1,5,0,2,2,1,1,,,,,,,,,,,,,,
,,,,,,,,,,,left.png,,w,left,616ef3ce75a4007b7eb8ddfa,2021-10-21_09h21.08.330,arrow_simon_punish,2021.1.2,MacIntel,62.5,,,,,,,,,,,,,,w,1,0.936,1.855443422,1,5,0,3,3,2,1,,,,,,,,,,,,,,
,,,,,,,,,,,left.png,,w,right,616ef3ce75a4007b7eb8ddfa,2021-10-21_09h21.08.330,arrow_simon_punish,2021.1.2,MacIntel,62.5,,,,,,,,,,,,,,w,1,1.342,2.420474086,1,5,1,0,4,3,1,,,,,,,,,,,,,,
,,,,,,,,,,,left.png,,w,left,616ef3ce75a4007b7eb8ddfa,2021-10-21_09h21.08.330,arrow_simon_punish,2021.1.2,MacIntel,62.5,,,,,,,,,,,,,,w,1,1.208,2.09373593,1,5,1,1,5,2,1,,,,,,,,,,,,,,
,,,,,,,,,,,right.png,,p,right,616ef3ce75a4007b7eb8ddfa,2021-10-21_09h21.08.330,arrow_simon_punish,2021.1.2,MacIntel,62.5,,,,,,,,,,,,,,p,1,1.041,1.667728453,1,5,1,2,6,1,1,,,,,,,,,,,,,,
,,,,,,,,,,,left.png,,w,left,616ef3ce75a4007b7eb8ddfa,2021-10-21_09h21.08.330,arrow_simon_punish,2021.1.2,MacIntel,62.5,,,,,,,,,,,,,,w,1,1.067,2.13455442,1,5,1,3,7,2,1,,,,,,,,,,,,,,
,,,,,,,,,,,left.png,,w,right,616ef3ce75a4007b7eb8ddfa,2021-10-21_09h21.08.330,arrow_simon_punish,2021.1.2,MacIntel,62.5,,,,,,,,,,,,,,w,1,0.936,2.064432497,1,5,2,0,8,3,1,,,,,,,,,,,,,,
,,,,,,,,,,,right.png,,p,left,616ef3ce75a4007b7eb8ddfa,2021-10-21_09h21.08.330,arrow_simon_punish,2021.1.2,MacIntel,62.5,,,,,,,,,,,,,,p,1,1.209,2.297775597,1,5,2,1,9,0,1,,,,,,,,,,,,,,
,,,,,,,,,,,right.png,,p,left,616ef3ce75a4007b7eb8ddfa,2021-10-21_09h21.08.330,arrow_simon_punish,2021.1.2,MacIntel,62.5,,,,,,,,,,,,,,p,1,1.074,2.097027711,1,5,2,2,10,0,1,,,,,,,,,,,,,,
,,,,,,,,,,,right.png,,p,right,616ef3ce75a4007b7eb8ddfa,2021-10-21_09h21.08.330,arrow_simon_punish,2021.1.2,MacIntel,62.5,,,,,,,,,,,,,,p,1,1.049,2.035258958,1,5,2,3,11,1,1,,,,,,,,,,,,,,
,,,,,,,,,,,right.png,,p,right,616ef3ce75a4007b7eb8ddfa,2021-10-21_09h21.08.330,arrow_simon_punish,2021.1.2,MacIntel,62.5,,,,,,,,,,,,,,p,1,1.056,1.722989794,1,5,3,0,12,1,1,,,,,,,,,,,,,,
,,,,,,,,,,,right.png,,p,right,616ef3ce75a4007b7eb8ddfa,2021-10-21_09h21.08.330,arrow_simon_punish,2021.1.2,MacIntel,62.5,,,,,,,,,,,,,,p,1,1.034,1.652637572,1,5,3,1,13,1,1,,,,,,,,,,,,,,
,,,,,,,,,,,left.png,,w,right,616ef3ce75a4007b7eb8ddfa,2021-10-21_09h21.08.330,arrow_simon_punish,2021.1.2,MacIntel,62.5,,,,,,,,,,,,,,w,1,1.117,2.159663497,1,5,3,2,14,3,1,,,,,,,,,,,,,,
,,,,,,,,,,,right.png,,p,right,616ef3ce75a4007b7eb8ddfa,2021-10-21_09h21.08.330,arrow_simon_punish,2021.1.2,MacIntel,62.5,,,,,,,,,,,,,,p,1,1.037,2.011092762,1,5,3,3,15,1,1,,,,,,,,,,,,,,
,,,,,,,,,,,left.png,,w,left,616ef3ce75a4007b7eb8ddfa,2021-10-21_09h21.08.330,arrow_simon_punish,2021.1.2,MacIntel,62.5,,,,,,,,,,,,,,w,1,0.966,1.558269025,1,5,4,0,16,2,1,,,,,,,,,,,,,,
,,,,,,,,,,,right.png,,p,left,616ef3ce75a4007b7eb8ddfa,2021-10-21_09h21.08.330,arrow_simon_punish,2021.1.2,MacIntel,62.5,,,,,,,,,,,,,,p,1,0.991,1.631561994,1,5,4,1,17,0,1,,,,,,,,,,,,,,
,,,,,,,,,,,right.png,,p,left,616ef3ce75a4007b7eb8ddfa,2021-10-21_09h21.08.330,arrow_simon_punish,2021.1.2,MacIntel,62.5,,,,,,,,,,,,,,p,1,1.121,2.173648227,1,5,4,2,18,0,1,,,,,,,,,,,,,,
,,,,,,,,,,,right.png,,p,right,616ef3ce75a4007b7eb8ddfa,2021-10-21_09h21.08.330,arrow_simon_punish,2021.1.2,MacIntel,62.5,,,,,,,,,,,,,,p,1,1.035,1.659005323,1,5,4,3,19,1,1,,,,,,,,,,,,,,
,,,,,,,,,,,left.png,,w,right,616ef3ce75a4007b7eb8ddfa,2021-10-21_09h21.08.330,arrow_simon_punish,2021.1.2,MacIntel,62.5,,,,,,,,,,,,,,w,1,1.102,1.665139609,1,5,5,0,20,3,1,,,,,,,,,,,,,,
,,,,,,,,,,,left.png,,w,right,616ef3ce75a4007b7eb8ddfa,2021-10-21_09h21.08.330,arrow_simon_punish,2021.1.2,MacIntel,62.5,,,,,,,,,,,,,,w,1,0.951,1.724366064,1,5,5,1,21,3,1,,,,,,,,,,,,,,
,,,,,,,,,,,left.png,,w,left,616ef3ce75a4007b7eb8ddfa,2021-10-21_09h21.08.330,arrow_simon_punish,2021.1.2,MacIntel,62.5,,,,,,,,,,,,,,w,1,0.957,1.932251663,1,5,5,2,22,2,1,,,,,,,,,,,,,,
,,,,,,,,,,,left.png,,w,right,616ef3ce75a4007b7eb8ddfa,2021-10-21_09h21.08.330,arrow_simon_punish,2021.1.2,MacIntel,62.5,,,,,,,,,,,,,,w,1,1.017,1.590114362,1,5,5,3,23,3,1,,,,,,,,,,,,,,
,,,,,,,,,,,right.png,,p,right,616ef3ce75a4007b7eb8ddfa,2021-10-21_09h21.08.330,arrow_simon_punish,2021.1.2,MacIntel,62.5,,,,,,,,,,,,,,p,1,1,1.840260069,1,5,6,0,24,1,1,,,,,,,,,,,,,,
,,,,,,,,,,,right.png,,p,right,616ef3ce75a4007b7eb8ddfa,2021-10-21_09h21.08.330,arrow_simon_punish,2021.1.2,MacIntel,62.5,,,,,,,,,,,,,,p,1,1.122,2.241221082,1,5,6,1,25,1,1,,,,,,,,,,,,,,
,,,,,,,,,,,right.png,,p,right,616ef3ce75a4007b7eb8ddfa,2021-10-21_09h21.08.330,arrow_simon_punish,2021.1.2,MacIntel,62.5,,,,,,,,,,,,,,p,1,1.336,2.486819981,1,5,6,2,26,1,1,,,,,,,,,,,,,,
,,,,,,,,,,,left.png,,w,left,616ef3ce75a4007b7eb8ddfa,2021-10-21_09h21.08.330,arrow_simon_punish,2021.1.2,MacIntel,62.5,,,,,,,,,,,,,,w,1,0.975,2.012890001,1,5,6,3,27,2,1,,,,,,,,,,,,,,
,,,,,,,,,,,left.png,,w,right,616ef3ce75a4007b7eb8ddfa,2021-10-21_09h21.08.330,arrow_simon_punish,2021.1.2,MacIntel,62.5,,,,,,,,,,,,,,w,1,1.034,1.978174227,1,5,7,0,28,3,1,,,,,,,,,,,,,,
,,,,,,,,,,,right.png,,p,right,616ef3ce75a4007b7eb8ddfa,2021-10-21_09h21.08.330,arrow_simon_punish,2021.1.2,MacIntel,62.5,,,,,,,,,,,,,,p,1,1.29,2.467080138,1,5,7,1,29,1,1,,,,,,,,,,,,,,
,,,,,,,,,,,right.png,,p,left,616ef3ce75a4007b7eb8ddfa,2021-10-21_09h21.08.330,arrow_simon_punish,2021.1.2,MacIntel,62.5,,,,,,,,,,,,,,p,1,1.09,2.11315333,1,5,7,2,30,0,1,,,,,,,,,,,,,,
,,,,,,,,,,,right.png,,p,right,616ef3ce75a4007b7eb8ddfa,2021-10-21_09h21.08.330,arrow_simon_punish,2021.1.2,MacIntel,62.5,,,,,,,,,,,,,,p,1,1.192,1.83450531,1,5,7,3,31,1,1,,,,,,,,,,,,,,
,,,,,,,,,,,left.png,,w,left,616ef3ce75a4007b7eb8ddfa,2021-10-21_09h21.08.330,arrow_simon_punish,2021.1.2,MacIntel,62.5,,,,,,,,,,,,,,w,1,1.023,1.59695003,1,5,8,0,32,2,1,,,,,,,,,,,,,,
,,,,,,,,,,,right.png,,p,left,616ef3ce75a4007b7eb8ddfa,2021-10-21_09h21.08.330,arrow_simon_punish,2021.1.2,MacIntel,62.5,,,,,,,,,,,,,,p,1,1.224,2.286951222,1,5,8,1,33,0,1,,,,,,,,,,,,,,
,,,,,,,,,,,right.png,,p,left,616ef3ce75a4007b7eb8ddfa,2021-10-21_09h21.08.330,arrow_simon_punish,2021.1.2,MacIntel,62.5,,,,,,,,,,,,,,p,1,1.135,2.198372317,1,5,8,2,34,0,1,,,,,,,,,,,,,,
,,,,,,,,,,,left.png,,w,right,616ef3ce75a4007b7eb8ddfa,2021-10-21_09h21.08.330,arrow_simon_punish,2021.1.2,MacIntel,62.5,,,,,,,,,,,,,,w,1,0.921,1.607029638,1,5,8,3,35,3,1,,,,,,,,,,,,,,
,,,,,,,,,,,right.png,,p,left,616ef3ce75a4007b7eb8ddfa,2021-10-21_09h21.08.330,arrow_simon_punish,2021.1.2,MacIntel,62.5,,,,,,,,,,,,,,p,1,1.334,2.457680735,1,5,9,0,36,0,1,,,,,,,,,,,,,,
,,,,,,,,,,,left.png,,w,left,616ef3ce75a4007b7eb8ddfa,2021-10-21_09h21.08.330,arrow_simon_punish,2021.1.2,MacIntel,62.5,,,,,,,,,,,,,,w,1,1.222,2.346125124,1,5,9,1,37,2,1,,,,,,,,,,,,,,
,,,,,,,,,,,right.png,,p,left,616ef3ce75a4007b7eb8ddfa,2021-10-21_09h21.08.330,arrow_simon_punish,2021.1.2,MacIntel,62.5,,,,,,,,,,,,,,p,1,1.247,2.393224722,1,5,9,2,38,0,1,,,,,,,,,,,,,,
,,,,,,,,,,,right.png,,p,left,616ef3ce75a4007b7eb8ddfa,2021-10-21_09h21.08.330,arrow_simon_punish,2021.1.2,MacIntel,62.5,,,,,,,,,,,,,,p,1,0.968,1.62097433,1,5,9,3,39,0,1,,,,,,,,,,,,,,
,,,,,,,,,,,right.png,,p,left,616ef3ce75a4007b7eb8ddfa,2021-10-21_09h21.08.330,arrow_simon_punish,2021.1.2,MacIntel,62.5,,,,,,,,,,,,,,w,0,1.12,2.311400298,1,5,10,0,40,0,1,,,,,,,,,,,,,,
,,,,,,,,,,,left.png,,w,right,616ef3ce75a4007b7eb8ddfa,2021-10-21_09h21.08.330,arrow_simon_punish,2021.1.2,MacIntel,62.5,,,,,,,,,,,,,,w,1,1.055,1.582096846,1,5,10,1,41,3,1,,,,,,,,,,,,,,
,,,,,,,,,,,left.png,,w,left,616ef3ce75a4007b7eb8ddfa,2021-10-21_09h21.08.330,arrow_simon_punish,2021.1.2,MacIntel,62.5,,,,,,,,,,,,,,w,1,1.036,1.640117531,1,5,10,2,42,2,1,,,,,,,,,,,,,,
,,,,,,,,,,,left.png,,w,right,616ef3ce75a4007b7eb8ddfa,2021-10-21_09h21.08.330,arrow_simon_punish,2021.1.2,MacIntel,62.5,,,,,,,,,,,,,,w,1,1.024,2.00230593,1,5,10,3,43,3,1,,,,,,,,,,,,,,
,,,,,,,,,,,right.png,,p,right,616ef3ce75a4007b7eb8ddfa,2021-10-21_09h21.08.330,arrow_simon_punish,2021.1.2,MacIntel,62.5,,,,,,,,,,,,,,p,1,1.069,2.224337592,1,5,11,0,44,1,1,,,,,,,,,,,,,,
,,,,,,,,,,,left.png,,w,left,616ef3ce75a4007b7eb8ddfa,2021-10-21_09h21.08.330,arrow_simon_punish,2021.1.2,MacIntel,62.5,,,,,,,,,,,,,,w,1,1.168,2.35906845,1,5,11,1,45,2,1,,,,,,,,,,,,,,
,,,,,,,,,,,right.png,,p,left,616ef3ce75a4007b7eb8ddfa,2021-10-21_09h21.08.330,arrow_simon_punish,2021.1.2,MacIntel,62.5,,,,,,,,,,,,,,p,1,0.982,1.813222033,1,5,11,2,46,0,1,,,,,,,,,,,,,,
,,,,,,,,,,,right.png,,p,right,616ef3ce75a4007b7eb8ddfa,2021-10-21_09h21.08.330,arrow_simon_punish,2021.1.2,MacIntel,62.5,,,,,,,,,,,,,,p,1,1.136,2.311572142,1,5,11,3,47,1,1,,,,,,,,,,,,,,
,,,,,,,,,,,right.png,,p,left,616ef3ce75a4007b7eb8ddfa,2021-10-21_09h21.08.330,arrow_simon_punish,2021.1.2,MacIntel,62.5,,,,,,,,,,,,,,p,1,1.092,1.777786576,1,5,12,0,48,0,1,,,,,,,,,,,,,,
,,,,,,,,,,,left.png,,w,right,616ef3ce75a4007b7eb8ddfa,2021-10-21_09h21.08.330,arrow_simon_punish,2021.1.2,MacIntel,62.5,,,,,,,,,,,,,,w,1,1.256,2.381403068,1,5,12,1,49,3,1,,,,,,,,,,,,,,
,,,,,,,,,,,left.png,,w,right,616ef3ce75a4007b7eb8ddfa,2021-10-21_09h21.08.330,arrow_simon_punish,2021.1.2,MacIntel,62.5,,,,,,,,,,,,,,w,1,0.975,1.676957979,1,5,12,2,50,3,1,,,,,,,,,,,,,,
,,,,,,,,,,,left.png,,w,right,616ef3ce75a4007b7eb8ddfa,2021-10-21_09h21.08.330,arrow_simon_punish,2021.1.2,MacIntel,62.5,,,,,,,,,,,,,,w,1,1.102,2.239707482,1,5,12,3,51,3,1,,,,,,,,,,,,,,
,,,,,,,,,,,left.png,,w,right,616ef3ce75a4007b7eb8ddfa,2021-10-21_09h21.08.330,arrow_simon_punish,2021.1.2,MacIntel,62.5,,,,,,,,,,,,,,w,1,1.054,2.066977266,1,5,13,0,52,3,1,,,,,,,,,,,,,,
,,,,,,,,,,,left.png,,w,left,616ef3ce75a4007b7eb8ddfa,2021-10-21_09h21.08.330,arrow_simon_punish,2021.1.2,MacIntel,62.5,,,,,,,,,,,,,,w,1,1.233,2.345106643,1,5,13,1,53,2,1,,,,,,,,,,,,,,
,,,,,,,,,,,left.png,,w,left,616ef3ce75a4007b7eb8ddfa,2021-10-21_09h21.08.330,arrow_simon_punish,2021.1.2,MacIntel,62.5,,,,,,,,,,,,,,w,1,1.035,1.849017774,1,5,13,2,54,2,1,,,,,,,,,,,,,,
,,,,,,,,,,,left.png,,w,right,616ef3ce75a4007b7eb8ddfa,2021-10-21_09h21.08.330,arrow_simon_punish,2021.1.2,MacIntel,62.5,,,,,,,,,,,,,,w,1,1.137,2.211303929,1,5,13,3,55,3,1,,,,,,,,,,,,,,
,,,,,,,,,,,right.png,,p,left,616ef3ce75a4007b7eb8ddfa,2021-10-21_09h21.08.330,arrow_simon_punish,2021.1.2,MacIntel,62.5,,,,,,,,,,,,,,p,1,1.034,1.620242551,1,5,14,0,56,0,1,,,,,,,,,,,,,,
,,,,,,,,,,,left.png,,w,left,616ef3ce75a4007b7eb8ddfa,2021-10-21_09h21.08.330,arrow_simon_punish,2021.1.2,MacIntel,62.5,,,,,,,,,,,,,,w,1,1.29,2.478335358,1,5,14,1,57,2,1,,,,,,,,,,,,,,
,,,,,,,,,,,right.png,,p,left,616ef3ce75a4007b7eb8ddfa,2021-10-21_09h21.08.330,arrow_simon_punish,2021.1.2,MacIntel,62.5,,,,,,,,,,,,,,p,1,0.987,1.655380232,1,5,14,2,58,0,1,,,,,,,,,,,,,,
,,,,,,,,,,,left.png,,w,left,616ef3ce75a4007b7eb8ddfa,2021-10-21_09h21.08.330,arrow_simon_punish,2021.1.2,MacIntel,62.5,,,,,,,,,,,,,,w,1,0.992,1.683186865,1,5,14,3,59,2,1,,,,,,,,,,,,,,
,,,,,,,,,,,,,,,616ef3ce75a4007b7eb8ddfa,2021-10-21_09h21.08.330,arrow_simon_punish,2021.1.2,MacIntel,62.5,,,,,,,,,,,,,,,,,,,,,,,,,space,1.499,5,1,1,3,1,1,5,,,,,
,,,,,,,,,,,right.png,,p,left,616ef3ce75a4007b7eb8ddfa,2021-10-21_09h21.08.330,arrow_simon_punish,2021.1.2,MacIntel,62.5,,,,,,,,,,,,,,w,0,1.092,2.268547437,1,1,0,0,0,0,1,,,,,,,,,,,,,,
,,,,,,,,,,,left.png,,w,right,616ef3ce75a4007b7eb8ddfa,2021-10-21_09h21.08.330,arrow_simon_punish,2021.1.2,MacIntel,62.5,,,,,,,,,,,,,,w,1,0.868,1.899782145,1,1,0,1,1,3,1,,,,,,,,,,,,,,
,,,,,,,,,,,left.png,,w,left,616ef3ce75a4007b7eb8ddfa,2021-10-21_09h21.08.330,arrow_simon_punish,2021.1.2,MacIntel,62.5,,,,,,,,,,,,,,w,1,1.087,1.891689605,1,1,0,2,2,2,1,,,,,,,,,,,,,,
,,,,,,,,,,,left.png,,w,right,616ef3ce75a4007b7eb8ddfa,2021-10-21_09h21.08.330,arrow_simon_punish,2021.1.2,MacIntel,62.5,,,,,,,,,,,,,,p,0,1.216,2.381803152,1,1,0,3,3,3,1,,,,,,,,,,,,,,
,,,,,,,,,,,left.png,,w,right,616ef3ce75a4007b7eb8ddfa,2021-10-21_09h21.08.330,arrow_simon_punish,2021.1.2,MacIntel,62.5,,,,,,,,,,,,,,p,0,1.069,1.701540996,1,1,1,0,4,3,1,,,,,,,,,,,,,,
,,,,,,,,,,,left.png,,w,left,616ef3ce75a4007b7eb8ddfa,2021-10-21_09h21.08.330,arrow_simon_punish,2021.1.2,MacIntel,62.5,,,,,,,,,,,,,,w,1,1.32,2.355534592,1,1,1,1,5,2,1,,,,,,,,,,,,,,
,,,,,,,,,,,left.png,,w,right,616ef3ce75a4007b7eb8ddfa,2021-10-21_09h21.08.330,arrow_simon_punish,2021.1.2,MacIntel,62.5,,,,,,,,,,,,,,w,1,1.1,1.71881645,1,1,1,2,6,3,1,,,,,,,,,,,,,,
,,,,,,,,,,,left.png,,w,left,616ef3ce75a4007b7eb8ddfa,2021-10-21_09h21.08.330,arrow_simon_punish,2021.1.2,MacIntel,62.5,,,,,,,,,,,,,,w,1,1.333,2.471446379,1,1,1,3,7,2,1,,,,,,,,,,,,,,
,,,,,,,,,,,right.png,,p,right,616ef3ce75a4007b7eb8ddfa,2021-10-21_09h21.08.330,arrow_simon_punish,2021.1.2,MacIntel,62.5,,,,,,,,,,,,,,p,1,1.376,2.486118056,1,1,2,0,8,1,1,,,,,,,,,,,,,,
,,,,,,,,,,,left.png,,w,left,616ef3ce75a4007b7eb8ddfa,2021-10-21_09h21.08.330,arrow_simon_punish,2021.1.2,MacIntel,62.5,,,,,,,,,,,,,,w,1,1.156,2.08440639,1,1,2,1,9,2,1,,,,,,,,,,,,,,
,,,,,,,,,,,right.png,,p,left,616ef3ce75a4007b7eb8ddfa,2021-10-21_09h21.08.330,arrow_simon_punish,2021.1.2,MacIntel,62.5,,,,,,,,,,,,,,p,1,1.281,2.305448887,1,1,2,2,10,0,1,,,,,,,,,,,,,,
,,,,,,,,,,,right.png,,p,left,616ef3ce75a4007b7eb8ddfa,2021-10-21_09h21.08.330,arrow_simon_punish,2021.1.2,MacIntel,62.5,,,,,,,,,,,,,,p,1,1.223,2.326200958,1,1,2,3,11,0,1,,,,,,,,,,,,,,
,,,,,,,,,,,right.png,,p,right,616ef3ce75a4007b7eb8ddfa,2021-10-21_09h21.08.330,arrow_simon_punish,2021.1.2,MacIntel,62.5,,,,,,,,,,,,,,p,1,1.207,2.356788647,1,1,3,0,12,1,1,,,,,,,,,,,,,,
,,,,,,,,,,,right.png,,p,left,616ef3ce75a4007b7eb8ddfa,2021-10-21_09h21.08.330,arrow_simon_punish,2021.1.2,MacIntel,62.5,,,,,,,,,,,,,,p,1,1.08,1.795573097,1,1,3,1,13,0,1,,,,,,,,,,,,,,
,,,,,,,,,,,left.png,,w,left,616ef3ce75a4007b7eb8ddfa,2021-10-21_09h21.08.330,arrow_simon_punish,2021.1.2,MacIntel,62.5,,,,,,,,,,,,,,w,1,1.035,1.89935363,1,1,3,2,14,2,1,,,,,,,,,,,,,,
,,,,,,,,,,,left.png,,w,left,616ef3ce75a4007b7eb8ddfa,2021-10-21_09h21.08.330,arrow_simon_punish,2021.1.2,MacIntel,62.5,,,,,,,,,,,,,,w,1,1.236,2.408921208,1,1,3,3,15,2,1,,,,,,,,,,,,,,
,,,,,,,,,,,right.png,,p,right,616ef3ce75a4007b7eb8ddfa,2021-10-21_09h21.08.330,arrow_simon_punish,2021.1.2,MacIntel,62.5,,,,,,,,,,,,,,p,1,1.058,1.889987417,1,1,4,0,16,1,1,,,,,,,,,,,,,,
,,,,,,,,,,,left.png,,w,right,616ef3ce75a4007b7eb8ddfa,2021-10-21_09h21.08.330,arrow_simon_punish,2021.1.2,MacIntel,62.5,,,,,,,,,,,,,,w,1,1.189,2.242353165,1,1,4,1,17,3,1,,,,,,,,,,,,,,
,,,,,,,,,,,right.png,,p,right,616ef3ce75a4007b7eb8ddfa,2021-10-21_09h21.08.330,arrow_simon_punish,2021.1.2,MacIntel,62.5,,,,,,,,,,,,,,p,1,1.066,1.84215656,1,1,4,2,18,1,1,,,,,,,,,,,,,,
,,,,,,,,,,,right.png,,p,left,616ef3ce75a4007b7eb8ddfa,2021-10-21_09h21.08.330,arrow_simon_punish,2021.1.2,MacIntel,62.5,,,,,,,,,,,,,,p,1,1.019,1.733352877,1,1,4,3,19,0,1,,,,,,,,,,,,,,
,,,,,,,,,,,right.png,,p,left,616ef3ce75a4007b7eb8ddfa,2021-10-21_09h21.08.330,arrow_simon_punish,2021.1.2,MacIntel,62.5,,,,,,,,,,,,,,p,1,1.021,1.571999172,1,1,5,0,20,0,1,,,,,,,,,,,,,,
,,,,,,,,,,,right.png,,p,right,616ef3ce75a4007b7eb8ddfa,2021-10-21_09h21.08.330,arrow_simon_punish,2021.1.2,MacIntel,62.5,,,,,,,,,,,,,,p,1,1.352,2.466309646,1,1,5,1,21,1,1,,,,,,,,,,,,,,
,,,,,,,,,,,left.png,,w,left,616ef3ce75a4007b7eb8ddfa,2021-10-21_09h21.08.330,arrow_simon_punish,2021.1.2,MacIntel,62.5,,,,,,,,,,,,,,w,1,1.609,2.347613555,1,1,5,2,22,2,1,,,,,,,,,,,,,,
,,,,,,,,,,,right.png,,p,right,616ef3ce75a4007b7eb8ddfa,2021-10-21_09h21.08.330,arrow_simon_punish,2021.1.2,MacIntel,62.5,,,,,,,,,,,,,,p,1,1.224,2.385746122,1,1,5,3,23,1,1,,,,,,,,,,,,,,
,,,,,,,,,,,right.png,,p,right,616ef3ce75a4007b7eb8ddfa,2021-10-21_09h21.08.330,arrow_simon_punish,2021.1.2,MacIntel,62.5,,,,,,,,,,,,,,p,1,0.968,1.504567824,1,1,6,0,24,1,1,,,,,,,,,,,,,,
,,,,,,,,,,,right.png,,p,right,616ef3ce75a4007b7eb8ddfa,2021-10-21_09h21.08.330,arrow_simon_punish,2021.1.2,MacIntel,62.5,,,,,,,,,,,,,,p,1,0.991,1.643020256,1,1,6,1,25,1,1,,,,,,,,,,,,,,
,,,,,,,,,,,left.png,,w,left,616ef3ce75a4007b7eb8ddfa,2021-10-21_09h21.08.330,arrow_simon_punish,2021.1.2,MacIntel,62.5,,,,,,,,,,,,,,w,1,1.202,2.43587436,1,1,6,2,26,2,1,,,,,,,,,,,,,,
,,,,,,,,,,,right.png,,p,right,616ef3ce75a4007b7eb8ddfa,2021-10-21_09h21.08.330,arrow_simon_punish,2021.1.2,MacIntel,62.5,,,,,,,,,,,,,,p,1,1.07,2.060947715,1,1,6,3,27,1,1,,,,,,,,,,,,,,
,,,,,,,,,,,left.png,,w,right,616ef3ce75a4007b7eb8ddfa,2021-10-21_09h21.08.330,arrow_simon_punish,2021.1.2,MacIntel,62.5,,,,,,,,,,,,,,w,1,1.151,2.436115768,1,1,7,0,28,3,1,,,,,,,,,,,,,,
,,,,,,,,,,,right.png,,p,right,616ef3ce75a4007b7eb8ddfa,2021-10-21_09h21.08.330,arrow_simon_punish,2021.1.2,MacIntel,62.5,,,,,,,,,,,,,,p,1,1.324,2.449713447,1,1,7,1,29,1,1,,,,,,,,,,,,,,
,,,,,,,,,,,left.png,,w,left,616ef3ce75a4007b7eb8ddfa,2021-10-21_09h21.08.330,arrow_simon_punish,2021.1.2,MacIntel,62.5,,,,,,,,,,,,,,w,1,1.056,1.730942649,1,1,7,2,30,2,1,,,,,,,,,,,,,,
,,,,,,,,,,,right.png,,p,left,616ef3ce75a4007b7eb8ddfa,2021-10-21_09h21.08.330,arrow_simon_punish,2021.1.2,MacIntel,62.5,,,,,,,,,,,,,,p,1,1.023,1.730731304,1,1,7,3,31,0,1,,,,,,,,,,,,,,
,,,,,,,,,,,left.png,,w,right,616ef3ce75a4007b7eb8ddfa,2021-10-21_09h21.08.330,arrow_simon_punish,2021.1.2,MacIntel,62.5,,,,,,,,,,,,,,w,1,0.867,1.577162367,1,1,8,0,32,3,1,,,,,,,,,,,,,,
,,,,,,,,,,,left.png,,w,right,616ef3ce75a4007b7eb8ddfa,2021-10-21_09h21.08.330,arrow_simon_punish,2021.1.2,MacIntel,62.5,,,,,,,,,,,,,,w,1,1.068,1.881739032,1,1,8,1,33,3,1,,,,,,,,,,,,,,
,,,,,,,,,,,left.png,,w,left,616ef3ce75a4007b7eb8ddfa,2021-10-21_09h21.08.330,arrow_simon_punish,2021.1.2,MacIntel,62.5,,,,,,,,,,,,,,w,1,1.07,1.662143995,1,1,8,2,34,2,1,,,,,,,,,,,,,,
,,,,,,,,,,,right.png,,p,left,616ef3ce75a4007b7eb8ddfa,2021-10-21_09h21.08.330,arrow_simon_punish,2021.1.2,MacIntel,62.5,,,,,,,,,,,,,,p,1,1.17,2.066603184,1,1,8,3,35,0,1,,,,,,,,,,,,,,
,,,,,,,,,,,right.png,,p,left,616ef3ce75a4007b7eb8ddfa,2021-10-21_09h21.08.330,arrow_simon_punish,2021.1.2,MacIntel,62.5,,,,,,,,,,,,,,p,1,1.123,2.044409926,1,1,9,0,36,0,1,,,,,,,,,,,,,,
,,,,,,,,,,,right.png,,p,left,616ef3ce75a4007b7eb8ddfa,2021-10-21_09h21.08.330,arrow_simon_punish,2021.1.2,MacIntel,62.5,,,,,,,,,,,,,,w,0,1.137,2.333424218,1,1,9,1,37,0,1,,,,,,,,,,,,,,
,,,,,,,,,,,left.png,,w,left,616ef3ce75a4007b7eb8ddfa,2021-10-21_09h21.08.330,arrow_simon_punish,2021.1.2,MacIntel,62.5,,,,,,,,,,,,,,w,1,1.007,2.043992855,1,1,9,2,38,2,1,,,,,,,,,,,,,,
,,,,,,,,,,,left.png,,w,left,616ef3ce75a4007b7eb8ddfa,2021-10-21_09h21.08.330,arrow_simon_punish,2021.1.2,MacIntel,62.5,,,,,,,,,,,,,,w,1,1.058,1.921542851,1,1,9,3,39,2,1,,,,,,,,,,,,,,
,,,,,,,,,,,right.png,,p,left,616ef3ce75a4007b7eb8ddfa,2021-10-21_09h21.08.330,arrow_simon_punish,2021.1.2,MacIntel,62.5,,,,,,,,,,,,,,p,1,1.005,1.772118142,1,1,10,0,40,0,1,,,,,,,,,,,,,,
,,,,,,,,,,,right.png,,p,right,616ef3ce75a4007b7eb8ddfa,2021-10-21_09h21.08.330,arrow_simon_punish,2021.1.2,MacIntel,62.5,,,,,,,,,,,,,,p,1,1.089,1.88873094,1,1,10,1,41,1,1,,,,,,,,,,,,,,
,,,,,,,,,,,right.png,,p,left,616ef3ce75a4007b7eb8ddfa,2021-10-21_09h21.08.330,arrow_simon_punish,2021.1.2,MacIntel,62.5,,,,,,,,,,,,,,p,1,1.118,1.973736916,1,1,10,2,42,0,1,,,,,,,,,,,,,,
,,,,,,,,,,,right.png,,p,left,616ef3ce75a4007b7eb8ddfa,2021-10-21_09h21.08.330,arrow_simon_punish,2021.1.2,MacIntel,62.5,,,,,,,,,,,,,,p,1,1.056,1.543239385,1,1,10,3,43,0,1,,,,,,,,,,,,,,
,,,,,,,,,,,right.png,,p,right,616ef3ce75a4007b7eb8ddfa,2021-10-21_09h21.08.330,arrow_simon_punish,2021.1.2,MacIntel,62.5,,,,,,,,,,,,,,p,1,1.082,2.038360565,1,1,11,0,44,1,1,,,,,,,,,,,,,,
,,,,,,,,,,,right.png,,p,left,616ef3ce75a4007b7eb8ddfa,2021-10-21_09h21.08.330,arrow_simon_punish,2021.1.2,MacIntel,62.5,,,,,,,,,,,,,,p,1,1.468,2.478203178,0,1,11,1,45,0,1,,,,,,,,,,,,,,
,,,,,,,,,,,left.png,,w,right,616ef3ce75a4007b7eb8ddfa,2021-10-21_09h21.08.330,arrow_simon_punish,2021.1.2,MacIntel,62.5,,,,,,,,,,,,,,w,1,1.014,1.901784907,1,1,11,2,46,3,1,,,,,,,,,,,,,,
,,,,,,,,,,,left.png,,w,left,616ef3ce75a4007b7eb8ddfa,2021-10-21_09h21.08.330,arrow_simon_punish,2021.1.2,MacIntel,62.5,,,,,,,,,,,,,,w,1,1.068,1.749468815,1,1,11,3,47,2,1,,,,,,,,,,,,,,
,,,,,,,,,,,left.png,,w,right,616ef3ce75a4007b7eb8ddfa,2021-10-21_09h21.08.330,arrow_simon_punish,2021.1.2,MacIntel,62.5,,,,,,,,,,,,,,w,1,1.235,2.302768009,1,1,12,0,48,3,1,,,,,,,,,,,,,,
,,,,,,,,,,,right.png,,p,right,616ef3ce75a4007b7eb8ddfa,2021-10-21_09h21.08.330,arrow_simon_punish,2021.1.2,MacIntel,62.5,,,,,,,,,,,,,,p,1,1.022,1.560572423,1,1,12,1,49,1,1,,,,,,,,,,,,,,
,,,,,,,,,,,left.png,,w,right,616ef3ce75a4007b7eb8ddfa,2021-10-21_09h21.08.330,arrow_simon_punish,2021.1.2,MacIntel,62.5,,,,,,,,,,,,,,w,1,1.024,1.623018717,1,1,12,2,50,3,1,,,,,,,,,,,,,,
,,,,,,,,,,,right.png,,p,right,616ef3ce75a4007b7eb8ddfa,2021-10-21_09h21.08.330,arrow_simon_punish,2021.1.2,MacIntel,62.5,,,,,,,,,,,,,,p,1,1.168,2.253305066,1,1,12,3,51,1,1,,,,,,,,,,,,,,
,,,,,,,,,,,left.png,,w,right,616ef3ce75a4007b7eb8ddfa,2021-10-21_09h21.08.330,arrow_simon_punish,2021.1.2,MacIntel,62.5,,,,,,,,,,,,,,w,1,1.186,2.310811241,1,1,13,0,52,3,1,,,,,,,,,,,,,,
,,,,,,,,,,,right.png,,p,left,616ef3ce75a4007b7eb8ddfa,2021-10-21_09h21.08.330,arrow_simon_punish,2021.1.2,MacIntel,62.5,,,,,,,,,,,,,,p,1,1.035,1.760698413,1,1,13,1,53,0,1,,,,,,,,,,,,,,
,,,,,,,,,,,left.png,,w,right,616ef3ce75a4007b7eb8ddfa,2021-10-21_09h21.08.330,arrow_simon_punish,2021.1.2,MacIntel,62.5,,,,,,,,,,,,,,w,1,1.124,2.06911099,1,1,13,2,54,3,1,,,,,,,,,,,,,,
,,,,,,,,,,,right.png,,p,right,616ef3ce75a4007b7eb8ddfa,2021-10-21_09h21.08.330,arrow_simon_punish,2021.1.2,MacIntel,62.5,,,,,,,,,,,,,,p,1,1.034,1.784050828,1,1,13,3,55,1,1,,,,,,,,,,,,,,
,,,,,,,,,,,left.png,,w,right,616ef3ce75a4007b7eb8ddfa,2021-10-21_09h21.08.330,arrow_simon_punish,2021.1.2,MacIntel,62.5,,,,,,,,,,,,,,w,1,1.07,1.749838551,1,1,14,0,56,3,1,,,,,,,,,,,,,,
,,,,,,,,,,,left.png,,w,left,616ef3ce75a4007b7eb8ddfa,2021-10-21_09h21.08.330,arrow_simon_punish,2021.1.2,MacIntel,62.5,,,,,,,,,,,,,,w,1,1.07,1.846197594,1,1,14,1,57,2,1,,,,,,,,,,,,,,
,,,,,,,,,,,left.png,,w,left,616ef3ce75a4007b7eb8ddfa,2021-10-21_09h21.08.330,arrow_simon_punish,2021.1.2,MacIntel,62.5,,,,,,,,,,,,,,w,1,1.137,2.071269043,1,1,14,2,58,2,1,,,,,,,,,,,,,,
,,,,,,,,,,,left.png,,w,right,616ef3ce75a4007b7eb8ddfa,2021-10-21_09h21.08.330,arrow_simon_punish,2021.1.2,MacIntel,62.5,,,,,,,,,,,,,,w,1,1.077,1.886888004,1,1,14,3,59,3,1,,,,,,,,,,,,,,
,,,,,,,,,,,,,,,616ef3ce75a4007b7eb8ddfa,2021-10-21_09h21.08.330,arrow_simon_punish,2021.1.2,MacIntel,62.5,,,,,,,,,,,,,,,,,,,,,,,,,space,26.487,6,2,0,4,0,1,1,,,,,
,,,,,,,,,,,left.png,,w,left,616ef3ce75a4007b7eb8ddfa,2021-10-21_09h21.08.330,arrow_simon_punish,2021.1.2,MacIntel,62.5,,,,,,,,,,,,,,w,1,1.139,2.200875705,1,5,0,0,0,2,1,,,,,,,,,,,,,,
,,,,,,,,,,,right.png,,p,right,616ef3ce75a4007b7eb8ddfa,2021-10-21_09h21.08.330,arrow_simon_punish,2021.1.2,MacIntel,62.5,,,,,,,,,,,,,,p,1,1.052,1.585444942,1,5,0,1,1,1,1,,,,,,,,,,,,,,
,,,,,,,,,,,right.png,,p,right,616ef3ce75a4007b7eb8ddfa,2021-10-21_09h21.08.330,arrow_simon_punish,2021.1.2,MacIntel,62.5,,,,,,,,,,,,,,p,1,0.136,2.109170722,1,5,0,2,2,1,1,,,,,,,,,,,,,,
,,,,,,,,,,,left.png,,w,right,616ef3ce75a4007b7eb8ddfa,2021-10-21_09h21.08.330,arrow_simon_punish,2021.1.2,MacIntel,62.5,,,,,,,,,,,,,,w,1,1.991,1.806373653,1,5,0,3,3,3,1,,,,,,,,,,,,,,
,,,,,,,,,,,left.png,,w,left,616ef3ce75a4007b7eb8ddfa,2021-10-21_09h21.08.330,arrow_simon_punish,2021.1.2,MacIntel,62.5,,,,,,,,,,,,,,w,1,1.214,2.106340369,1,5,1,0,4,2,1,,,,,,,,,,,,,,
,,,,,,,,,,,right.png,,p,left,616ef3ce75a4007b7eb8ddfa,2021-10-21_09h21.08.330,arrow_simon_punish,2021.1.2,MacIntel,62.5,,,,,,,,,,,,,,p,1,1.103,2.052711521,1,5,1,1,5,0,1,,,,,,,,,,,,,,
,,,,,,,,,,,right.png,,p,right,616ef3ce75a4007b7eb8ddfa,2021-10-21_09h21.08.330,arrow_simon_punish,2021.1.2,MacIntel,62.5,,,,,,,,,,,,,,p,1,1.147,2.305746276,1,5,1,2,6,1,1,,,,,,,,,,,,,,
,,,,,,,,,,,right.png,,p,left,616ef3ce75a4007b7eb8ddfa,2021-10-21_09h21.08.330,arrow_simon_punish,2021.1.2,MacIntel,62.5,,,,,,,,,,,,,,p,1,1.036,1.515675164,1,5,1,3,7,0,1,,,,,,,,,,,,,,
,,,,,,,,,,,right.png,,p,right,616ef3ce75a4007b7eb8ddfa,2021-10-21_09h21.08.330,arrow_simon_punish,2021.1.2,MacIntel,62.5,,,,,,,,,,,,,,p,1,1.035,1.891807488,1,5,2,0,8,1,1,,,,,,,,,,,,,,
,,,,,,,,,,,right.png,,p,right,616ef3ce75a4007b7eb8ddfa,2021-10-21_09h21.08.330,arrow_simon_punish,2021.1.2,MacIntel,62.5,,,,,,,,,,,,,,p,1,1.29,2.320468117,1,5,2,1,9,1,1,,,,,,,,,,,,,,
,,,,,,,,,,,right.png,,p,left,616ef3ce75a4007b7eb8ddfa,2021-10-21_09h21.08.330,arrow_simon_punish,2021.1.2,MacIntel,62.5,,,,,,,,,,,,,,p,1,0.991,1.711525381,1,5,2,2,10,0,1,,,,,,,,,,,,,,
,,,,,,,,,,,right.png,,p,right,616ef3ce75a4007b7eb8ddfa,2021-10-21_09h21.08.330,arrow_simon_punish,2021.1.2,MacIntel,62.5,,,,,,,,,,,,,,p,1,1.056,1.719571696,1,5,2,3,11,1,1,,,,,,,,,,,,,,
,,,,,,,,,,,left.png,,w,left,616ef3ce75a4007b7eb8ddfa,2021-10-21_09h21.08.330,arrow_simon_punish,2021.1.2,MacIntel,62.5,,,,,,,,,,,,,,w,1,1.533,2.428023722,0,5,3,0,12,2,1,,,,,,,,,,,,,,
,,,,,,,,,,,right.png,,p,left,616ef3ce75a4007b7eb8ddfa,2021-10-21_09h21.08.330,arrow_simon_punish,2021.1.2,MacIntel,62.5,,,,,,,,,,,,,,p,1,1.371,2.356326759,1,5,3,1,13,0,1,,,,,,,,,,,,,,
,,,,,,,,,,,right.png,,p,left,616ef3ce75a4007b7eb8ddfa,2021-10-21_09h21.08.330,arrow_simon_punish,2021.1.2,MacIntel,62.5,,,,,,,,,,,,,,p,1,1.192,2.215675376,1,5,3,2,14,0,1,,,,,,,,,,,,,,
,,,,,,,,,,,left.png,,w,right,616ef3ce75a4007b7eb8ddfa,2021-10-21_09h21.08.330,arrow_simon_punish,2021.1.2,MacIntel,62.5,,,,,,,,,,,,,,w,1,1.101,2.152333525,1,5,3,3,15,3,1,,,,,,,,,,,,,,
,,,,,,,,,,,left.png,,w,left,616ef3ce75a4007b7eb8ddfa,2021-10-21_09h21.08.330,arrow_simon_punish,2021.1.2,MacIntel,62.5,,,,,,,,,,,,,,w,1,1.204,2.284822937,1,5,4,0,16,2,1,,,,,,,,,,,,,,
,,,,,,,,,,,left.png,,w,right,616ef3ce75a4007b7eb8ddfa,2021-10-21_09h21.08.330,arrow_simon_punish,2021.1.2,MacIntel,62.5,,,,,,,,,,,,,,w,1,1.107,2.037474638,1,5,4,1,17,3,1,,,,,,,,,,,,,,
,,,,,,,,,,,left.png,,w,right,616ef3ce75a4007b7eb8ddfa,2021-10-21_09h21.08.330,arrow_simon_punish,2021.1.2,MacIntel,62.5,,,,,,,,,,,,,,w,1,1.088,1.98530798,1,5,4,2,18,3,1,,,,,,,,,,,,,,
,,,,,,,,,,,left.png,,w,right,616ef3ce75a4007b7eb8ddfa,2021-10-21_09h21.08.330,arrow_simon_punish,2021.1.2,MacIntel,62.5,,,,,,,,,,,,,,w,1,1.035,1.732472102,1,5,4,3,19,3,1,,,,,,,,,,,,,,
,,,,,,,,,,,left.png,,w,right,616ef3ce75a4007b7eb8ddfa,2021-10-21_09h21.08.330,arrow_simon_punish,2021.1.2,MacIntel,62.5,,,,,,,,,,,,,,w,1,1.136,2.091337316,1,5,5,0,20,3,1,,,,,,,,,,,,,,
,,,,,,,,,,,left.png,,w,right,616ef3ce75a4007b7eb8ddfa,2021-10-21_09h21.08.330,arrow_simon_punish,2021.1.2,MacIntel,62.5,,,,,,,,,,,,,,w,1,1.057,1.5458648,1,5,5,1,21,3,1,,,,,,,,,,,,,,
,,,,,,,,,,,left.png,,w,right,616ef3ce75a4007b7eb8ddfa,2021-10-21_09h21.08.330,arrow_simon_punish,2021.1.2,MacIntel,62.5,,,,,,,,,,,,,,w,1,1.138,2.113454218,1,5,5,2,22,3,1,,,,,,,,,,,,,,
,,,,,,,,,,,left.png,,w,left,616ef3ce75a4007b7eb8ddfa,2021-10-21_09h21.08.330,arrow_simon_punish,2021.1.2,MacIntel,62.5,,,,,,,,,,,,,,w,1,1.043,1.795094328,1,5,5,3,23,2,1,,,,,,,,,,,,,,
,,,,,,,,,,,right.png,,p,right,616ef3ce75a4007b7eb8ddfa,2021-10-21_09h21.08.330,arrow_simon_punish,2021.1.2,MacIntel,62.5,,,,,,,,,,,,,,p,1,1.123,2.126541207,1,5,6,0,24,1,1,,,,,,,,,,,,,,
,,,,,,,,,,,right.png,,p,left,616ef3ce75a4007b7eb8ddfa,2021-10-21_09h21.08.330,arrow_simon_punish,2021.1.2,MacIntel,62.5,,,,,,,,,,,,,,p,1,1.012,1.69519571,1,5,6,1,25,0,1,,,,,,,,,,,,,,
,,,,,,,,,,,left.png,,w,right,616ef3ce75a4007b7eb8ddfa,2021-10-21_09h21.08.330,arrow_simon_punish,2021.1.2,MacIntel,62.5,,,,,,,,,,,,,,w,1,1.073,1.900963144,1,5,6,2,26,3,1,,,,,,,,,,,,,,
,,,,,,,,,,,left.png,,w,left,616ef3ce75a4007b7eb8ddfa,2021-10-21_09h21.08.330,arrow_simon_punish,2021.1.2,MacIntel,62.5,,,,,,,,,,,,,,w,1,1.035,1.555636564,1,5,6,3,27,2,1,,,,,,,,,,,,,,
,,,,,,,,,,,right.png,,p,right,616ef3ce75a4007b7eb8ddfa,2021-10-21_09h21.08.330,arrow_simon_punish,2021.1.2,MacIntel,62.5,,,,,,,,,,,,,,p,1,0.936,1.785754687,1,5,7,0,28,1,1,,,,,,,,,,,,,,
,,,,,,,,,,,left.png,,w,right,616ef3ce75a4007b7eb8ddfa,2021-10-21_09h21.08.330,arrow_simon_punish,2021.1.2,MacIntel,62.5,,,,,,,,,,,,,,w,1,1.09,2.011471704,1,5,7,1,29,3,1,,,,,,,,,,,,,,
,,,,,,,,,,,left.png,,w,right,616ef3ce75a4007b7eb8ddfa,2021-10-21_09h21.08.330,arrow_simon_punish,2021.1.2,MacIntel,62.5,,,,,,,,,,,,,,w,1,0.999,1.97725288,1,5,7,2,30,3,1,,,,,,,,,,,,,,
,,,,,,,,,,,left.png,,w,right,616ef3ce75a4007b7eb8ddfa,2021-10-21_09h21.08.330,arrow_simon_punish,2021.1.2,MacIntel,62.5,,,,,,,,,,,,,,w,1,1.113,2.167254105,1,5,7,3,31,3,1,,,,,,,,,,,,,,
,,,,,,,,,,,right.png,,p,left,616ef3ce75a4007b7eb8ddfa,2021-10-21_09h21.08.330,arrow_simon_punish,2021.1.2,MacIntel,62.5,,,,,,,,,,,,,,p,1,1.036,1.834823949,1,5,8,0,32,0,1,,,,,,,,,,,,,,
,,,,,,,,,,,right.png,,p,left,616ef3ce75a4007b7eb8ddfa,2021-10-21_09h21.08.330,arrow_simon_punish,2021.1.2,MacIntel,62.5,,,,,,,,,,,,,,p,1,1.274,2.299282354,1,5,8,1,33,0,1,,,,,,,,,,,,,,
,,,,,,,,,,,left.png,,w,right,616ef3ce75a4007b7eb8ddfa,2021-10-21_09h21.08.330,arrow_simon_punish,2021.1.2,MacIntel,62.5,,,,,,,,,,,,,,w,1,1.001,1.911008978,1,5,8,2,34,3,1,,,,,,,,,,,,,,
,,,,,,,,,,,right.png,,p,right,616ef3ce75a4007b7eb8ddfa,2021-10-21_09h21.08.330,arrow_simon_punish,2021.1.2,MacIntel,62.5,,,,,,,,,,,,,,p,1,1.103,2.097762937,1,5,8,3,35,1,1,,,,,,,,,,,,,,
,,,,,,,,,,,right.png,,p,left,616ef3ce75a4007b7eb8ddfa,2021-10-21_09h21.08.330,arrow_simon_punish,2021.1.2,MacIntel,62.5,,,,,,,,,,,,,,p,1,1.14,2.108021869,1,5,9,0,36,0,1,,,,,,,,,,,,,,
,,,,,,,,,,,right.png,,p,left,616ef3ce75a4007b7eb8ddfa,2021-10-21_09h21.08.330,arrow_simon_punish,2021.1.2,MacIntel,62.5,,,,,,,,,,,,,,w,0,1.225,2.417498339,1,5,9,1,37,0,1,,,,,,,,,,,,,,
,,,,,,,,,,,left.png,,w,left,616ef3ce75a4007b7eb8ddfa,2021-10-21_09h21.08.330,arrow_simon_punish,2021.1.2,MacIntel,62.5,,,,,,,,,,,,,,w,1,0.95,1.796965667,1,5,9,2,38,2,1,,,,,,,,,,,,,,
,,,,,,,,,,,left.png,,w,left,616ef3ce75a4007b7eb8ddfa,2021-10-21_09h21.08.330,arrow_simon_punish,2021.1.2,MacIntel,62.5,,,,,,,,,,,,,,w,1,1.071,2.226603583,1,5,9,3,39,2,1,,,,,,,,,,,,,,
,,,,,,,,,,,right.png,,p,right,616ef3ce75a4007b7eb8ddfa,2021-10-21_09h21.08.330,arrow_simon_punish,2021.1.2,MacIntel,62.5,,,,,,,,,,,,,,p,1,1.07,2.117538466,1,5,10,0,40,1,1,,,,,,,,,,,,,,
,,,,,,,,,,,right.png,,p,right,616ef3ce75a4007b7eb8ddfa,2021-10-21_09h21.08.330,arrow_simon_punish,2021.1.2,MacIntel,62.5,,,,,,,,,,,,,,p,1,1.101,2.057272959,1,5,10,1,41,1,1,,,,,,,,,,,,,,
,,,,,,,,,,,left.png,,w,right,616ef3ce75a4007b7eb8ddfa,2021-10-21_09h21.08.330,arrow_simon_punish,2021.1.2,MacIntel,62.5,,,,,,,,,,,,,,w,1,1.3,2.420161799,1,5,10,2,42,3,1,,,,,,,,,,,,,,
,,,,,,,,,,,right.png,,p,left,616ef3ce75a4007b7eb8ddfa,2021-10-21_09h21.08.330,arrow_simon_punish,2021.1.2,MacIntel,62.5,,,,,,,,,,,,,,p,1,2.242,2.45788737,1,5,10,3,43,0,1,,,,,,,,,,,,,,
,,,,,,,,,,,right.png,,p,left,616ef3ce75a4007b7eb8ddfa,2021-10-21_09h21.08.330,arrow_simon_punish,2021.1.2,MacIntel,62.5,,,,,,,,,,,,,,p,1,1.101,2.07538989,1,5,11,0,44,0,1,,,,,,,,,,,,,,
,,,,,,,,,,,left.png,,w,left,616ef3ce75a4007b7eb8ddfa,2021-10-21_09h21.08.330,arrow_simon_punish,2021.1.2,MacIntel,62.5,,,,,,,,,,,,,,w,1,1.039,1.701064187,1,5,11,1,45,2,1,,,,,,,,,,,,,,
,,,,,,,,,,,left.png,,w,left,616ef3ce75a4007b7eb8ddfa,2021-10-21_09h21.08.330,arrow_simon_punish,2021.1.2,MacIntel,62.5,,,,,,,,,,,,,,w,1,0.888,1.653674522,1,5,11,2,46,2,1,,,,,,,,,,,,,,
,,,,,,,,,,,left.png,,w,left,616ef3ce75a4007b7eb8ddfa,2021-10-21_09h21.08.330,arrow_simon_punish,2021.1.2,MacIntel,62.5,,,,,,,,,,,,,,w,1,0.971,1.894896179,1,5,11,3,47,2,1,,,,,,,,,,,,,,
,,,,,,,,,,,right.png,,p,right,616ef3ce75a4007b7eb8ddfa,2021-10-21_09h21.08.330,arrow_simon_punish,2021.1.2,MacIntel,62.5,,,,,,,,,,,,,,p,1,1.288,2.475839467,1,5,12,0,48,1,1,,,,,,,,,,,,,,
,,,,,,,,,,,left.png,,w,left,616ef3ce75a4007b7eb8ddfa,2021-10-21_09h21.08.330,arrow_simon_punish,2021.1.2,MacIntel,62.5,,,,,,,,,,,,,,w,1,1.314,2.39715692,1,5,12,1,49,2,1,,,,,,,,,,,,,,
,,,,,,,,,,,left.png,,w,left,616ef3ce75a4007b7eb8ddfa,2021-10-21_09h21.08.330,arrow_simon_punish,2021.1.2,MacIntel,62.5,,,,,,,,,,,,,,w,1,1.089,2.281785057,1,5,12,2,50,2,1,,,,,,,,,,,,,,
,,,,,,,,,,,right.png,,p,right,616ef3ce75a4007b7eb8ddfa,2021-10-21_09h21.08.330,arrow_simon_punish,2021.1.2,MacIntel,62.5,,,,,,,,,,,,,,p,1,1.057,1.931092038,1,5,12,3,51,1,1,,,,,,,,,,,,,,
,,,,,,,,,,,right.png,,p,right,616ef3ce75a4007b7eb8ddfa,2021-10-21_09h21.08.330,arrow_simon_punish,2021.1.2,MacIntel,62.5,,,,,,,,,,,,,,p,1,0.99,1.510246438,1,5,13,0,52,1,1,,,,,,,,,,,,,,
,,,,,,,,,,,right.png,,p,left,616ef3ce75a4007b7eb8ddfa,2021-10-21_09h21.08.330,arrow_simon_punish,2021.1.2,MacIntel,62.5,,,,,,,,,,,,,,p,1,1.104,2.057643465,1,5,13,1,53,0,1,,,,,,,,,,,,,,
,,,,,,,,,,,left.png,,w,left,616ef3ce75a4007b7eb8ddfa,2021-10-21_09h21.08.330,arrow_simon_punish,2021.1.2,MacIntel,62.5,,,,,,,,,,,,,,w,1,1.026,2.202276942,1,5,13,2,54,2,1,,,,,,,,,,,,,,
,,,,,,,,,,,right.png,,p,right,616ef3ce75a4007b7eb8ddfa,2021-10-21_09h21.08.330,arrow_simon_punish,2021.1.2,MacIntel,62.5,,,,,,,,,,,,,,p,1,1.122,2.206364569,1,5,13,3,55,1,1,,,,,,,,,,,,,,
,,,,,,,,,,,right.png,,p,left,616ef3ce75a4007b7eb8ddfa,2021-10-21_09h21.08.330,arrow_simon_punish,2021.1.2,MacIntel,62.5,,,,,,,,,,,,,,p,1,0.973,1.777274947,1,5,14,0,56,0,1,,,,,,,,,,,,,,
,,,,,,,,,,,right.png,,p,left,616ef3ce75a4007b7eb8ddfa,2021-10-21_09h21.08.330,arrow_simon_punish,2021.1.2,MacIntel,62.5,,,,,,,,,,,,,,p,1,0.966,1.822230606,1,5,14,1,57,0,1,,,,,,,,,,,,,,
,,,,,,,,,,,left.png,,w,right,616ef3ce75a4007b7eb8ddfa,2021-10-21_09h21.08.330,arrow_simon_punish,2021.1.2,MacIntel,62.5,,,,,,,,,,,,,,w,1,1.077,2.012955317,1,5,14,2,58,3,1,,,,,,,,,,,,,,
,,,,,,,,,,,left.png,,w,left,616ef3ce75a4007b7eb8ddfa,2021-10-21_09h21.08.330,arrow_simon_punish,2021.1.2,MacIntel,62.5,,,,,,,,,,,,,,w,1,0.982,1.700373403,1,5,14,3,59,2,1,,,,,,,,,,,,,,
,,,,,,,,,,,,,,,616ef3ce75a4007b7eb8ddfa,2021-10-21_09h21.08.330,arrow_simon_punish,2021.1.2,MacIntel,62.5,,,,,,,,,,,,,,,,,,,,,,,,,space,23.537,7,2,1,5,1,1,5,,,,,
,,,,,,,,,,,left.png,,w,left,616ef3ce75a4007b7eb8ddfa,2021-10-21_09h21.08.330,arrow_simon_punish,2021.1.2,MacIntel,62.5,,,,,,,,,,,,,,w,1,0.973,1.628104589,1,1,0,0,0,2,1,,,,,,,,,,,,,,
,,,,,,,,,,,left.png,,w,right,616ef3ce75a4007b7eb8ddfa,2021-10-21_09h21.08.330,arrow_simon_punish,2021.1.2,MacIntel,62.5,,,,,,,,,,,,,,w,1,1.076,2.118007703,1,1,0,1,1,3,1,,,,,,,,,,,,,,
,,,,,,,,,,,right.png,,p,left,616ef3ce75a4007b7eb8ddfa,2021-10-21_09h21.08.330,arrow_simon_punish,2021.1.2,MacIntel,62.5,,,,,,,,,,,,,,p,1,1.031,2.036800483,1,1,0,2,2,0,1,,,,,,,,,,,,,,
,,,,,,,,,,,right.png,,p,right,616ef3ce75a4007b7eb8ddfa,2021-10-21_09h21.08.330,arrow_simon_punish,2021.1.2,MacIntel,62.5,,,,,,,,,,,,,,p,1,0.992,1.660664318,1,1,0,3,3,1,1,,,,,,,,,,,,,,
,,,,,,,,,,,left.png,,w,left,616ef3ce75a4007b7eb8ddfa,2021-10-21_09h21.08.330,arrow_simon_punish,2021.1.2,MacIntel,62.5,,,,,,,,,,,,,,w,1,0.956,1.652836746,1,1,1,0,4,2,1,,,,,,,,,,,,,,
,,,,,,,,,,,right.png,,p,left,616ef3ce75a4007b7eb8ddfa,2021-10-21_09h21.08.330,arrow_simon_punish,2021.1.2,MacIntel,62.5,,,,,,,,,,,,,,p,1,1.07,2.049347357,1,1,1,1,5,0,1,,,,,,,,,,,,,,
,,,,,,,,,,,right.png,,p,left,616ef3ce75a4007b7eb8ddfa,2021-10-21_09h21.08.330,arrow_simon_punish,2021.1.2,MacIntel,62.5,,,,,,,,,,,,,,p,1,1.323,2.418819773,1,1,1,2,6,0,1,,,,,,,,,,,,,,
,,,,,,,,,,,left.png,,w,left,616ef3ce75a4007b7eb8ddfa,2021-10-21_09h21.08.330,arrow_simon_punish,2021.1.2,MacIntel,62.5,,,,,,,,,,,,,,w,1,0.926,1.622980613,1,1,1,3,7,2,1,,,,,,,,,,,,,,
,,,,,,,,,,,left.png,,w,right,616ef3ce75a4007b7eb8ddfa,2021-10-21_09h21.08.330,arrow_simon_punish,2021.1.2,MacIntel,62.5,,,,,,,,,,,,,,w,1,0.997,1.885225656,1,1,2,0,8,3,1,,,,,,,,,,,,,,
,,,,,,,,,,,left.png,,w,left,616ef3ce75a4007b7eb8ddfa,2021-10-21_09h21.08.330,arrow_simon_punish,2021.1.2,MacIntel,62.5,,,,,,,,,,,,,,w,1,0.971,1.556918659,1,1,2,1,9,2,1,,,,,,,,,,,,,,
,,,,,,,,,,,right.png,,p,left,616ef3ce75a4007b7eb8ddfa,2021-10-21_09h21.08.330,arrow_simon_punish,2021.1.2,MacIntel,62.5,,,,,,,,,,,,,,p,1,0.995,1.933423262,1,1,2,2,10,0,1,,,,,,,,,,,,,,
,,,,,,,,,,,left.png,,w,right,616ef3ce75a4007b7eb8ddfa,2021-10-21_09h21.08.330,arrow_simon_punish,2021.1.2,MacIntel,62.5,,,,,,,,,,,,,,w,1,1.089,2.066921027,1,1,2,3,11,3,1,,,,,,,,,,,,,,
,,,,,,,,,,,right.png,,p,left,616ef3ce75a4007b7eb8ddfa,2021-10-21_09h21.08.330,arrow_simon_punish,2021.1.2,MacIntel,62.5,,,,,,,,,,,,,,p,1,1.089,2.040416502,1,1,3,0,12,0,1,,,,,,,,,,,,,,
,,,,,,,,,,,right.png,,p,right,616ef3ce75a4007b7eb8ddfa,2021-10-21_09h21.08.330,arrow_simon_punish,2021.1.2,MacIntel,62.5,,,,,,,,,,,,,,p,1,0.953,1.718523639,1,1,3,1,13,1,1,,,,,,,,,,,,,,
,,,,,,,,,,,left.png,,w,right,616ef3ce75a4007b7eb8ddfa,2021-10-21_09h21.08.330,arrow_simon_punish,2021.1.2,MacIntel,62.5,,,,,,,,,,,,,,w,1,1.072,2.135606584,1,1,3,2,14,3,1,,,,,,,,,,,,,,
,,,,,,,,,,,left.png,,w,left,616ef3ce75a4007b7eb8ddfa,2021-10-21_09h21.08.330,arrow_simon_punish,2021.1.2,MacIntel,62.5,,,,,,,,,,,,,,w,1,1.051,1.641115801,1,1,3,3,15,2,1,,,,,,,,,,,,,,
,,,,,,,,,,,right.png,,p,left,616ef3ce75a4007b7eb8ddfa,2021-10-21_09h21.08.330,arrow_simon_punish,2021.1.2,MacIntel,62.5,,,,,,,,,,,,,,p,1,1.138,2.210078977,1,1,4,0,16,0,1,,,,,,,,,,,,,,
,,,,,,,,,,,right.png,,p,left,616ef3ce75a4007b7eb8ddfa,2021-10-21_09h21.08.330,arrow_simon_punish,2021.1.2,MacIntel,62.5,,,,,,,,,,,,,,p,1,1.052,2.02068012,1,1,4,1,17,0,1,,,,,,,,,,,,,,
,,,,,,,,,,,left.png,,w,right,616ef3ce75a4007b7eb8ddfa,2021-10-21_09h21.08.330,arrow_simon_punish,2021.1.2,MacIntel,62.5,,,,,,,,,,,,,,w,1,1.023,1.662722354,1,1,4,2,18,3,1,,,,,,,,,,,,,,
,,,,,,,,,,,left.png,,w,left,616ef3ce75a4007b7eb8ddfa,2021-10-21_09h21.08.330,arrow_simon_punish,2021.1.2,MacIntel,62.5,,,,,,,,,,,,,,w,1,1,1.878865965,1,1,4,3,19,2,1,,,,,,,,,,,,,,
,,,,,,,,,,,right.png,,p,left,616ef3ce75a4007b7eb8ddfa,2021-10-21_09h21.08.330,arrow_simon_punish,2021.1.2,MacIntel,62.5,,,,,,,,,,,,,,p,1,1.086,2.042387507,1,1,5,0,20,0,1,,,,,,,,,,,,,,
,,,,,,,,,,,left.png,,w,right,616ef3ce75a4007b7eb8ddfa,2021-10-21_09h21.08.330,arrow_simon_punish,2021.1.2,MacIntel,62.5,,,,,,,,,,,,,,w,1,1.151,2.312565875,1,1,5,1,21,3,1,,,,,,,,,,,,,,
,,,,,,,,,,,left.png,,w,left,616ef3ce75a4007b7eb8ddfa,2021-10-21_09h21.08.330,arrow_simon_punish,2021.1.2,MacIntel,62.5,,,,,,,,,,,,,,w,1,0.997,1.803143377,1,1,5,2,22,2,1,,,,,,,,,,,,,,
,,,,,,,,,,,right.png,,p,left,616ef3ce75a4007b7eb8ddfa,2021-10-21_09h21.08.330,arrow_simon_punish,2021.1.2,MacIntel,62.5,,,,,,,,,,,,,,p,1,1.023,1.75797329,1,1,5,3,23,0,1,,,,,,,,,,,,,,
,,,,,,,,,,,left.png,,w,right,616ef3ce75a4007b7eb8ddfa,2021-10-21_09h21.08.330,arrow_simon_punish,2021.1.2,MacIntel,62.5,,,,,,,,,,,,,,w,1,1.128,2.195143563,1,1,6,0,24,3,1,,,,,,,,,,,,,,
,,,,,,,,,,,right.png,,p,right,616ef3ce75a4007b7eb8ddfa,2021-10-21_09h21.08.330,arrow_simon_punish,2021.1.2,MacIntel,62.5,,,,,,,,,,,,,,p,1,0.987,1.596232771,1,1,6,1,25,1,1,,,,,,,,,,,,,,
,,,,,,,,,,,left.png,,w,left,616ef3ce75a4007b7eb8ddfa,2021-10-21_09h21.08.330,arrow_simon_punish,2021.1.2,MacIntel,62.5,,,,,,,,,,,,,,w,1,1.27,2.456615619,1,1,6,2,26,2,1,,,,,,,,,,,,,,
,,,,,,,,,,,right.png,,p,left,616ef3ce75a4007b7eb8ddfa,2021-10-21_09h21.08.330,arrow_simon_punish,2021.1.2,MacIntel,62.5,,,,,,,,,,,,,,p,1,1.49,2.469132906,0,1,6,3,27,0,1,,,,,,,,,,,,,,
,,,,,,,,,,,right.png,,p,right,616ef3ce75a4007b7eb8ddfa,2021-10-21_09h21.08.330,arrow_simon_punish,2021.1.2,MacIntel,62.5,,,,,,,,,,,,,,p,1,1.071,2.188621298,1,1,7,0,28,1,1,,,,,,,,,,,,,,
,,,,,,,,,,,left.png,,w,left,616ef3ce75a4007b7eb8ddfa,2021-10-21_09h21.08.330,arrow_simon_punish,2021.1.2,MacIntel,62.5,,,,,,,,,,,,,,w,1,1.05,2.247427391,1,1,7,1,29,2,1,,,,,,,,,,,,,,
,,,,,,,,,,,left.png,,w,right,616ef3ce75a4007b7eb8ddfa,2021-10-21_09h21.08.330,arrow_simon_punish,2021.1.2,MacIntel,62.5,,,,,,,,,,,,,,w,1,1.005,1.759963153,1,1,7,2,30,3,1,,,,,,,,,,,,,,
,,,,,,,,,,,right.png,,p,right,616ef3ce75a4007b7eb8ddfa,2021-10-21_09h21.08.330,arrow_simon_punish,2021.1.2,MacIntel,62.5,,,,,,,,,,,,,,p,1,1.303,2.487427269,1,1,7,3,31,1,1,,,,,,,,,,,,,,
,,,,,,,,,,,right.png,,p,right,616ef3ce75a4007b7eb8ddfa,2021-10-21_09h21.08.330,arrow_simon_punish,2021.1.2,MacIntel,62.5,,,,,,,,,,,,,,p,1,1.022,1.832306205,1,1,8,0,32,1,1,,,,,,,,,,,,,,
,,,,,,,,,,,right.png,,p,right,616ef3ce75a4007b7eb8ddfa,2021-10-21_09h21.08.330,arrow_simon_punish,2021.1.2,MacIntel,62.5,,,,,,,,,,,,,,p,1,1.034,1.922671611,1,1,8,1,33,1,1,,,,,,,,,,,,,,
,,,,,,,,,,,left.png,,w,left,616ef3ce75a4007b7eb8ddfa,2021-10-21_09h21.08.330,arrow_simon_punish,2021.1.2,MacIntel,62.5,,,,,,,,,,,,,,w,1,0.97,2.118893993,1,1,8,2,34,2,1,,,,,,,,,,,,,,
,,,,,,,,,,,left.png,,w,left,616ef3ce75a4007b7eb8ddfa,2021-10-21_09h21.08.330,arrow_simon_punish,2021.1.2,MacIntel,62.5,,,,,,,,,,,,,,w,1,1.318,2.482330523,1,1,8,3,35,2,1,,,,,,,,,,,,,,
,,,,,,,,,,,left.png,,w,left,616ef3ce75a4007b7eb8ddfa,2021-10-21_09h21.08.330,arrow_simon_punish,2021.1.2,MacIntel,62.5,,,,,,,,,,,,,,w,1,1.004,1.530799289,1,1,9,0,36,2,1,,,,,,,,,,,,,,
,,,,,,,,,,,right.png,,p,left,616ef3ce75a4007b7eb8ddfa,2021-10-21_09h21.08.330,arrow_simon_punish,2021.1.2,MacIntel,62.5,,,,,,,,,,,,,,p,1,1.024,1.979752357,1,1,9,1,37,0,1,,,,,,,,,,,,,,
,,,,,,,,,,,right.png,,p,right,616ef3ce75a4007b7eb8ddfa,2021-10-21_09h21.08.330,arrow_simon_punish,2021.1.2,MacIntel,62.5,,,,,,,,,,,,,,p,1,1.139,2.334055814,1,1,9,2,38,1,1,,,,,,,,,,,,,,
,,,,,,,,,,,right.png,,p,right,616ef3ce75a4007b7eb8ddfa,2021-10-21_09h21.08.330,arrow_simon_punish,2021.1.2,MacIntel,62.5,,,,,,,,,,,,,,p,1,1.019,2.041703368,1,1,9,3,39,1,1,,,,,,,,,,,,,,
,,,,,,,,,,,right.png,,p,right,616ef3ce75a4007b7eb8ddfa,2021-10-21_09h21.08.330,arrow_simon_punish,2021.1.2,MacIntel,62.5,,,,,,,,,,,,,,p,1,1.055,1.868814666,1,1,10,0,40,1,1,,,,,,,,,,,,,,
,,,,,,,,,,,left.png,,w,right,616ef3ce75a4007b7eb8ddfa,2021-10-21_09h21.08.330,arrow_simon_punish,2021.1.2,MacIntel,62.5,,,,,,,,,,,,,,w,1,1.084,2.138535748,1,1,10,1,41,3,1,,,,,,,,,,,,,,
,,,,,,,,,,,left.png,,w,right,616ef3ce75a4007b7eb8ddfa,2021-10-21_09h21.08.330,arrow_simon_punish,2021.1.2,MacIntel,62.5,,,,,,,,,,,,,,w,1,1.102,2.184337341,1,1,10,2,42,3,1,,,,,,,,,,,,,,
,,,,,,,,,,,right.png,,p,right,616ef3ce75a4007b7eb8ddfa,2021-10-21_09h21.08.330,arrow_simon_punish,2021.1.2,MacIntel,62.5,,,,,,,,,,,,,,p,1,1.089,2.012198701,1,1,10,3,43,1,1,,,,,,,,,,,,,,
,,,,,,,,,,,right.png,,p,right,616ef3ce75a4007b7eb8ddfa,2021-10-21_09h21.08.330,arrow_simon_punish,2021.1.2,MacIntel,62.5,,,,,,,,,,,,,,p,1,1.039,1.581376172,1,1,11,0,44,1,1,,,,,,,,,,,,,,
,,,,,,,,,,,right.png,,p,right,616ef3ce75a4007b7eb8ddfa,2021-10-21_09h21.08.330,arrow_simon_punish,2021.1.2,MacIntel,62.5,,,,,,,,,,,,,,p,1,1.071,2.167420017,1,1,11,1,45,1,1,,,,,,,,,,,,,,
,,,,,,,,,,,left.png,,w,left,616ef3ce75a4007b7eb8ddfa,2021-10-21_09h21.08.330,arrow_simon_punish,2021.1.2,MacIntel,62.5,,,,,,,,,,,,,,w,1,1.059,2.235862498,1,1,11,2,46,2,1,,,,,,,,,,,,,,
,,,,,,,,,,,right.png,,p,left,616ef3ce75a4007b7eb8ddfa,2021-10-21_09h21.08.330,arrow_simon_punish,2021.1.2,MacIntel,62.5,,,,,,,,,,,,,,p,1,0.977,1.847075347,1,1,11,3,47,0,1,,,,,,,,,,,,,,
,,,,,,,,,,,left.png,,w,left,616ef3ce75a4007b7eb8ddfa,2021-10-21_09h21.08.330,arrow_simon_punish,2021.1.2,MacIntel,62.5,,,,,,,,,,,,,,w,1,1.054,1.524390924,1,1,12,0,48,2,1,,,,,,,,,,,,,,
,,,,,,,,,,,left.png,,w,right,616ef3ce75a4007b7eb8ddfa,2021-10-21_09h21.08.330,arrow_simon_punish,2021.1.2,MacIntel,62.5,,,,,,,,,,,,,,w,1,1.353,2.49299608,1,1,12,1,49,3,1,,,,,,,,,,,,,,
,,,,,,,,,,,right.png,,p,left,616ef3ce75a4007b7eb8ddfa,2021-10-21_09h21.08.330,arrow_simon_punish,2021.1.2,MacIntel,62.5,,,,,,,,,,,,,,p,1,1.001,1.994404392,1,1,12,2,50,0,1,,,,,,,,,,,,,,
,,,,,,,,,,,right.png,,p,left,616ef3ce75a4007b7eb8ddfa,2021-10-21_09h21.08.330,arrow_simon_punish,2021.1.2,MacIntel,62.5,,,,,,,,,,,,,,p,1,1.021,1.760548666,1,1,12,3,51,0,1,,,,,,,,,,,,,,
,,,,,,,,,,,right.png,,p,right,616ef3ce75a4007b7eb8ddfa,2021-10-21_09h21.08.330,arrow_simon_punish,2021.1.2,MacIntel,62.5,,,,,,,,,,,,,,p,1,0.964,1.9600787,1,1,13,0,52,1,1,,,,,,,,,,,,,,
,,,,,,,,,,,left.png,,w,right,616ef3ce75a4007b7eb8ddfa,2021-10-21_09h21.08.330,arrow_simon_punish,2021.1.2,MacIntel,62.5,,,,,,,,,,,,,,w,1,1.067,2.153051476,1,1,13,1,53,3,1,,,,,,,,,,,,,,
,,,,,,,,,,,right.png,,p,right,616ef3ce75a4007b7eb8ddfa,2021-10-21_09h21.08.330,arrow_simon_punish,2021.1.2,MacIntel,62.5,,,,,,,,,,,,,,p,1,1.268,2.371144912,1,1,13,2,54,1,1,,,,,,,,,,,,,,
,,,,,,,,,,,left.png,,w,right,616ef3ce75a4007b7eb8ddfa,2021-10-21_09h21.08.330,arrow_simon_punish,2021.1.2,MacIntel,62.5,,,,,,,,,,,,,,w,1,0.988,1.848799446,1,1,13,3,55,3,1,,,,,,,,,,,,,,
,,,,,,,,,,,left.png,,w,left,616ef3ce75a4007b7eb8ddfa,2021-10-21_09h21.08.330,arrow_simon_punish,2021.1.2,MacIntel,62.5,,,,,,,,,,,,,,w,1,0.955,1.780329665,1,1,14,0,56,2,1,,,,,,,,,,,,,,
,,,,,,,,,,,left.png,,w,right,616ef3ce75a4007b7eb8ddfa,2021-10-21_09h21.08.330,arrow_simon_punish,2021.1.2,MacIntel,62.5,,,,,,,,,,,,,,w,1,0.986,1.742410937,1,1,14,1,57,3,1,,,,,,,,,,,,,,
,,,,,,,,,,,right.png,,p,left,616ef3ce75a4007b7eb8ddfa,2021-10-21_09h21.08.330,arrow_simon_punish,2021.1.2,MacIntel,62.5,,,,,,,,,,,,,,p,1,0.956,1.617362031,1,1,14,2,58,0,1,,,,,,,,,,,,,,
,,,,,,,,,,,left.png,,w,right,616ef3ce75a4007b7eb8ddfa,2021-10-21_09h21.08.330,arrow_simon_punish,2021.1.2,MacIntel,62.5,,,,,,,,,,,,,,w,1,1.19,2.336294688,1,1,14,3,59,3,1,,,,,,,,,,,,,,
,,,,,,,,,,,,,,,616ef3ce75a4007b7eb8ddfa,2021-10-21_09h21.08.330,arrow_simon_punish,2021.1.2,MacIntel,62.5,,,,,,,,,,,,,,,,,,,,,,,,,space,13.668,8,3,0,6,0,1,1,,,,,
,,,,,,,,,,,left.png,,w,right,616ef3ce75a4007b7eb8ddfa,2021-10-21_09h21.08.330,arrow_simon_punish,2021.1.2,MacIntel,62.5,,,,,,,,,,,,,,w,1,1.103,2.178879104,1,5,0,0,0,3,1,,,,,,,,,,,,,,
,,,,,,,,,,,left.png,,w,right,616ef3ce75a4007b7eb8ddfa,2021-10-21_09h21.08.330,arrow_simon_punish,2021.1.2,MacIntel,62.5,,,,,,,,,,,,,,w,1,1.071,2.112314534,1,5,0,1,1,3,1,,,,,,,,,,,,,,
,,,,,,,,,,,right.png,,p,right,616ef3ce75a4007b7eb8ddfa,2021-10-21_09h21.08.330,arrow_simon_punish,2021.1.2,MacIntel,62.5,,,,,,,,,,,,,,p,1,1.107,2.171117067,1,5,0,2,2,1,1,,,,,,,,,,,,,,
,,,,,,,,,,,right.png,,p,right,616ef3ce75a4007b7eb8ddfa,2021-10-21_09h21.08.330,arrow_simon_punish,2021.1.2,MacIntel,62.5,,,,,,,,,,,,,,p,1,1.234,2.37832156,1,5,0,3,3,1,1,,,,,,,,,,,,,,
,,,,,,,,,,,right.png,,p,right,616ef3ce75a4007b7eb8ddfa,2021-10-21_09h21.08.330,arrow_simon_punish,2021.1.2,MacIntel,62.5,,,,,,,,,,,,,,p,1,1.13,2.330129392,1,5,1,0,4,1,1,,,,,,,,,,,,,,
,,,,,,,,,,,left.png,,w,left,616ef3ce75a4007b7eb8ddfa,2021-10-21_09h21.08.330,arrow_simon_punish,2021.1.2,MacIntel,62.5,,,,,,,,,,,,,,w,1,1.07,2.251759389,1,5,1,1,5,2,1,,,,,,,,,,,,,,
,,,,,,,,,,,left.png,,w,right,616ef3ce75a4007b7eb8ddfa,2021-10-21_09h21.08.330,arrow_simon_punish,2021.1.2,MacIntel,62.5,,,,,,,,,,,,,,w,1,1.111,2.200436083,1,5,1,2,6,3,1,,,,,,,,,,,,,,
,,,,,,,,,,,left.png,,w,right,616ef3ce75a4007b7eb8ddfa,2021-10-21_09h21.08.330,arrow_simon_punish,2021.1.2,MacIntel,62.5,,,,,,,,,,,,,,p,0,1.171,2.387034422,1,5,1,3,7,3,1,,,,,,,,,,,,,,
,,,,,,,,,,,right.png,,p,left,616ef3ce75a4007b7eb8ddfa,2021-10-21_09h21.08.330,arrow_simon_punish,2021.1.2,MacIntel,62.5,,,,,,,,,,,,,,p,1,1.03,1.662563135,1,5,2,0,8,0,1,,,,,,,,,,,,,,
,,,,,,,,,,,left.png,,w,left,616ef3ce75a4007b7eb8ddfa,2021-10-21_09h21.08.330,arrow_simon_punish,2021.1.2,MacIntel,62.5,,,,,,,,,,,,,,w,1,0.969,1.732917559,1,5,2,1,9,2,1,,,,,,,,,,,,,,
,,,,,,,,,,,right.png,,p,left,616ef3ce75a4007b7eb8ddfa,2021-10-21_09h21.08.330,arrow_simon_punish,2021.1.2,MacIntel,62.5,,,,,,,,,,,,,,p,1,0.935,1.636241644,1,5,2,2,10,0,1,,,,,,,,,,,,,,
,,,,,,,,,,,left.png,,w,left,616ef3ce75a4007b7eb8ddfa,2021-10-21_09h21.08.330,arrow_simon_punish,2021.1.2,MacIntel,62.5,,,,,,,,,,,,,,w,1,0.919,1.561630409,1,5,2,3,11,2,1,,,,,,,,,,,,,,
,,,,,,,,,,,left.png,,w,left,616ef3ce75a4007b7eb8ddfa,2021-10-21_09h21.08.330,arrow_simon_punish,2021.1.2,MacIntel,62.5,,,,,,,,,,,,,,w,1,1.304,2.453372811,1,5,3,0,12,2,1,,,,,,,,,,,,,,
,,,,,,,,,,,left.png,,w,left,616ef3ce75a4007b7eb8ddfa,2021-10-21_09h21.08.330,arrow_simon_punish,2021.1.2,MacIntel,62.5,,,,,,,,,,,,,,w,1,1.251,2.443476254,1,5,3,1,13,2,1,,,,,,,,,,,,,,
,,,,,,,,,,,left.png,,w,right,616ef3ce75a4007b7eb8ddfa,2021-10-21_09h21.08.330,arrow_simon_punish,2021.1.2,MacIntel,62.5,,,,,,,,,,,,,,w,1,1.086,2.18947443,1,5,3,2,14,3,1,,,,,,,,,,,,,,
,,,,,,,,,,,right.png,,p,right,616ef3ce75a4007b7eb8ddfa,2021-10-21_09h21.08.330,arrow_simon_punish,2021.1.2,MacIntel,62.5,,,,,,,,,,,,,,p,1,0.952,1.689248313,1,5,3,3,15,1,1,,,,,,,,,,,,,,
,,,,,,,,,,,right.png,,p,left,616ef3ce75a4007b7eb8ddfa,2021-10-21_09h21.08.330,arrow_simon_punish,2021.1.2,MacIntel,62.5,,,,,,,,,,,,,,p,1,0.836,1.830330443,1,5,4,0,16,0,1,,,,,,,,,,,,,,
,,,,,,,,,,,left.png,,w,left,616ef3ce75a4007b7eb8ddfa,2021-10-21_09h21.08.330,arrow_simon_punish,2021.1.2,MacIntel,62.5,,,,,,,,,,,,,,w,1,1.221,2.344998904,1,5,4,1,17,2,1,,,,,,,,,,,,,,
,,,,,,,,,,,right.png,,p,right,616ef3ce75a4007b7eb8ddfa,2021-10-21_09h21.08.330,arrow_simon_punish,2021.1.2,MacIntel,62.5,,,,,,,,,,,,,,p,1,0.957,1.725329531,1,5,4,2,18,1,1,,,,,,,,,,,,,,
,,,,,,,,,,,right.png,,p,left,616ef3ce75a4007b7eb8ddfa,2021-10-21_09h21.08.330,arrow_simon_punish,2021.1.2,MacIntel,62.5,,,,,,,,,,,,,,p,1,0.955,1.646829153,1,5,4,3,19,0,1,,,,,,,,,,,,,,
,,,,,,,,,,,right.png,,p,left,616ef3ce75a4007b7eb8ddfa,2021-10-21_09h21.08.330,arrow_simon_punish,2021.1.2,MacIntel,62.5,,,,,,,,,,,,,,p,1,1.269,2.190989977,1,5,5,0,20,0,1,,,,,,,,,,,,,,
,,,,,,,,,,,right.png,,p,left,616ef3ce75a4007b7eb8ddfa,2021-10-21_09h21.08.330,arrow_simon_punish,2021.1.2,MacIntel,62.5,,,,,,,,,,,,,,w,0,1.076,2.265406531,1,5,5,1,21,0,1,,,,,,,,,,,,,,
,,,,,,,,,,,left.png,,w,left,616ef3ce75a4007b7eb8ddfa,2021-10-21_09h21.08.330,arrow_simon_punish,2021.1.2,MacIntel,62.5,,,,,,,,,,,,,,w,1,1.273,2.432020178,1,5,5,2,22,2,1,,,,,,,,,,,,,,
