instruct_resp_simon.keys,instruct_resp_simon.corr,instruct_resp_simon.rt,trial_resp_simon.keys,trial_resp_simon.corr,trial_resp_simon.rt,trials_train_simon.thisRepN,trials_train_simon.thisTrialN,trials_train_simon.thisN,trials_train_simon.thisIndex,trials_train_simon.ran,target_file,target_pos,target_resp,target_side,participant,date,expName,psychopyVersion,OS,frameRate,instruct_resp_timing.keys,instruct_resp_timing.corr,instruct_resp_timing.rt,trial_resp_timing.keys,trial_resp_timing.rt,trials_train_timing.thisRepN,trials_train_timing.thisTrialN,trials_train_timing.thisN,trials_train_timing.thisIndex,trials_train_timing.ran,instruct_resp.keys,instruct_resp.corr,instruct_resp.rt,trial_resp.keys,trial_resp.corr,trial_resp.rt,target_onset,err,pun,trials.thisRepN,trials.thisTrialN,trials.thisN,trials.thisIndex,trials.ran,block_note_resp.keys,block_note_resp.rt,block_num,blocks.thisRepN,blocks.thisTrialN,blocks.thisN,blocks.thisIndex,blocks.ran,punish,complete_resp.keys,complete_resp.rt,raffle_trial,raffle_err,raffle_rew
space,0,32.8022,p,1,2.2458,0,0,0,0,1,right.png,,p,left,5c23c03889f035000173d7d7,2021-10-27_12h14.50.903,arrow_simon_punish,2021.1.2,Win32,120.105693,,,,,,,,,,,,,,,,,,,,,,,,,,,,,,,,,,,,,,
,,,w,1,0.9253,0,1,1,3,1,left.png,,w,right,5c23c03889f035000173d7d7,2021-10-27_12h14.50.903,arrow_simon_punish,2021.1.2,Win32,120.105693,,,,,,,,,,,,,,,,,,,,,,,,,,,,,,,,,,,,,,
,,,w,1,0.8528,0,2,2,2,1,left.png,,w,left,5c23c03889f035000173d7d7,2021-10-27_12h14.50.903,arrow_simon_punish,2021.1.2,Win32,120.105693,,,,,,,,,,,,,,,,,,,,,,,,,,,,,,,,,,,,,,
,,,p,1,0.4253,0,3,3,1,1,right.png,,p,right,5c23c03889f035000173d7d7,2021-10-27_12h14.50.903,arrow_simon_punish,2021.1.2,Win32,120.105693,,,,,,,,,,,,,,,,,,,,,,,,,,,,,,,,,,,,,,
,,,w,1,0.7354,1,0,4,3,1,left.png,,w,right,5c23c03889f035000173d7d7,2021-10-27_12h14.50.903,arrow_simon_punish,2021.1.2,Win32,120.105693,,,,,,,,,,,,,,,,,,,,,,,,,,,,,,,,,,,,,,
,,,p,1,1.1668,1,1,5,1,1,right.png,,p,right,5c23c03889f035000173d7d7,2021-10-27_12h14.50.903,arrow_simon_punish,2021.1.2,Win32,120.105693,,,,,,,,,,,,,,,,,,,,,,,,,,,,,,,,,,,,,,
,,,w,1,0.4443,1,2,6,2,1,left.png,,w,left,5c23c03889f035000173d7d7,2021-10-27_12h14.50.903,arrow_simon_punish,2021.1.2,Win32,120.105693,,,,,,,,,,,,,,,,,,,,,,,,,,,,,,,,,,,,,,
,,,w,0,0.8373,1,3,7,0,1,right.png,,p,left,5c23c03889f035000173d7d7,2021-10-27_12h14.50.903,arrow_simon_punish,2021.1.2,Win32,120.105693,,,,,,,,,,,,,,,,,,,,,,,,,,,,,,,,,,,,,,
,,,w,1,1.0691,2,0,8,2,1,left.png,,w,left,5c23c03889f035000173d7d7,2021-10-27_12h14.50.903,arrow_simon_punish,2021.1.2,Win32,120.105693,,,,,,,,,,,,,,,,,,,,,,,,,,,,,,,,,,,,,,
,,,p,1,0.5209,2,1,9,1,1,right.png,,p,right,5c23c03889f035000173d7d7,2021-10-27_12h14.50.903,arrow_simon_punish,2021.1.2,Win32,120.105693,,,,,,,,,,,,,,,,,,,,,,,,,,,,,,,,,,,,,,
,,,p,1,1.2753,2,2,10,0,1,right.png,,p,left,5c23c03889f035000173d7d7,2021-10-27_12h14.50.903,arrow_simon_punish,2021.1.2,Win32,120.105693,,,,,,,,,,,,,,,,,,,,,,,,,,,,,,,,,,,,,,
,,,w,1,0.8793,2,3,11,3,1,left.png,,w,right,5c23c03889f035000173d7d7,2021-10-27_12h14.50.903,arrow_simon_punish,2021.1.2,Win32,120.105693,,,,,,,,,,,,,,,,,,,,,,,,,,,,,,,,,,,,,,
,,,w,1,0.667,3,0,12,3,1,left.png,,w,right,5c23c03889f035000173d7d7,2021-10-27_12h14.50.903,arrow_simon_punish,2021.1.2,Win32,120.105693,,,,,,,,,,,,,,,,,,,,,,,,,,,,,,,,,,,,,,
,,,p,1,0.842,3,1,13,0,1,right.png,,p,left,5c23c03889f035000173d7d7,2021-10-27_12h14.50.903,arrow_simon_punish,2021.1.2,Win32,120.105693,,,,,,,,,,,,,,,,,,,,,,,,,,,,,,,,,,,,,,
,,,w,1,1.1421,3,2,14,2,1,left.png,,w,left,5c23c03889f035000173d7d7,2021-10-27_12h14.50.903,arrow_simon_punish,2021.1.2,Win32,120.105693,,,,,,,,,,,,,,,,,,,,,,,,,,,,,,,,,,,,,,
,,,p,1,1.088,3,3,15,1,1,right.png,,p,right,5c23c03889f035000173d7d7,2021-10-27_12h14.50.903,arrow_simon_punish,2021.1.2,Win32,120.105693,,,,,,,,,,,,,,,,,,,,,,,,,,,,,,,,,,,,,,
,,,p,1,0.8837,4,0,16,0,1,right.png,,p,left,5c23c03889f035000173d7d7,2021-10-27_12h14.50.903,arrow_simon_punish,2021.1.2,Win32,120.105693,,,,,,,,,,,,,,,,,,,,,,,,,,,,,,,,,,,,,,
,,,w,1,1.3757,4,1,17,2,1,left.png,,w,left,5c23c03889f035000173d7d7,2021-10-27_12h14.50.903,arrow_simon_punish,2021.1.2,Win32,120.105693,,,,,,,,,,,,,,,,,,,,,,,,,,,,,,,,,,,,,,
,,,w,1,1.7705,4,2,18,3,1,left.png,,w,right,5c23c03889f035000173d7d7,2021-10-27_12h14.50.903,arrow_simon_punish,2021.1.2,Win32,120.105693,,,,,,,,,,,,,,,,,,,,,,,,,,,,,,,,,,,,,,
,,,p,1,1.4202,4,3,19,1,1,right.png,,p,right,5c23c03889f035000173d7d7,2021-10-27_12h14.50.903,arrow_simon_punish,2021.1.2,Win32,120.105693,,,,,,,,,,,,,,,,,,,,,,,,,,,,,,,,,,,,,,
,,,p,1,0.8799,5,0,20,0,1,right.png,,p,left,5c23c03889f035000173d7d7,2021-10-27_12h14.50.903,arrow_simon_punish,2021.1.2,Win32,120.105693,,,,,,,,,,,,,,,,,,,,,,,,,,,,,,,,,,,,,,
,,,w,1,1.4598,5,1,21,3,1,left.png,,w,right,5c23c03889f035000173d7d7,2021-10-27_12h14.50.903,arrow_simon_punish,2021.1.2,Win32,120.105693,,,,,,,,,,,,,,,,,,,,,,,,,,,,,,,,,,,,,,
,,,p,1,0.785,5,2,22,1,1,right.png,,p,right,5c23c03889f035000173d7d7,2021-10-27_12h14.50.903,arrow_simon_punish,2021.1.2,Win32,120.105693,,,,,,,,,,,,,,,,,,,,,,,,,,,,,,,,,,,,,,
,,,w,1,1.0802,5,3,23,2,1,left.png,,w,left,5c23c03889f035000173d7d7,2021-10-27_12h14.50.903,arrow_simon_punish,2021.1.2,Win32,120.105693,,,,,,,,,,,,,,,,,,,,,,,,,,,,,,,,,,,,,,
,,,p,1,0.7752,6,0,24,1,1,right.png,,p,right,5c23c03889f035000173d7d7,2021-10-27_12h14.50.903,arrow_simon_punish,2021.1.2,Win32,120.105693,,,,,,,,,,,,,,,,,,,,,,,,,,,,,,,,,,,,,,
,,,w,1,0.7421,6,1,25,2,1,left.png,,w,left,5c23c03889f035000173d7d7,2021-10-27_12h14.50.903,arrow_simon_punish,2021.1.2,Win32,120.105693,,,,,,,,,,,,,,,,,,,,,,,,,,,,,,,,,,,,,,
,,,w,1,1.6882,6,2,26,3,1,left.png,,w,right,5c23c03889f035000173d7d7,2021-10-27_12h14.50.903,arrow_simon_punish,2021.1.2,Win32,120.105693,,,,,,,,,,,,,,,,,,,,,,,,,,,,,,,,,,,,,,
,,,p,1,0.9253,6,3,27,0,1,right.png,,p,left,5c23c03889f035000173d7d7,2021-10-27_12h14.50.903,arrow_simon_punish,2021.1.2,Win32,120.105693,,,,,,,,,,,,,,,,,,,,,,,,,,,,,,,,,,,,,,
,,,w,1,0.4923,7,0,28,2,1,left.png,,w,left,5c23c03889f035000173d7d7,2021-10-27_12h14.50.903,arrow_simon_punish,2021.1.2,Win32,120.105693,,,,,,,,,,,,,,,,,,,,,,,,,,,,,,,,,,,,,,
,,,p,1,0.7505,7,1,29,1,1,right.png,,p,right,5c23c03889f035000173d7d7,2021-10-27_12h14.50.903,arrow_simon_punish,2021.1.2,Win32,120.105693,,,,,,,,,,,,,,,,,,,,,,,,,,,,,,,,,,,,,,
,,,w,1,1.0004,7,2,30,3,1,left.png,,w,right,5c23c03889f035000173d7d7,2021-10-27_12h14.50.903,arrow_simon_punish,2021.1.2,Win32,120.105693,,,,,,,,,,,,,,,,,,,,,,,,,,,,,,,,,,,,,,
,,,p,1,0.9836,7,3,31,0,1,right.png,,p,left,5c23c03889f035000173d7d7,2021-10-27_12h14.50.903,arrow_simon_punish,2021.1.2,Win32,120.105693,,,,,,,,,,,,,,,,,,,,,,,,,,,,,,,,,,,,,,
,,,w,1,0.8519,8,0,32,3,1,left.png,,w,right,5c23c03889f035000173d7d7,2021-10-27_12h14.50.903,arrow_simon_punish,2021.1.2,Win32,120.105693,,,,,,,,,,,,,,,,,,,,,,,,,,,,,,,,,,,,,,
,,,w,1,0.7108,8,1,33,2,1,left.png,,w,left,5c23c03889f035000173d7d7,2021-10-27_12h14.50.903,arrow_simon_punish,2021.1.2,Win32,120.105693,,,,,,,,,,,,,,,,,,,,,,,,,,,,,,,,,,,,,,
,,,p,1,1.1346,8,2,34,0,1,right.png,,p,left,5c23c03889f035000173d7d7,2021-10-27_12h14.50.903,arrow_simon_punish,2021.1.2,Win32,120.105693,,,,,,,,,,,,,,,,,,,,,,,,,,,,,,,,,,,,,,
,,,p,1,1.1039,8,3,35,1,1,right.png,,p,right,5c23c03889f035000173d7d7,2021-10-27_12h14.50.903,arrow_simon_punish,2021.1.2,Win32,120.105693,,,,,,,,,,,,,,,,,,,,,,,,,,,,,,,,,,,,,,
,,,w,1,2.3669,9,0,36,3,1,left.png,,w,right,5c23c03889f035000173d7d7,2021-10-27_12h14.50.903,arrow_simon_punish,2021.1.2,Win32,120.105693,,,,,,,,,,,,,,,,,,,,,,,,,,,,,,,,,,,,,,
,,,p,1,3.2462,9,1,37,0,1,right.png,,p,left,5c23c03889f035000173d7d7,2021-10-27_12h14.50.903,arrow_simon_punish,2021.1.2,Win32,120.105693,,,,,,,,,,,,,,,,,,,,,,,,,,,,,,,,,,,,,,
,,,p,1,1.0464,9,2,38,1,1,right.png,,p,right,5c23c03889f035000173d7d7,2021-10-27_12h14.50.903,arrow_simon_punish,2021.1.2,Win32,120.105693,,,,,,,,,,,,,,,,,,,,,,,,,,,,,,,,,,,,,,
,,,w,1,0.9949,9,3,39,2,1,left.png,,w,left,5c23c03889f035000173d7d7,2021-10-27_12h14.50.903,arrow_simon_punish,2021.1.2,Win32,120.105693,,,,,,,,,,,,,,,,,,,,,,,,,,,,,,,,,,,,,,
,,,,,,,,,,,,,,,5c23c03889f035000173d7d7,2021-10-27_12h14.50.903,arrow_simon_punish,2021.1.2,Win32,120.105693,space,0,8.4574,p,3.7602,0,0,0,0,1,,,,,,,,,,,,,,,,,,,,,,,,,,,,
,,,,,,,,,,,,,,,5c23c03889f035000173d7d7,2021-10-27_12h14.50.903,arrow_simon_punish,2021.1.2,Win32,120.105693,,,,p,2.9463,1,0,1,0,1,,,,,,,,,,,,,,,,,,,,,,,,,,,,
,,,,,,,,,,,,,,,5c23c03889f035000173d7d7,2021-10-27_12h14.50.903,arrow_simon_punish,2021.1.2,Win32,120.105693,,,,p,2.8084,2,0,2,0,1,,,,,,,,,,,,,,,,,,,,,,,,,,,,
,,,,,,,,,,,,,,,5c23c03889f035000173d7d7,2021-10-27_12h14.50.903,arrow_simon_punish,2021.1.2,Win32,120.105693,,,,w,2.2085,3,0,3,0,1,,,,,,,,,,,,,,,,,,,,,,,,,,,,
,,,,,,,,,,,,,,,5c23c03889f035000173d7d7,2021-10-27_12h14.50.903,arrow_simon_punish,2021.1.2,Win32,120.105693,,,,w,2.794,4,0,4,0,1,,,,,,,,,,,,,,,,,,,,,,,,,,,,
,,,,,,,,,,,,,,,5c23c03889f035000173d7d7,2021-10-27_12h14.50.903,arrow_simon_punish,2021.1.2,Win32,120.105693,,,,w,2.7911,5,0,5,0,1,,,,,,,,,,,,,,,,,,,,,,,,,,,,
,,,,,,,,,,,,,,,5c23c03889f035000173d7d7,2021-10-27_12h14.50.903,arrow_simon_punish,2021.1.2,Win32,120.105693,,,,w,2.7462,6,0,6,0,1,,,,,,,,,,,,,,,,,,,,,,,,,,,,
,,,,,,,,,,,,,,,5c23c03889f035000173d7d7,2021-10-27_12h14.50.903,arrow_simon_punish,2021.1.2,Win32,120.105693,,,,p,11.0017,7,0,7,0,1,,,,,,,,,,,,,,,,,,,,,,,,,,,,
,,,,,,,,,,,,,,,5c23c03889f035000173d7d7,2021-10-27_12h14.50.903,arrow_simon_punish,2021.1.2,Win32,120.105693,,,,p,2.7428,8,0,8,0,1,,,,,,,,,,,,,,,,,,,,,,,,,,,,
,,,,,,,,,,,,,,,5c23c03889f035000173d7d7,2021-10-27_12h14.50.903,arrow_simon_punish,2021.1.2,Win32,120.105693,,,,p,2.5533,9,0,9,0,1,,,,,,,,,,,,,,,,,,,,,,,,,,,,
,,,,,,,,,,,,,,,5c23c03889f035000173d7d7,2021-10-27_12h14.50.903,arrow_simon_punish,2021.1.2,Win32,120.105693,,,,w,2.6755,10,0,10,0,1,,,,,,,,,,,,,,,,,,,,,,,,,,,,
,,,,,,,,,,,,,,,5c23c03889f035000173d7d7,2021-10-27_12h14.50.903,arrow_simon_punish,2021.1.2,Win32,120.105693,,,,p,2.7547,11,0,11,0,1,,,,,,,,,,,,,,,,,,,,,,,,,,,,
,,,,,,,,,,,,,,,5c23c03889f035000173d7d7,2021-10-27_12h14.50.903,arrow_simon_punish,2021.1.2,Win32,120.105693,,,,w,2.7026,12,0,12,0,1,,,,,,,,,,,,,,,,,,,,,,,,,,,,
,,,,,,,,,,,,,,,5c23c03889f035000173d7d7,2021-10-27_12h14.50.903,arrow_simon_punish,2021.1.2,Win32,120.105693,,,,w,2.7332,13,0,13,0,1,,,,,,,,,,,,,,,,,,,,,,,,,,,,
,,,,,,,,,,,,,,,5c23c03889f035000173d7d7,2021-10-27_12h14.50.903,arrow_simon_punish,2021.1.2,Win32,120.105693,,,,w,2.3611,14,0,14,0,1,,,,,,,,,,,,,,,,,,,,,,,,,,,,
,,,,,,,,,,,,,,,5c23c03889f035000173d7d7,2021-10-27_12h14.50.903,arrow_simon_punish,2021.1.2,Win32,120.105693,,,,w,2.6952,15,0,15,0,1,,,,,,,,,,,,,,,,,,,,,,,,,,,,
,,,,,,,,,,,,,,,5c23c03889f035000173d7d7,2021-10-27_12h14.50.903,arrow_simon_punish,2021.1.2,Win32,120.105693,,,,p,2.7052,16,0,16,0,1,,,,,,,,,,,,,,,,,,,,,,,,,,,,
,,,,,,,,,,,,,,,5c23c03889f035000173d7d7,2021-10-27_12h14.50.903,arrow_simon_punish,2021.1.2,Win32,120.105693,,,,p,2.6851,17,0,17,0,1,,,,,,,,,,,,,,,,,,,,,,,,,,,,
,,,,,,,,,,,,,,,5c23c03889f035000173d7d7,2021-10-27_12h14.50.903,arrow_simon_punish,2021.1.2,Win32,120.105693,,,,w,2.7631,18,0,18,0,1,,,,,,,,,,,,,,,,,,,,,,,,,,,,
,,,,,,,,,,,,,,,5c23c03889f035000173d7d7,2021-10-27_12h14.50.903,arrow_simon_punish,2021.1.2,Win32,120.105693,,,,p,2.6582,19,0,19,0,1,,,,,,,,,,,,,,,,,,,,,,,,,,,,
,,,,,,,,,,,,,,,5c23c03889f035000173d7d7,2021-10-27_12h14.50.903,arrow_simon_punish,2021.1.2,Win32,120.105693,,,,w,2.7032,20,0,20,0,1,,,,,,,,,,,,,,,,,,,,,,,,,,,,
,,,,,,,,,,,,,,,5c23c03889f035000173d7d7,2021-10-27_12h14.50.903,arrow_simon_punish,2021.1.2,Win32,120.105693,,,,p,2.6916,21,0,21,0,1,,,,,,,,,,,,,,,,,,,,,,,,,,,,
,,,,,,,,,,,,,,,5c23c03889f035000173d7d7,2021-10-27_12h14.50.903,arrow_simon_punish,2021.1.2,Win32,120.105693,,,,p,2.542,22,0,22,0,1,,,,,,,,,,,,,,,,,,,,,,,,,,,,
,,,,,,,,,,,,,,,5c23c03889f035000173d7d7,2021-10-27_12h14.50.903,arrow_simon_punish,2021.1.2,Win32,120.105693,,,,p,2.8018,23,0,23,0,1,,,,,,,,,,,,,,,,,,,,,,,,,,,,
,,,,,,,,,,,,,,,5c23c03889f035000173d7d7,2021-10-27_12h14.50.903,arrow_simon_punish,2021.1.2,Win32,120.105693,,,,p,2.7139,24,0,24,0,1,,,,,,,,,,,,,,,,,,,,,,,,,,,,
,,,,,,,,,,,,,,,5c23c03889f035000173d7d7,2021-10-27_12h14.50.903,arrow_simon_punish,2021.1.2,Win32,120.105693,,,,w,4.7437,25,0,25,0,1,,,,,,,,,,,,,,,,,,,,,,,,,,,,
,,,,,,,,,,,,,,,5c23c03889f035000173d7d7,2021-10-27_12h14.50.903,arrow_simon_punish,2021.1.2,Win32,120.105693,,,,p,2.7776,26,0,26,0,1,,,,,,,,,,,,,,,,,,,,,,,,,,,,
,,,,,,,,,,,,,,,5c23c03889f035000173d7d7,2021-10-27_12h14.50.903,arrow_simon_punish,2021.1.2,Win32,120.105693,,,,w,2.6602,27,0,27,0,1,,,,,,,,,,,,,,,,,,,,,,,,,,,,
,,,,,,,,,,,,,,,5c23c03889f035000173d7d7,2021-10-27_12h14.50.903,arrow_simon_punish,2021.1.2,Win32,120.105693,,,,p,2.3967,28,0,28,0,1,,,,,,,,,,,,,,,,,,,,,,,,,,,,
,,,,,,,,,,,,,,,5c23c03889f035000173d7d7,2021-10-27_12h14.50.903,arrow_simon_punish,2021.1.2,Win32,120.105693,,,,w,2.7634,29,0,29,0,1,,,,,,,,,,,,,,,,,,,,,,,,,,,,
,,,,,,,,,,,,,,,5c23c03889f035000173d7d7,2021-10-27_12h14.50.903,arrow_simon_punish,2021.1.2,Win32,120.105693,,,,p,2.4783,30,0,30,0,1,,,,,,,,,,,,,,,,,,,,,,,,,,,,
,,,,,,,,,,,,,,,5c23c03889f035000173d7d7,2021-10-27_12h14.50.903,arrow_simon_punish,2021.1.2,Win32,120.105693,,,,p,2.7703,31,0,31,0,1,,,,,,,,,,,,,,,,,,,,,,,,,,,,
,,,,,,,,,,,,,,,5c23c03889f035000173d7d7,2021-10-27_12h14.50.903,arrow_simon_punish,2021.1.2,Win32,120.105693,,,,p,2.0759,32,0,32,0,1,,,,,,,,,,,,,,,,,,,,,,,,,,,,
,,,,,,,,,,,,,,,5c23c03889f035000173d7d7,2021-10-27_12h14.50.903,arrow_simon_punish,2021.1.2,Win32,120.105693,,,,p,2.3626,33,0,33,0,1,,,,,,,,,,,,,,,,,,,,,,,,,,,,
,,,,,,,,,,,,,,,5c23c03889f035000173d7d7,2021-10-27_12h14.50.903,arrow_simon_punish,2021.1.2,Win32,120.105693,,,,w,2.6882,34,0,34,0,1,,,,,,,,,,,,,,,,,,,,,,,,,,,,
,,,,,,,,,,,,,,,5c23c03889f035000173d7d7,2021-10-27_12h14.50.903,arrow_simon_punish,2021.1.2,Win32,120.105693,,,,p,2.4845,35,0,35,0,1,,,,,,,,,,,,,,,,,,,,,,,,,,,,
,,,,,,,,,,,,,,,5c23c03889f035000173d7d7,2021-10-27_12h14.50.903,arrow_simon_punish,2021.1.2,Win32,120.105693,,,,w,2.7976,36,0,36,0,1,,,,,,,,,,,,,,,,,,,,,,,,,,,,
,,,,,,,,,,,,,,,5c23c03889f035000173d7d7,2021-10-27_12h14.50.903,arrow_simon_punish,2021.1.2,Win32,120.105693,,,,p,2.7172,37,0,37,0,1,,,,,,,,,,,,,,,,,,,,,,,,,,,,
,,,,,,,,,,,,,,,5c23c03889f035000173d7d7,2021-10-27_12h14.50.903,arrow_simon_punish,2021.1.2,Win32,120.105693,,,,w,2.7523,38,0,38,0,1,,,,,,,,,,,,,,,,,,,,,,,,,,,,
,,,,,,,,,,,,,,,5c23c03889f035000173d7d7,2021-10-27_12h14.50.903,arrow_simon_punish,2021.1.2,Win32,120.105693,,,,w,2.6797,39,0,39,0,1,,,,,,,,,,,,,,,,,,,,,,,,,,,,
,,,,,,,,,,,,,,,5c23c03889f035000173d7d7,2021-10-27_12h14.50.903,arrow_simon_punish,2021.1.2,Win32,120.105693,,,,w,2.8783,40,0,40,0,1,,,,,,,,,,,,,,,,,,,,,,,,,,,,
,,,,,,,,,,,,,,,5c23c03889f035000173d7d7,2021-10-27_12h14.50.903,arrow_simon_punish,2021.1.2,Win32,120.105693,,,,w,2.5003,41,0,41,0,1,,,,,,,,,,,,,,,,,,,,,,,,,,,,
,,,,,,,,,,,,,,,5c23c03889f035000173d7d7,2021-10-27_12h14.50.903,arrow_simon_punish,2021.1.2,Win32,120.105693,,,,w,2.077,42,0,42,0,1,,,,,,,,,,,,,,,,,,,,,,,,,,,,
,,,,,,,,,,,,,,,5c23c03889f035000173d7d7,2021-10-27_12h14.50.903,arrow_simon_punish,2021.1.2,Win32,120.105693,,,,w,2.775,43,0,43,0,1,,,,,,,,,,,,,,,,,,,,,,,,,,,,
,,,,,,,,,,,,,,,5c23c03889f035000173d7d7,2021-10-27_12h14.50.903,arrow_simon_punish,2021.1.2,Win32,120.105693,,,,w,2.8085,44,0,44,0,1,,,,,,,,,,,,,,,,,,,,,,,,,,,,
,,,,,,,,,,,,,,,5c23c03889f035000173d7d7,2021-10-27_12h14.50.903,arrow_simon_punish,2021.1.2,Win32,120.105693,,,,p,2.7165,45,0,45,0,1,,,,,,,,,,,,,,,,,,,,,,,,,,,,
,,,,,,,,,,,,,,,5c23c03889f035000173d7d7,2021-10-27_12h14.50.903,arrow_simon_punish,2021.1.2,Win32,120.105693,,,,w,2.5972,46,0,46,0,1,,,,,,,,,,,,,,,,,,,,,,,,,,,,
,,,,,,,,,,,,,,,5c23c03889f035000173d7d7,2021-10-27_12h14.50.903,arrow_simon_punish,2021.1.2,Win32,120.105693,,,,p,3.0858,47,0,47,0,1,,,,,,,,,,,,,,,,,,,,,,,,,,,,
,,,,,,,,,,,,,,,5c23c03889f035000173d7d7,2021-10-27_12h14.50.903,arrow_simon_punish,2021.1.2,Win32,120.105693,,,,w,2.4334,48,0,48,0,1,,,,,,,,,,,,,,,,,,,,,,,,,,,,
,,,,,,,,,,,,,,,5c23c03889f035000173d7d7,2021-10-27_12h14.50.903,arrow_simon_punish,2021.1.2,Win32,120.105693,,,,w,2.4049,49,0,49,0,1,,,,,,,,,,,,,,,,,,,,,,,,,,,,
,,,,,,,,,,,,,,,5c23c03889f035000173d7d7,2021-10-27_12h14.50.903,arrow_simon_punish,2021.1.2,Win32,120.105693,,,,w,2.3749,50,0,50,0,1,,,,,,,,,,,,,,,,,,,,,,,,,,,,
,,,,,,,,,,,,,,,5c23c03889f035000173d7d7,2021-10-27_12h14.50.903,arrow_simon_punish,2021.1.2,Win32,120.105693,,,,w,2.5464,51,0,51,0,1,,,,,,,,,,,,,,,,,,,,,,,,,,,,
,,,,,,,,,,,,,,,5c23c03889f035000173d7d7,2021-10-27_12h14.50.903,arrow_simon_punish,2021.1.2,Win32,120.105693,,,,w,2.5753,52,0,52,0,1,,,,,,,,,,,,,,,,,,,,,,,,,,,,
,,,,,,,,,,,,,,,5c23c03889f035000173d7d7,2021-10-27_12h14.50.903,arrow_simon_punish,2021.1.2,Win32,120.105693,,,,w,2.3838,53,0,53,0,1,,,,,,,,,,,,,,,,,,,,,,,,,,,,
,,,,,,,,,,,,,,,5c23c03889f035000173d7d7,2021-10-27_12h14.50.903,arrow_simon_punish,2021.1.2,Win32,120.105693,,,,w,2.3678,54,0,54,0,1,,,,,,,,,,,,,,,,,,,,,,,,,,,,
,,,,,,,,,,,,,,,5c23c03889f035000173d7d7,2021-10-27_12h14.50.903,arrow_simon_punish,2021.1.2,Win32,120.105693,,,,w,2.5171,55,0,55,0,1,,,,,,,,,,,,,,,,,,,,,,,,,,,,
,,,,,,,,,,,,,,,5c23c03889f035000173d7d7,2021-10-27_12h14.50.903,arrow_simon_punish,2021.1.2,Win32,120.105693,,,,w,2.712,56,0,56,0,1,,,,,,,,,,,,,,,,,,,,,,,,,,,,
,,,,,,,,,,,,,,,5c23c03889f035000173d7d7,2021-10-27_12h14.50.903,arrow_simon_punish,2021.1.2,Win32,120.105693,,,,w,2.8284,57,0,57,0,1,,,,,,,,,,,,,,,,,,,,,,,,,,,,
,,,,,,,,,,,,,,,5c23c03889f035000173d7d7,2021-10-27_12h14.50.903,arrow_simon_punish,2021.1.2,Win32,120.105693,,,,w,2.7417,58,0,58,0,1,,,,,,,,,,,,,,,,,,,,,,,,,,,,
,,,,,,,,,,,,,,,5c23c03889f035000173d7d7,2021-10-27_12h14.50.903,arrow_simon_punish,2021.1.2,Win32,120.105693,,,,w,2.4279,59,0,59,0,1,,,,,,,,,,,,,,,,,,,,,,,,,,,,
,,,,,,,,,,,right.png,,p,left,5c23c03889f035000173d7d7,2021-10-27_12h14.50.903,arrow_simon_punish,2021.1.2,Win32,120.105693,,,,,,,,,,,space,0,34.3512,w,0,1.1717,1.916526706,1,1,0,0,0,0,1,,,,,,,,,,,,,,
,,,,,,,,,,,left.png,,w,right,5c23c03889f035000173d7d7,2021-10-27_12h14.50.903,arrow_simon_punish,2021.1.2,Win32,120.105693,,,,,,,,,,,,,,w,1,0.8954,1.563203604,1,1,0,1,1,3,1,,,,,,,,,,,,,,
,,,,,,,,,,,left.png,,w,right,5c23c03889f035000173d7d7,2021-10-27_12h14.50.903,arrow_simon_punish,2021.1.2,Win32,120.105693,,,,,,,,,,,,,,w,1,1.2854,1.962479988,1,1,0,2,2,3,1,,,,,,,,,,,,,,
,,,,,,,,,,,left.png,,w,right,5c23c03889f035000173d7d7,2021-10-27_12h14.50.903,arrow_simon_punish,2021.1.2,Win32,120.105693,,,,,,,,,,,,,,w,1,1.4426,2.240381096,0,1,0,3,3,3,1,,,,,,,,,,,,,,
,,,,,,,,,,,right.png,,p,left,5c23c03889f035000173d7d7,2021-10-27_12h14.50.903,arrow_simon_punish,2021.1.2,Win32,120.105693,,,,,,,,,,,,,,w,0,1.3391,2.082861634,1,1,1,0,4,0,1,,,,,,,,,,,,,,
,,,,,,,,,,,left.png,,w,right,5c23c03889f035000173d7d7,2021-10-27_12h14.50.903,arrow_simon_punish,2021.1.2,Win32,120.105693,,,,,,,,,,,,,,w,1,1.3592,2.019346306,1,1,1,1,5,3,1,,,,,,,,,,,,,,
,,,,,,,,,,,right.png,,p,right,5c23c03889f035000173d7d7,2021-10-27_12h14.50.903,arrow_simon_punish,2021.1.2,Win32,120.105693,,,,,,,,,,,,,,p,1,1.6683,2.2483847,1,1,1,2,6,1,1,,,,,,,,,,,,,,
,,,,,,,,,,,left.png,,w,right,5c23c03889f035000173d7d7,2021-10-27_12h14.50.903,arrow_simon_punish,2021.1.2,Win32,120.105693,,,,,,,,,,,,,,w,1,1.0836,1.598910746,1,1,1,3,7,3,1,,,,,,,,,,,,,,
,,,,,,,,,,,left.png,,w,left,5c23c03889f035000173d7d7,2021-10-27_12h14.50.903,arrow_simon_punish,2021.1.2,Win32,120.105693,,,,,,,,,,,,,,w,1,1.1138,1.847756671,1,1,2,0,8,2,1,,,,,,,,,,,,,,
,,,,,,,,,,,left.png,,w,left,5c23c03889f035000173d7d7,2021-10-27_12h14.50.903,arrow_simon_punish,2021.1.2,Win32,120.105693,,,,,,,,,,,,,,w,1,1.1253,1.837357739,1,1,2,1,9,2,1,,,,,,,,,,,,,,
,,,,,,,,,,,right.png,,p,left,5c23c03889f035000173d7d7,2021-10-27_12h14.50.903,arrow_simon_punish,2021.1.2,Win32,120.105693,,,,,,,,,,,,,,w,0,1.022,2.220998923,1,1,2,2,10,0,1,,,,,,,,,,,,,,
,,,,,,,,,,,right.png,,p,left,5c23c03889f035000173d7d7,2021-10-27_12h14.50.903,arrow_simon_punish,2021.1.2,Win32,120.105693,,,,,,,,,,,,,,w,0,1.4089,2.217593356,1,1,2,3,11,0,1,,,,,,,,,,,,,,
,,,,,,,,,,,left.png,,w,left,5c23c03889f035000173d7d7,2021-10-27_12h14.50.903,arrow_simon_punish,2021.1.2,Win32,120.105693,,,,,,,,,,,,,,w,1,1.292,2.24380947,1,1,3,0,12,2,1,,,,,,,,,,,,,,
,,,,,,,,,,,right.png,,p,right,5c23c03889f035000173d7d7,2021-10-27_12h14.50.903,arrow_simon_punish,2021.1.2,Win32,120.105693,,,,,,,,,,,,,,w,0,1.4265,2.113952059,1,1,3,1,13,1,1,,,,,,,,,,,,,,
,,,,,,,,,,,right.png,,p,left,5c23c03889f035000173d7d7,2021-10-27_12h14.50.903,arrow_simon_punish,2021.1.2,Win32,120.105693,,,,,,,,,,,,,,w,0,1.7772,2.486064962,1,1,3,2,14,0,1,,,,,,,,,,,,,,
,,,,,,,,,,,left.png,,w,left,5c23c03889f035000173d7d7,2021-10-27_12h14.50.903,arrow_simon_punish,2021.1.2,Win32,120.105693,,,,,,,,,,,,,,w,1,0.9922,1.657324787,1,1,3,3,15,2,1,,,,,,,,,,,,,,
,,,,,,,,,,,right.png,,p,right,5c23c03889f035000173d7d7,2021-10-27_12h14.50.903,arrow_simon_punish,2021.1.2,Win32,120.105693,,,,,,,,,,,,,,w,0,1.1003,1.728788962,1,1,4,0,16,1,1,,,,,,,,,,,,,,
,,,,,,,,,,,right.png,,p,right,5c23c03889f035000173d7d7,2021-10-27_12h14.50.903,arrow_simon_punish,2021.1.2,Win32,120.105693,,,,,,,,,,,,,,p,1,1.592,2.315075468,0,1,4,1,17,1,1,,,,,,,,,,,,,,
,,,,,,,,,,,left.png,,w,left,5c23c03889f035000173d7d7,2021-10-27_12h14.50.903,arrow_simon_punish,2021.1.2,Win32,120.105693,,,,,,,,,,,,,,w,1,1.1039,1.793558108,1,1,4,2,18,2,1,,,,,,,,,,,,,,
,,,,,,,,,,,left.png,,w,left,5c23c03889f035000173d7d7,2021-10-27_12h14.50.903,arrow_simon_punish,2021.1.2,Win32,120.105693,,,,,,,,,,,,,,w,1,1.8087,2.334646329,1,1,4,3,19,2,1,,,,,,,,,,,,,,
,,,,,,,,,,,right.png,,p,left,5c23c03889f035000173d7d7,2021-10-27_12h14.50.903,arrow_simon_punish,2021.1.2,Win32,120.105693,,,,,,,,,,,,,,w,0,0.8919,1.565670134,1,1,5,0,20,0,1,,,,,,,,,,,,,,
,,,,,,,,,,,left.png,,w,right,5c23c03889f035000173d7d7,2021-10-27_12h14.50.903,arrow_simon_punish,2021.1.2,Win32,120.105693,,,,,,,,,,,,,,p,0,1.3215,1.935601646,1,1,5,1,21,3,1,,,,,,,,,,,,,,
,,,,,,,,,,,right.png,,p,right,5c23c03889f035000173d7d7,2021-10-27_12h14.50.903,arrow_simon_punish,2021.1.2,Win32,120.105693,,,,,,,,,,,,,,p,1,1.5767,2.233883385,0,1,5,2,22,1,1,,,,,,,,,,,,,,
,,,,,,,,,,,left.png,,w,right,5c23c03889f035000173d7d7,2021-10-27_12h14.50.903,arrow_simon_punish,2021.1.2,Win32,120.105693,,,,,,,,,,,,,,w,1,0.9502,1.553360969,1,1,5,3,23,3,1,,,,,,,,,,,,,,
,,,,,,,,,,,right.png,,p,right,5c23c03889f035000173d7d7,2021-10-27_12h14.50.903,arrow_simon_punish,2021.1.2,Win32,120.105693,,,,,,,,,,,,,,p,1,1.3752,2.018753547,1,1,6,0,24,1,1,,,,,,,,,,,,,,
,,,,,,,,,,,left.png,,w,left,5c23c03889f035000173d7d7,2021-10-27_12h14.50.903,arrow_simon_punish,2021.1.2,Win32,120.105693,,,,,,,,,,,,,,w,1,2.0562,1.746748394,1,1,6,1,25,2,1,,,,,,,,,,,,,,
,,,,,,,,,,,left.png,,w,left,5c23c03889f035000173d7d7,2021-10-27_12h14.50.903,arrow_simon_punish,2021.1.2,Win32,120.105693,,,,,,,,,,,,,,w,1,1.5219,2.216976083,0,1,6,2,26,2,1,,,,,,,,,,,,,,
,,,,,,,,,,,left.png,,w,left,5c23c03889f035000173d7d7,2021-10-27_12h14.50.903,arrow_simon_punish,2021.1.2,Win32,120.105693,,,,,,,,,,,,,,w,1,1.8174,2.495644234,1,1,6,3,27,2,1,,,,,,,,,,,,,,
,,,,,,,,,,,right.png,,p,left,5c23c03889f035000173d7d7,2021-10-27_12h14.50.903,arrow_simon_punish,2021.1.2,Win32,120.105693,,,,,,,,,,,,,,p,1,1.6922,2.260232064,1,1,7,0,28,0,1,,,,,,,,,,,,,,
,,,,,,,,,,,right.png,,p,right,5c23c03889f035000173d7d7,2021-10-27_12h14.50.903,arrow_simon_punish,2021.1.2,Win32,120.105693,,,,,,,,,,,,,,p,1,1.2028,1.816914563,1,1,7,1,29,1,1,,,,,,,,,,,,,,
,,,,,,,,,,,right.png,,p,left,5c23c03889f035000173d7d7,2021-10-27_12h14.50.903,arrow_simon_punish,2021.1.2,Win32,120.105693,,,,,,,,,,,,,,w,0,1.5186,2.014141008,1,1,7,2,30,0,1,,,,,,,,,,,,,,
,,,,,,,,,,,right.png,,p,right,5c23c03889f035000173d7d7,2021-10-27_12h14.50.903,arrow_simon_punish,2021.1.2,Win32,120.105693,,,,,,,,,,,,,,p,1,1.2118,1.837602053,1,1,7,3,31,1,1,,,,,,,,,,,,,,
,,,,,,,,,,,right.png,,p,left,5c23c03889f035000173d7d7,2021-10-27_12h14.50.903,arrow_simon_punish,2021.1.2,Win32,120.105693,,,,,,,,,,,,,,p,1,1.4268,1.904245966,0,1,8,0,32,0,1,,,,,,,,,,,,,,
,,,,,,,,,,,right.png,,p,left,5c23c03889f035000173d7d7,2021-10-27_12h14.50.903,arrow_simon_punish,2021.1.2,Win32,120.105693,,,,,,,,,,,,,,p,1,1.8542,2.281360477,1,1,8,1,33,0,1,,,,,,,,,,,,,,
,,,,,,,,,,,left.png,,w,left,5c23c03889f035000173d7d7,2021-10-27_12h14.50.903,arrow_simon_punish,2021.1.2,Win32,120.105693,,,,,,,,,,,,,,w,1,1.2542,1.670695411,1,1,8,2,34,2,1,,,,,,,,,,,,,,
,,,,,,,,,,,left.png,,w,left,5c23c03889f035000173d7d7,2021-10-27_12h14.50.903,arrow_simon_punish,2021.1.2,Win32,120.105693,,,,,,,,,,,,,,w,1,1.7337,2.129168799,1,1,8,3,35,2,1,,,,,,,,,,,,,,
,,,,,,,,,,,right.png,,p,left,5c23c03889f035000173d7d7,2021-10-27_12h14.50.903,arrow_simon_punish,2021.1.2,Win32,120.105693,,,,,,,,,,,,,,p,1,1.567,1.998465353,0,1,9,0,36,0,1,,,,,,,,,,,,,,
,,,,,,,,,,,right.png,,p,right,5c23c03889f035000173d7d7,2021-10-27_12h14.50.903,arrow_simon_punish,2021.1.2,Win32,120.105693,,,,,,,,,,,,,,p,1,1.6434,2.336538177,1,1,9,1,37,1,1,,,,,,,,,,,,,,
,,,,,,,,,,,left.png,,w,right,5c23c03889f035000173d7d7,2021-10-27_12h14.50.903,arrow_simon_punish,2021.1.2,Win32,120.105693,,,,,,,,,,,,,,w,1,1.1299,1.655048301,1,1,9,2,38,3,1,,,,,,,,,,,,,,
,,,,,,,,,,,left.png,,w,right,5c23c03889f035000173d7d7,2021-10-27_12h14.50.903,arrow_simon_punish,2021.1.2,Win32,120.105693,,,,,,,,,,,,,,w,1,0.9966,1.543494295,1,1,9,3,39,3,1,,,,,,,,,,,,,,
,,,,,,,,,,,left.png,,w,right,5c23c03889f035000173d7d7,2021-10-27_12h14.50.903,arrow_simon_punish,2021.1.2,Win32,120.105693,,,,,,,,,,,,,,w,1,0.8255,1.878473253,1,1,10,0,40,3,1,,,,,,,,,,,,,,
,,,,,,,,,,,right.png,,p,right,5c23c03889f035000173d7d7,2021-10-27_12h14.50.903,arrow_simon_punish,2021.1.2,Win32,120.105693,,,,,,,,,,,,,,p,1,1.7504,2.206912565,1,1,10,1,41,1,1,,,,,,,,,,,,,,
,,,,,,,,,,,right.png,,p,left,5c23c03889f035000173d7d7,2021-10-27_12h14.50.903,arrow_simon_punish,2021.1.2,Win32,120.105693,,,,,,,,,,,,,,p,1,1.3168,1.842877083,1,1,10,2,42,0,1,,,,,,,,,,,,,,
,,,,,,,,,,,left.png,,w,right,5c23c03889f035000173d7d7,2021-10-27_12h14.50.903,arrow_simon_punish,2021.1.2,Win32,120.105693,,,,,,,,,,,,,,w,1,1.017,1.548830929,1,1,10,3,43,3,1,,,,,,,,,,,,,,
,,,,,,,,,,,right.png,,p,right,5c23c03889f035000173d7d7,2021-10-27_12h14.50.903,arrow_simon_punish,2021.1.2,Win32,120.105693,,,,,,,,,,,,,,p,1,1.492,1.882674686,0,1,11,0,44,1,1,,,,,,,,,,,,,,
,,,,,,,,,,,right.png,,p,right,5c23c03889f035000173d7d7,2021-10-27_12h14.50.903,arrow_simon_punish,2021.1.2,Win32,120.105693,,,,,,,,,,,,,,p,1,1.7004,1.58902918,1,1,11,1,45,1,1,,,,,,,,,,,,,,
,,,,,,,,,,,right.png,,p,right,5c23c03889f035000173d7d7,2021-10-27_12h14.50.903,arrow_simon_punish,2021.1.2,Win32,120.105693,,,,,,,,,,,,,,p,1,1.0669,1.711287394,1,1,11,2,46,1,1,,,,,,,,,,,,,,
,,,,,,,,,,,right.png,,p,left,5c23c03889f035000173d7d7,2021-10-27_12h14.50.903,arrow_simon_punish,2021.1.2,Win32,120.105693,,,,,,,,,,,,,,p,1,1.2421,1.532896977,1,1,11,3,47,0,1,,,,,,,,,,,,,,
,,,,,,,,,,,left.png,,w,left,5c23c03889f035000173d7d7,2021-10-27_12h14.50.903,arrow_simon_punish,2021.1.2,Win32,120.105693,,,,,,,,,,,,,,w,1,2.0086,2.454729004,1,1,12,0,48,2,1,,,,,,,,,,,,,,
,,,,,,,,,,,right.png,,p,left,5c23c03889f035000173d7d7,2021-10-27_12h14.50.903,arrow_simon_punish,2021.1.2,Win32,120.105693,,,,,,,,,,,,,,p,1,1.6757,2.218292206,1,1,12,1,49,0,1,,,,,,,,,,,,,,
,,,,,,,,,,,right.png,,p,right,5c23c03889f035000173d7d7,2021-10-27_12h14.50.903,arrow_simon_punish,2021.1.2,Win32,120.105693,,,,,,,,,,,,,,p,1,1.0086,1.670025158,1,1,12,2,50,1,1,,,,,,,,,,,,,,
,,,,,,,,,,,left.png,,w,right,5c23c03889f035000173d7d7,2021-10-27_12h14.50.903,arrow_simon_punish,2021.1.2,Win32,120.105693,,,,,,,,,,,,,,p,0,0.917,1.548388737,1,1,12,3,51,3,1,,,,,,,,,,,,,,
,,,,,,,,,,,left.png,,w,left,5c23c03889f035000173d7d7,2021-10-27_12h14.50.903,arrow_simon_punish,2021.1.2,Win32,120.105693,,,,,,,,,,,,,,w,1,1.0003,1.698451009,1,1,13,0,52,2,1,,,,,,,,,,,,,,
,,,,,,,,,,,left.png,,w,right,5c23c03889f035000173d7d7,2021-10-27_12h14.50.903,arrow_simon_punish,2021.1.2,Win32,120.105693,,,,,,,,,,,,,,w,1,1.884,2.240973091,1,1,13,1,53,3,1,,,,,,,,,,,,,,
,,,,,,,,,,,left.png,,w,left,5c23c03889f035000173d7d7,2021-10-27_12h14.50.903,arrow_simon_punish,2021.1.2,Win32,120.105693,,,,,,,,,,,,,,w,1,1.2504,1.562757539,1,1,13,2,54,2,1,,,,,,,,,,,,,,
,,,,,,,,,,,left.png,,w,right,5c23c03889f035000173d7d7,2021-10-27_12h14.50.903,arrow_simon_punish,2021.1.2,Win32,120.105693,,,,,,,,,,,,,,w,1,1.1957,1.785645652,1,1,13,3,55,3,1,,,,,,,,,,,,,,
,,,,,,,,,,,left.png,,w,right,5c23c03889f035000173d7d7,2021-10-27_12h14.50.903,arrow_simon_punish,2021.1.2,Win32,120.105693,,,,,,,,,,,,,,w,1,1.4947,1.943260379,0,1,14,0,56,3,1,,,,,,,,,,,,,,
,,,,,,,,,,,right.png,,p,left,5c23c03889f035000173d7d7,2021-10-27_12h14.50.903,arrow_simon_punish,2021.1.2,Win32,120.105693,,,,,,,,,,,,,,p,1,1.2175,1.571823981,1,1,14,1,57,0,1,,,,,,,,,,,,,,
,,,,,,,,,,,left.png,,w,left,5c23c03889f035000173d7d7,2021-10-27_12h14.50.903,arrow_simon_punish,2021.1.2,Win32,120.105693,,,,,,,,,,,,,,w,1,1.6291,2.22399089,1,1,14,2,58,2,1,,,,,,,,,,,,,,
,,,,,,,,,,,right.png,,p,right,5c23c03889f035000173d7d7,2021-10-27_12h14.50.903,arrow_simon_punish,2021.1.2,Win32,120.105693,,,,,,,,,,,,,,p,1,1.3133,1.879478213,1,1,14,3,59,1,1,,,,,,,,,,,,,,
,,,,,,,,,,,,,,,5c23c03889f035000173d7d7,2021-10-27_12h14.50.903,arrow_simon_punish,2021.1.2,Win32,120.105693,,,,,,,,,,,,,,,,,,,,,,,,,space,13.7989,2,0,0,0,0,1,1,,,,,
,,,,,,,,,,,left.png,,w,right,5c23c03889f035000173d7d7,2021-10-27_12h14.50.903,arrow_simon_punish,2021.1.2,Win32,120.105693,,,,,,,,,,,,,,w,1,1.8798,2.282493723,1,5,0,0,0,3,1,,,,,,,,,,,,,,
,,,,,,,,,,,left.png,,w,left,5c23c03889f035000173d7d7,2021-10-27_12h14.50.903,arrow_simon_punish,2021.1.2,Win32,120.105693,,,,,,,,,,,,,,w,1,0.9837,1.616672261,1,5,0,1,1,2,1,,,,,,,,,,,,,,
,,,,,,,,,,,right.png,,p,left,5c23c03889f035000173d7d7,2021-10-27_12h14.50.903,arrow_simon_punish,2021.1.2,Win32,120.105693,,,,,,,,,,,,,,p,1,1.4942,2.023773985,0,5,0,2,2,0,1,,,,,,,,,,,,,,
,,,,,,,,,,,right.png,,p,left,5c23c03889f035000173d7d7,2021-10-27_12h14.50.903,arrow_simon_punish,2021.1.2,Win32,120.105693,,,,,,,,,,,,,,p,1,1.8379,2.35008956,1,5,0,3,3,0,1,,,,,,,,,,,,,,
,,,,,,,,,,,right.png,,p,right,5c23c03889f035000173d7d7,2021-10-27_12h14.50.903,arrow_simon_punish,2021.1.2,Win32,120.105693,,,,,,,,,,,,,,p,1,1.7837,2.342749114,1,5,1,0,4,1,1,,,,,,,,,,,,,,
,,,,,,,,,,,left.png,,w,right,5c23c03889f035000173d7d7,2021-10-27_12h14.50.903,arrow_simon_punish,2021.1.2,Win32,120.105693,,,,,,,,,,,,,,w,1,0.8259,1.709890984,1,5,1,1,5,3,1,,,,,,,,,,,,,,
,,,,,,,,,,,right.png,,p,right,5c23c03889f035000173d7d7,2021-10-27_12h14.50.903,arrow_simon_punish,2021.1.2,Win32,120.105693,,,,,,,,,,,,,,p,1,1.917,2.476718912,1,5,1,2,6,1,1,,,,,,,,,,,,,,
,,,,,,,,,,,right.png,,p,left,5c23c03889f035000173d7d7,2021-10-27_12h14.50.903,arrow_simon_punish,2021.1.2,Win32,120.105693,,,,,,,,,,,,,,p,1,1.2382,1.710364393,1,5,1,3,7,0,1,,,,,,,,,,,,,,
,,,,,,,,,,,left.png,,w,right,5c23c03889f035000173d7d7,2021-10-27_12h14.50.903,arrow_simon_punish,2021.1.2,Win32,120.105693,,,,,,,,,,,,,,w,1,1.729,1.617297132,1,5,2,0,8,3,1,,,,,,,,,,,,,,
,,,,,,,,,,,left.png,,w,right,5c23c03889f035000173d7d7,2021-10-27_12h14.50.903,arrow_simon_punish,2021.1.2,Win32,120.105693,,,,,,,,,,,,,,w,1,1.7886,2.233158989,1,5,2,1,9,3,1,,,,,,,,,,,,,,
,,,,,,,,,,,left.png,,w,left,5c23c03889f035000173d7d7,2021-10-27_12h14.50.903,arrow_simon_punish,2021.1.2,Win32,120.105693,,,,,,,,,,,,,,w,1,1.8005,2.300285286,1,5,2,2,10,2,1,,,,,,,,,,,,,,
,,,,,,,,,,,right.png,,p,left,5c23c03889f035000173d7d7,2021-10-27_12h14.50.903,arrow_simon_punish,2021.1.2,Win32,120.105693,,,,,,,,,,,,,,p,1,0.9976,1.581539343,1,5,2,3,11,0,1,,,,,,,,,,,,,,
,,,,,,,,,,,left.png,,w,right,5c23c03889f035000173d7d7,2021-10-27_12h14.50.903,arrow_simon_punish,2021.1.2,Win32,120.105693,,,,,,,,,,,,,,w,1,1.2188,1.678376363,1,5,3,0,12,3,1,,,,,,,,,,,,,,
,,,,,,,,,,,left.png,,w,left,5c23c03889f035000173d7d7,2021-10-27_12h14.50.903,arrow_simon_punish,2021.1.2,Win32,120.105693,,,,,,,,,,,,,,w,1,1.1443,1.542301585,1,5,3,1,13,2,1,,,,,,,,,,,,,,
,,,,,,,,,,,right.png,,p,right,5c23c03889f035000173d7d7,2021-10-27_12h14.50.903,arrow_simon_punish,2021.1.2,Win32,120.105693,,,,,,,,,,,,,,p,1,1.8367,2.175658995,1,5,3,2,14,1,1,,,,,,,,,,,,,,
,,,,,,,,,,,right.png,,p,right,5c23c03889f035000173d7d7,2021-10-27_12h14.50.903,arrow_simon_punish,2021.1.2,Win32,120.105693,,,,,,,,,,,,,,p,1,1.4834,1.632839889,0,5,3,3,15,1,1,,,,,,,,,,,,,,
,,,,,,,,,,,right.png,,p,right,5c23c03889f035000173d7d7,2021-10-27_12h14.50.903,arrow_simon_punish,2021.1.2,Win32,120.105693,,,,,,,,,,,,,,p,1,1.5508,1.606788684,0,5,4,0,16,1,1,,,,,,,,,,,,,,
,,,,,,,,,,,left.png,,w,left,5c23c03889f035000173d7d7,2021-10-27_12h14.50.903,arrow_simon_punish,2021.1.2,Win32,120.105693,,,,,,,,,,,,,,w,1,1.2925,1.785635037,1,5,4,1,17,2,1,,,,,,,,,,,,,,
,,,,,,,,,,,left.png,,w,right,5c23c03889f035000173d7d7,2021-10-27_12h14.50.903,arrow_simon_punish,2021.1.2,Win32,120.105693,,,,,,,,,,,,,,w,1,2.2843,2.08495122,1,5,4,2,18,3,1,,,,,,,,,,,,,,
,,,,,,,,,,,right.png,,p,left,5c23c03889f035000173d7d7,2021-10-27_12h14.50.903,arrow_simon_punish,2021.1.2,Win32,120.105693,,,,,,,,,,,,,,p,1,2.0947,2.339735372,1,5,4,3,19,0,1,,,,,,,,,,,,,,
,,,,,,,,,,,left.png,,w,left,5c23c03889f035000173d7d7,2021-10-27_12h14.50.903,arrow_simon_punish,2021.1.2,Win32,120.105693,,,,,,,,,,,,,,w,1,1.5285,1.826863811,0,5,5,0,20,2,1,,,,,,,,,,,,,,
,,,,,,,,,,,right.png,,p,left,5c23c03889f035000173d7d7,2021-10-27_12h14.50.903,arrow_simon_punish,2021.1.2,Win32,120.105693,,,,,,,,,,,,,,p,1,1.8128,2.268445191,1,5,5,1,21,0,1,,,,,,,,,,,,,,
,,,,,,,,,,,right.png,,p,right,5c23c03889f035000173d7d7,2021-10-27_12h14.50.903,arrow_simon_punish,2021.1.2,Win32,120.105693,,,,,,,,,,,,,,p,1,1.6974,1.965710369,1,5,5,2,22,1,1,,,,,,,,,,,,,,
,,,,,,,,,,,left.png,,w,left,5c23c03889f035000173d7d7,2021-10-27_12h14.50.903,arrow_simon_punish,2021.1.2,Win32,120.105693,,,,,,,,,,,,,,w,1,1.0786,1.657812746,1,5,5,3,23,2,1,,,,,,,,,,,,,,
,,,,,,,,,,,right.png,,p,right,5c23c03889f035000173d7d7,2021-10-27_12h14.50.903,arrow_simon_punish,2021.1.2,Win32,120.105693,,,,,,,,,,,,,,p,1,1.9167,2.388168299,1,5,6,0,24,1,1,,,,,,,,,,,,,,
,,,,,,,,,,,right.png,,p,left,5c23c03889f035000173d7d7,2021-10-27_12h14.50.903,arrow_simon_punish,2021.1.2,Win32,120.105693,,,,,,,,,,,,,,p,1,1.7338,1.549196138,1,5,6,1,25,0,1,,,,,,,,,,,,,,
,,,,,,,,,,,left.png,,w,right,5c23c03889f035000173d7d7,2021-10-27_12h14.50.903,arrow_simon_punish,2021.1.2,Win32,120.105693,,,,,,,,,,,,,,w,1,1.7338,1.627485946,1,5,6,2,26,3,1,,,,,,,,,,,,,,
,,,,,,,,,,,right.png,,p,left,5c23c03889f035000173d7d7,2021-10-27_12h14.50.903,arrow_simon_punish,2021.1.2,Win32,120.105693,,,,,,,,,,,,,,p,1,1.7752,2.173708129,1,5,6,3,27,0,1,,,,,,,,,,,,,,
,,,,,,,,,,,left.png,,w,left,5c23c03889f035000173d7d7,2021-10-27_12h14.50.903,arrow_simon_punish,2021.1.2,Win32,120.105693,,,,,,,,,,,,,,w,1,1.5837,1.7013191,0,5,7,0,28,2,1,,,,,,,,,,,,,,
,,,,,,,,,,,left.png,,w,right,5c23c03889f035000173d7d7,2021-10-27_12h14.50.903,arrow_simon_punish,2021.1.2,Win32,120.105693,,,,,,,,,,,,,,w,1,1.7202,2.078895191,1,5,7,1,29,3,1,,,,,,,,,,,,,,
,,,,,,,,,,,right.png,,p,right,5c23c03889f035000173d7d7,2021-10-27_12h14.50.903,arrow_simon_punish,2021.1.2,Win32,120.105693,,,,,,,,,,,,,,p,1,1.2901,1.808116801,1,5,7,2,30,1,1,,,,,,,,,,,,,,
,,,,,,,,,,,right.png,,p,left,5c23c03889f035000173d7d7,2021-10-27_12h14.50.903,arrow_simon_punish,2021.1.2,Win32,120.105693,,,,,,,,,,,,,,p,1,2.1025,1.734487884,1,5,7,3,31,0,1,,,,,,,,,,,,,,
,,,,,,,,,,,left.png,,w,left,5c23c03889f035000173d7d7,2021-10-27_12h14.50.903,arrow_simon_punish,2021.1.2,Win32,120.105693,,,,,,,,,,,,,,w,1,1.4505,2.099087677,0,5,8,0,32,2,1,,,,,,,,,,,,,,
,,,,,,,,,,,left.png,,w,left,5c23c03889f035000173d7d7,2021-10-27_12h14.50.903,arrow_simon_punish,2021.1.2,Win32,120.105693,,,,,,,,,,,,,,w,1,1.161,1.603978745,1,5,8,1,33,2,1,,,,,,,,,,,,,,
,,,,,,,,,,,left.png,,w,right,5c23c03889f035000173d7d7,2021-10-27_12h14.50.903,arrow_simon_punish,2021.1.2,Win32,120.105693,,,,,,,,,,,,,,w,1,1.8255,2.075049894,1,5,8,2,34,3,1,,,,,,,,,,,,,,
,,,,,,,,,,,right.png,,p,left,5c23c03889f035000173d7d7,2021-10-27_12h14.50.903,arrow_simon_punish,2021.1.2,Win32,120.105693,,,,,,,,,,,,,,p,1,1.719,1.991151693,1,5,8,3,35,0,1,,,,,,,,,,,,,,
,,,,,,,,,,,right.png,,p,right,5c23c03889f035000173d7d7,2021-10-27_12h14.50.903,arrow_simon_punish,2021.1.2,Win32,120.105693,,,,,,,,,,,,,,p,1,1.4553,1.764850398,0,5,9,0,36,1,1,,,,,,,,,,,,,,
,,,,,,,,,,,right.png,,p,right,5c23c03889f035000173d7d7,2021-10-27_12h14.50.903,arrow_simon_punish,2021.1.2,Win32,120.105693,,,,,,,,,,,,,,p,1,1.0504,1.686150767,1,5,9,1,37,1,1,,,,,,,,,,,,,,
,,,,,,,,,,,right.png,,p,left,5c23c03889f035000173d7d7,2021-10-27_12h14.50.903,arrow_simon_punish,2021.1.2,Win32,120.105693,,,,,,,,,,,,,,p,1,1.6613,2.052469893,1,5,9,2,38,0,1,,,,,,,,,,,,,,
,,,,,,,,,,,right.png,,p,left,5c23c03889f035000173d7d7,2021-10-27_12h14.50.903,arrow_simon_punish,2021.1.2,Win32,120.105693,,,,,,,,,,,,,,p,1,2.0431,2.253268313,1,5,9,3,39,0,1,,,,,,,,,,,,,,
,,,,,,,,,,,left.png,,w,left,5c23c03889f035000173d7d7,2021-10-27_12h14.50.903,arrow_simon_punish,2021.1.2,Win32,120.105693,,,,,,,,,,,,,,w,1,1.8947,2.364941447,1,5,10,0,40,2,1,,,,,,,,,,,,,,
,,,,,,,,,,,left.png,,w,right,5c23c03889f035000173d7d7,2021-10-27_12h14.50.903,arrow_simon_punish,2021.1.2,Win32,120.105693,,,,,,,,,,,,,,p,0,1.4689,1.763249289,1,5,10,1,41,3,1,,,,,,,,,,,,,,
,,,,,,,,,,,right.png,,p,left,5c23c03889f035000173d7d7,2021-10-27_12h14.50.903,arrow_simon_punish,2021.1.2,Win32,120.105693,,,,,,,,,,,,,,w,0,1.7385,2.177578248,1,5,10,2,42,0,1,,,,,,,,,,,,,,
,,,,,,,,,,,left.png,,w,left,5c23c03889f035000173d7d7,2021-10-27_12h14.50.903,arrow_simon_punish,2021.1.2,Win32,120.105693,,,,,,,,,,,,,,w,1,1.7792,2.210935931,1,5,10,3,43,2,1,,,,,,,,,,,,,,
,,,,,,,,,,,right.png,,p,left,5c23c03889f035000173d7d7,2021-10-27_12h14.50.903,arrow_simon_punish,2021.1.2,Win32,120.105693,,,,,,,,,,,,,,p,1,1.7686,2.271387186,1,5,11,0,44,0,1,,,,,,,,,,,,,,
,,,,,,,,,,,left.png,,w,right,5c23c03889f035000173d7d7,2021-10-27_12h14.50.903,arrow_simon_punish,2021.1.2,Win32,120.105693,,,,,,,,,,,,,,w,1,1.7262,1.848380347,1,5,11,1,45,3,1,,,,,,,,,,,,,,
,,,,,,,,,,,left.png,,w,left,5c23c03889f035000173d7d7,2021-10-27_12h14.50.903,arrow_simon_punish,2021.1.2,Win32,120.105693,,,,,,,,,,,,,,w,1,1.6691,2.091084705,1,5,11,2,46,2,1,,,,,,,,,,,,,,
,,,,,,,,,,,left.png,,w,left,5c23c03889f035000173d7d7,2021-10-27_12h14.50.903,arrow_simon_punish,2021.1.2,Win32,120.105693,,,,,,,,,,,,,,w,1,1.6807,1.509828454,1,5,11,3,47,2,1,,,,,,,,,,,,,,
,,,,,,,,,,,right.png,,p,right,5c23c03889f035000173d7d7,2021-10-27_12h14.50.903,arrow_simon_punish,2021.1.2,Win32,120.105693,,,,,,,,,,,,,,p,1,1.2134,1.516692375,1,5,12,0,48,1,1,,,,,,,,,,,,,,
,,,,,,,,,,,right.png,,p,right,5c23c03889f035000173d7d7,2021-10-27_12h14.50.903,arrow_simon_punish,2021.1.2,Win32,120.105693,,,,,,,,,,,,,,p,1,1.4791,1.983479442,0,5,12,1,49,1,1,,,,,,,,,,,,,,
,,,,,,,,,,,right.png,,p,right,5c23c03889f035000173d7d7,2021-10-27_12h14.50.903,arrow_simon_punish,2021.1.2,Win32,120.105693,,,,,,,,,,,,,,p,1,1.5438,1.683562587,0,5,12,2,50,1,1,,,,,,,,,,,,,,
,,,,,,,,,,,left.png,,w,right,5c23c03889f035000173d7d7,2021-10-27_12h14.50.903,arrow_simon_punish,2021.1.2,Win32,120.105693,,,,,,,,,,,,,,w,1,1.5857,2.16579906,0,5,12,3,51,3,1,,,,,,,,,,,,,,
,,,,,,,,,,,right.png,,p,right,5c23c03889f035000173d7d7,2021-10-27_12h14.50.903,arrow_simon_punish,2021.1.2,Win32,120.105693,,,,,,,,,,,,,,p,1,1.5171,2.119145013,0,5,13,0,52,1,1,,,,,,,,,,,,,,
,,,,,,,,,,,left.png,,w,right,5c23c03889f035000173d7d7,2021-10-27_12h14.50.903,arrow_simon_punish,2021.1.2,Win32,120.105693,,,,,,,,,,,,,,w,1,1.6957,1.966059807,1,5,13,1,53,3,1,,,,,,,,,,,,,,
,,,,,,,,,,,left.png,,w,left,5c23c03889f035000173d7d7,2021-10-27_12h14.50.903,arrow_simon_punish,2021.1.2,Win32,120.105693,,,,,,,,,,,,,,w,1,1.3209,1.886478666,1,5,13,2,54,2,1,,,,,,,,,,,,,,
,,,,,,,,,,,right.png,,p,right,5c23c03889f035000173d7d7,2021-10-27_12h14.50.903,arrow_simon_punish,2021.1.2,Win32,120.105693,,,,,,,,,,,,,,p,1,1.863,2.373508704,1,5,13,3,55,1,1,,,,,,,,,,,,,,
,,,,,,,,,,,right.png,,p,left,5c23c03889f035000173d7d7,2021-10-27_12h14.50.903,arrow_simon_punish,2021.1.2,Win32,120.105693,,,,,,,,,,,,,,w,0,1.8669,2.312747126,1,5,14,0,56,0,1,,,,,,,,,,,,,,
,,,,,,,,,,,left.png,,w,right,5c23c03889f035000173d7d7,2021-10-27_12h14.50.903,arrow_simon_punish,2021.1.2,Win32,120.105693,,,,,,,,,,,,,,p,0,2.0088,1.919634957,1,5,14,1,57,3,1,,,,,,,,,,,,,,
,,,,,,,,,,,left.png,,w,right,5c23c03889f035000173d7d7,2021-10-27_12h14.50.903,arrow_simon_punish,2021.1.2,Win32,120.105693,,,,,,,,,,,,,,p,0,1.9765,2.242448106,1,5,14,2,58,3,1,,,,,,,,,,,,,,
,,,,,,,,,,,left.png,,w,left,5c23c03889f035000173d7d7,2021-10-27_12h14.50.903,arrow_simon_punish,2021.1.2,Win32,120.105693,,,,,,,,,,,,,,w,1,1.9086,2.438507836,1,5,14,3,59,2,1,,,,,,,,,,,,,,
,,,,,,,,,,,,,,,5c23c03889f035000173d7d7,2021-10-27_12h14.50.903,arrow_simon_punish,2021.1.2,Win32,120.105693,,,,,,,,,,,,,,,,,,,,,,,,,space,76.0832,3,0,1,1,1,1,5,,,,,
,,,,,,,,,,,left.png,,w,right,5c23c03889f035000173d7d7,2021-10-27_12h14.50.903,arrow_simon_punish,2021.1.2,Win32,120.105693,,,,,,,,,,,,,,w,1,1.0271,1.620975035,1,1,0,0,0,3,1,,,,,,,,,,,,,,
,,,,,,,,,,,left.png,,w,left,5c23c03889f035000173d7d7,2021-10-27_12h14.50.903,arrow_simon_punish,2021.1.2,Win32,120.105693,,,,,,,,,,,,,,w,1,1.7005,2.151331562,1,1,0,1,1,2,1,,,,,,,,,,,,,,
,,,,,,,,,,,left.png,,w,right,5c23c03889f035000173d7d7,2021-10-27_12h14.50.903,arrow_simon_punish,2021.1.2,Win32,120.105693,,,,,,,,,,,,,,w,1,1.6102,2.339299936,1,1,0,2,2,3,1,,,,,,,,,,,,,,
,,,,,,,,,,,right.png,,p,left,5c23c03889f035000173d7d7,2021-10-27_12h14.50.903,arrow_simon_punish,2021.1.2,Win32,120.105693,,,,,,,,,,,,,,w,0,0.1283,1.805879568,1,1,0,3,3,0,1,,,,,,,,,,,,,,
,,,,,,,,,,,left.png,,w,left,5c23c03889f035000173d7d7,2021-10-27_12h14.50.903,arrow_simon_punish,2021.1.2,Win32,120.105693,,,,,,,,,,,,,,w,1,1.5837,2.268935149,0,1,1,0,4,2,1,,,,,,,,,,,,,,
,,,,,,,,,,,right.png,,p,left,5c23c03889f035000173d7d7,2021-10-27_12h14.50.903,arrow_simon_punish,2021.1.2,Win32,120.105693,,,,,,,,,,,,,,p,1,1.2113,1.686579094,1,1,1,1,5,0,1,,,,,,,,,,,,,,
,,,,,,,,,,,right.png,,p,right,5c23c03889f035000173d7d7,2021-10-27_12h14.50.903,arrow_simon_punish,2021.1.2,Win32,120.105693,,,,,,,,,,,,,,p,1,1.6522,1.796618967,1,1,1,2,6,1,1,,,,,,,,,,,,,,
,,,,,,,,,,,left.png,,w,right,5c23c03889f035000173d7d7,2021-10-27_12h14.50.903,arrow_simon_punish,2021.1.2,Win32,120.105693,,,,,,,,,,,,,,w,1,1.6518,2.038700092,1,1,1,3,7,3,1,,,,,,,,,,,,,,
,,,,,,,,,,,left.png,,w,left,5c23c03889f035000173d7d7,2021-10-27_12h14.50.903,arrow_simon_punish,2021.1.2,Win32,120.105693,,,,,,,,,,,,,,w,1,1.4364,1.846982294,0,1,2,0,8,2,1,,,,,,,,,,,,,,
,,,,,,,,,,,left.png,,w,right,5c23c03889f035000173d7d7,2021-10-27_12h14.50.903,arrow_simon_punish,2021.1.2,Win32,120.105693,,,,,,,,,,,,,,w,1,1.7591,2.337795117,1,1,2,1,9,3,1,,,,,,,,,,,,,,
,,,,,,,,,,,right.png,,p,right,5c23c03889f035000173d7d7,2021-10-27_12h14.50.903,arrow_simon_punish,2021.1.2,Win32,120.105693,,,,,,,,,,,,,,p,1,1.6019,1.862840281,1,1,2,2,10,1,1,,,,,,,,,,,,,,
,,,,,,,,,,,left.png,,w,right,5c23c03889f035000173d7d7,2021-10-27_12h14.50.903,arrow_simon_punish,2021.1.2,Win32,120.105693,,,,,,,,,,,,,,w,1,1.8368,2.456946614,1,1,2,3,11,3,1,,,,,,,,,,,,,,
,,,,,,,,,,,left.png,,w,left,5c23c03889f035000173d7d7,2021-10-27_12h14.50.903,arrow_simon_punish,2021.1.2,Win32,120.105693,,,,,,,,,,,,,,w,1,1.8588,2.412705932,1,1,3,0,12,2,1,,,,,,,,,,,,,,
,,,,,,,,,,,right.png,,p,right,5c23c03889f035000173d7d7,2021-10-27_12h14.50.903,arrow_simon_punish,2021.1.2,Win32,120.105693,,,,,,,,,,,,,,p,1,1.7371,1.764949099,1,1,3,1,13,1,1,,,,,,,,,,,,,,
,,,,,,,,,,,left.png,,w,left,5c23c03889f035000173d7d7,2021-10-27_12h14.50.903,arrow_simon_punish,2021.1.2,Win32,120.105693,,,,,,,,,,,,,,w,1,1.5511,1.933667634,0,1,3,2,14,2,1,,,,,,,,,,,,,,
,,,,,,,,,,,right.png,,p,right,5c23c03889f035000173d7d7,2021-10-27_12h14.50.903,arrow_simon_punish,2021.1.2,Win32,120.105693,,,,,,,,,,,,,,p,1,1.8088,2.453675556,1,1,3,3,15,1,1,,,,,,,,,,,,,,
,,,,,,,,,,,right.png,,p,right,5c23c03889f035000173d7d7,2021-10-27_12h14.50.903,arrow_simon_punish,2021.1.2,Win32,120.105693,,,,,,,,,,,,,,p,1,1.3111,1.736769792,1,1,4,0,16,1,1,,,,,,,,,,,,,,
,,,,,,,,,,,right.png,,p,left,5c23c03889f035000173d7d7,2021-10-27_12h14.50.903,arrow_simon_punish,2021.1.2,Win32,120.105693,,,,,,,,,,,,,,p,1,1.7225,1.995971098,1,1,4,1,17,0,1,,,,,,,,,,,,,,
,,,,,,,,,,,left.png,,w,left,5c23c03889f035000173d7d7,2021-10-27_12h14.50.903,arrow_simon_punish,2021.1.2,Win32,120.105693,,,,,,,,,,,,,,w,1,1.5541,2.294839512,0,1,4,2,18,2,1,,,,,,,,,,,,,,
,,,,,,,,,,,left.png,,w,right,5c23c03889f035000173d7d7,2021-10-27_12h14.50.903,arrow_simon_punish,2021.1.2,Win32,120.105693,,,,,,,,,,,,,,w,1,1.7126,1.590056534,1,1,4,3,19,3,1,,,,,,,,,,,,,,
,,,,,,,,,,,right.png,,p,right,5c23c03889f035000173d7d7,2021-10-27_12h14.50.903,arrow_simon_punish,2021.1.2,Win32,120.105693,,,,,,,,,,,,,,p,1,1.8358,2.491726389,1,1,5,0,20,1,1,,,,,,,,,,,,,,
,,,,,,,,,,,left.png,,w,right,5c23c03889f035000173d7d7,2021-10-27_12h14.50.903,arrow_simon_punish,2021.1.2,Win32,120.105693,,,,,,,,,,,,,,w,1,1.6169,2.035997797,1,1,5,1,21,3,1,,,,,,,,,,,,,,
,,,,,,,,,,,right.png,,p,left,5c23c03889f035000173d7d7,2021-10-27_12h14.50.903,arrow_simon_punish,2021.1.2,Win32,120.105693,,,,,,,,,,,,,,p,1,1.7253,2.355887739,1,1,5,2,22,0,1,,,,,,,,,,,,,,
,,,,,,,,,,,right.png,,p,right,5c23c03889f035000173d7d7,2021-10-27_12h14.50.903,arrow_simon_punish,2021.1.2,Win32,120.105693,,,,,,,,,,,,,,p,1,1.609,1.790572049,1,1,5,3,23,1,1,,,,,,,,,,,,,,
,,,,,,,,,,,right.png,,p,left,5c23c03889f035000173d7d7,2021-10-27_12h14.50.903,arrow_simon_punish,2021.1.2,Win32,120.105693,,,,,,,,,,,,,,p,1,2.4205,2.36067375,1,1,6,0,24,0,1,,,,,,,,,,,,,,
,,,,,,,,,,,left.png,,w,left,5c23c03889f035000173d7d7,2021-10-27_12h14.50.903,arrow_simon_punish,2021.1.2,Win32,120.105693,,,,,,,,,,,,,,w,1,1.4733,1.976615209,0,1,6,1,25,2,1,,,,,,,,,,,,,,
,,,,,,,,,,,left.png,,w,left,5c23c03889f035000173d7d7,2021-10-27_12h14.50.903,arrow_simon_punish,2021.1.2,Win32,120.105693,,,,,,,,,,,,,,w,1,1.1339,1.549399301,1,1,6,2,26,2,1,,,,,,,,,,,,,,
,,,,,,,,,,,left.png,,w,right,5c23c03889f035000173d7d7,2021-10-27_12h14.50.903,arrow_simon_punish,2021.1.2,Win32,120.105693,,,,,,,,,,,,,,w,1,1.7691,2.137494877,1,1,6,3,27,3,1,,,,,,,,,,,,,,
,,,,,,,,,,,right.png,,p,left,5c23c03889f035000173d7d7,2021-10-27_12h14.50.903,arrow_simon_punish,2021.1.2,Win32,120.105693,,,,,,,,,,,,,,p,1,1.717,2.180570923,1,1,7,0,28,0,1,,,,,,,,,,,,,,
,,,,,,,,,,,right.png,,p,right,5c23c03889f035000173d7d7,2021-10-27_12h14.50.903,arrow_simon_punish,2021.1.2,Win32,120.105693,,,,,,,,,,,,,,p,1,1.704,1.955945275,1,1,7,1,29,1,1,,,,,,,,,,,,,,
,,,,,,,,,,,right.png,,p,right,5c23c03889f035000173d7d7,2021-10-27_12h14.50.903,arrow_simon_punish,2021.1.2,Win32,120.105693,,,,,,,,,,,,,,p,1,1.709,2.281527066,1,1,7,2,30,1,1,,,,,,,,,,,,,,
,,,,,,,,,,,left.png,,w,right,5c23c03889f035000173d7d7,2021-10-27_12h14.50.903,arrow_simon_punish,2021.1.2,Win32,120.105693,,,,,,,,,,,,,,w,1,1.7921,1.7865983,1,1,7,3,31,3,1,,,,,,,,,,,,,,
,,,,,,,,,,,left.png,,w,left,5c23c03889f035000173d7d7,2021-10-27_12h14.50.903,arrow_simon_punish,2021.1.2,Win32,120.105693,,,,,,,,,,,,,,w,1,1.3099,1.910209876,1,1,8,0,32,2,1,,,,,,,,,,,,,,
,,,,,,,,,,,left.png,,w,right,5c23c03889f035000173d7d7,2021-10-27_12h14.50.903,arrow_simon_punish,2021.1.2,Win32,120.105693,,,,,,,,,,,,,,w,1,1.7386,2.226986462,1,1,8,1,33,3,1,,,,,,,,,,,,,,
,,,,,,,,,,,left.png,,w,left,5c23c03889f035000173d7d7,2021-10-27_12h14.50.903,arrow_simon_punish,2021.1.2,Win32,120.105693,,,,,,,,,,,,,,w,1,1.4859,2.134997646,0,1,8,2,34,2,1,,,,,,,,,,,,,,
,,,,,,,,,,,left.png,,w,right,5c23c03889f035000173d7d7,2021-10-27_12h14.50.903,arrow_simon_punish,2021.1.2,Win32,120.105693,,,,,,,,,,,,,,w,1,1.7085,1.644836628,1,1,8,3,35,3,1,,,,,,,,,,,,,,
,,,,,,,,,,,right.png,,p,right,5c23c03889f035000173d7d7,2021-10-27_12h14.50.903,arrow_simon_punish,2021.1.2,Win32,120.105693,,,,,,,,,,,,,,p,1,1.4103,1.768268956,0,1,9,0,36,1,1,,,,,,,,,,,,,,
,,,,,,,,,,,right.png,,p,left,5c23c03889f035000173d7d7,2021-10-27_12h14.50.903,arrow_simon_punish,2021.1.2,Win32,120.105693,,,,,,,,,,,,,,p,1,1.6337,1.552385412,1,1,9,1,37,0,1,,,,,,,,,,,,,,
,,,,,,,,,,,left.png,,w,right,5c23c03889f035000173d7d7,2021-10-27_12h14.50.903,arrow_simon_punish,2021.1.2,Win32,120.105693,,,,,,,,,,,,,,w,1,1.8362,1.594111675,1,1,9,2,38,3,1,,,,,,,,,,,,,,
,,,,,,,,,,,right.png,,p,left,5c23c03889f035000173d7d7,2021-10-27_12h14.50.903,arrow_simon_punish,2021.1.2,Win32,120.105693,,,,,,,,,,,,,,p,1,1.6758,2.170843164,1,1,9,3,39,0,1,,,,,,,,,,,,,,
,,,,,,,,,,,left.png,,w,right,5c23c03889f035000173d7d7,2021-10-27_12h14.50.903,arrow_simon_punish,2021.1.2,Win32,120.105693,,,,,,,,,,,,,,p,0,1.8792,2.495655215,1,1,10,0,40,3,1,,,,,,,,,,,,,,
,,,,,,,,,,,right.png,,p,right,5c23c03889f035000173d7d7,2021-10-27_12h14.50.903,arrow_simon_punish,2021.1.2,Win32,120.105693,,,,,,,,,,,,,,w,0,1.4586,2.101346401,1,1,10,1,41,1,1,,,,,,,,,,,,,,
,,,,,,,,,,,right.png,,p,left,5c23c03889f035000173d7d7,2021-10-27_12h14.50.903,arrow_simon_punish,2021.1.2,Win32,120.105693,,,,,,,,,,,,,,w,0,1.582,2.055163587,1,1,10,2,42,0,1,,,,,,,,,,,,,,
,,,,,,,,,,,right.png,,p,left,5c23c03889f035000173d7d7,2021-10-27_12h14.50.903,arrow_simon_punish,2021.1.2,Win32,120.105693,,,,,,,,,,,,,,w,0,1.5837,2.344876039,1,1,10,3,43,0,1,,,,,,,,,,,,,,
,,,,,,,,,,,left.png,,w,left,5c23c03889f035000173d7d7,2021-10-27_12h14.50.903,arrow_simon_punish,2021.1.2,Win32,120.105693,,,,,,,,,,,,,,w,1,1.5862,2.351803825,0,1,11,0,44,2,1,,,,,,,,,,,,,,
,,,,,,,,,,,right.png,,p,right,5c23c03889f035000173d7d7,2021-10-27_12h14.50.903,arrow_simon_punish,2021.1.2,Win32,120.105693,,,,,,,,,,,,,,p,1,1.612,2.340856905,1,1,11,1,45,1,1,,,,,,,,,,,,,,
,,,,,,,,,,,left.png,,w,right,5c23c03889f035000173d7d7,2021-10-27_12h14.50.903,arrow_simon_punish,2021.1.2,Win32,120.105693,,,,,,,,,,,,,,w,1,1.2171,1.649284227,1,1,11,2,46,3,1,,,,,,,,,,,,,,
,,,,,,,,,,,right.png,,p,left,5c23c03889f035000173d7d7,2021-10-27_12h14.50.903,arrow_simon_punish,2021.1.2,Win32,120.105693,,,,,,,,,,,,,,p,1,1.5024,2.06724515,0,1,11,3,47,0,1,,,,,,,,,,,,,,
,,,,,,,,,,,left.png,,w,left,5c23c03889f035000173d7d7,2021-10-27_12h14.50.903,arrow_simon_punish,2021.1.2,Win32,120.105693,,,,,,,,,,,,,,w,1,1.3444,1.986843851,1,1,12,0,48,2,1,,,,,,,,,,,,,,
,,,,,,,,,,,right.png,,p,left,5c23c03889f035000173d7d7,2021-10-27_12h14.50.903,arrow_simon_punish,2021.1.2,Win32,120.105693,,,,,,,,,,,,,,w,0,1.3185,1.730407038,1,1,12,1,49,0,1,,,,,,,,,,,,,,
,,,,,,,,,,,left.png,,w,left,5c23c03889f035000173d7d7,2021-10-27_12h14.50.903,arrow_simon_punish,2021.1.2,Win32,120.105693,,,,,,,,,,,,,,w,1,2.4776,2.330150568,1,1,12,2,50,2,1,,,,,,,,,,,,,,
,,,,,,,,,,,left.png,,w,left,5c23c03889f035000173d7d7,2021-10-27_12h14.50.903,arrow_simon_punish,2021.1.2,Win32,120.105693,,,,,,,,,,,,,,w,1,1.5927,2.246530939,0,1,12,3,51,2,1,,,,,,,,,,,,,,
,,,,,,,,,,,right.png,,p,right,5c23c03889f035000173d7d7,2021-10-27_12h14.50.903,arrow_simon_punish,2021.1.2,Win32,120.105693,,,,,,,,,,,,,,p,1,1.6368,2.274400339,1,1,13,0,52,1,1,,,,,,,,,,,,,,
,,,,,,,,,,,right.png,,p,left,5c23c03889f035000173d7d7,2021-10-27_12h14.50.903,arrow_simon_punish,2021.1.2,Win32,120.105693,,,,,,,,,,,,,,p,1,1.842,2.321820749,1,1,13,1,53,0,1,,,,,,,,,,,,,,
,,,,,,,,,,,left.png,,w,left,5c23c03889f035000173d7d7,2021-10-27_12h14.50.903,arrow_simon_punish,2021.1.2,Win32,120.105693,,,,,,,,,,,,,,w,1,1.6087,1.828033103,1,1,13,2,54,2,1,,,,,,,,,,,,,,
,,,,,,,,,,,right.png,,p,left,5c23c03889f035000173d7d7,2021-10-27_12h14.50.903,arrow_simon_punish,2021.1.2,Win32,120.105693,,,,,,,,,,,,,,p,1,1.7849,2.302812155,1,1,13,3,55,0,1,,,,,,,,,,,,,,
,,,,,,,,,,,right.png,,p,right,5c23c03889f035000173d7d7,2021-10-27_12h14.50.903,arrow_simon_punish,2021.1.2,Win32,120.105693,,,,,,,,,,,,,,p,1,1.5388,1.879937601,0,1,14,0,56,1,1,,,,,,,,,,,,,,
,,,,,,,,,,,left.png,,w,right,5c23c03889f035000173d7d7,2021-10-27_12h14.50.903,arrow_simon_punish,2021.1.2,Win32,120.105693,,,,,,,,,,,,,,w,1,1.56,1.974215483,0,1,14,1,57,3,1,,,,,,,,,,,,,,
,,,,,,,,,,,right.png,,p,left,5c23c03889f035000173d7d7,2021-10-27_12h14.50.903,arrow_simon_punish,2021.1.2,Win32,120.105693,,,,,,,,,,,,,,p,1,1.7502,2.380828559,1,1,14,2,58,0,1,,,,,,,,,,,,,,
,,,,,,,,,,,right.png,,p,right,5c23c03889f035000173d7d7,2021-10-27_12h14.50.903,arrow_simon_punish,2021.1.2,Win32,120.105693,,,,,,,,,,,,,,p,1,1.8088,2.31668937,1,1,14,3,59,1,1,,,,,,,,,,,,,,
,,,,,,,,,,,,,,,5c23c03889f035000173d7d7,2021-10-27_12h14.50.903,arrow_simon_punish,2021.1.2,Win32,120.105693,,,,,,,,,,,,,,,,,,,,,,,,,space,1.5693,4,1,0,2,0,1,1,,,,,
,,,,,,,,,,,left.png,,w,left,5c23c03889f035000173d7d7,2021-10-27_12h14.50.903,arrow_simon_punish,2021.1.2,Win32,120.105693,,,,,,,,,,,,,,w,1,1.0004,1.603557174,1,5,0,0,0,2,1,,,,,,,,,,,,,,
,,,,,,,,,,,right.png,,p,left,5c23c03889f035000173d7d7,2021-10-27_12h14.50.903,arrow_simon_punish,2021.1.2,Win32,120.105693,,,,,,,,,,,,,,p,1,1.5859,1.994050984,0,5,0,1,1,0,1,,,,,,,,,,,,,,
,,,,,,,,,,,left.png,,w,right,5c23c03889f035000173d7d7,2021-10-27_12h14.50.903,arrow_simon_punish,2021.1.2,Win32,120.105693,,,,,,,,,,,,,,w,1,1.517,2.086166218,0,5,0,2,2,3,1,,,,,,,,,,,,,,
,,,,,,,,,,,right.png,,p,left,5c23c03889f035000173d7d7,2021-10-27_12h14.50.903,arrow_simon_punish,2021.1.2,Win32,120.105693,,,,,,,,,,,,,,p,1,1.3335,1.821000172,1,5,0,3,3,0,1,,,,,,,,,,,,,,
,,,,,,,,,,,left.png,,w,left,5c23c03889f035000173d7d7,2021-10-27_12h14.50.903,arrow_simon_punish,2021.1.2,Win32,120.105693,,,,,,,,,,,,,,w,1,1.4882,1.953206897,0,5,1,0,4,2,1,,,,,,,,,,,,,,
,,,,,,,,,,,right.png,,p,right,5c23c03889f035000173d7d7,2021-10-27_12h14.50.903,arrow_simon_punish,2021.1.2,Win32,120.105693,,,,,,,,,,,,,,p,1,1.6085,1.951102818,1,5,1,1,5,1,1,,,,,,,,,,,,,,
,,,,,,,,,,,left.png,,w,left,5c23c03889f035000173d7d7,2021-10-27_12h14.50.903,arrow_simon_punish,2021.1.2,Win32,120.105693,,,,,,,,,,,,,,w,1,1.7336,2.478016232,1,5,1,2,6,2,1,,,,,,,,,,,,,,
,,,,,,,,,,,left.png,,w,right,5c23c03889f035000173d7d7,2021-10-27_12h14.50.903,arrow_simon_punish,2021.1.2,Win32,120.105693,,,,,,,,,,,,,,w,1,1.2296,1.682199223,1,5,1,3,7,3,1,,,,,,,,,,,,,,
,,,,,,,,,,,right.png,,p,left,5c23c03889f035000173d7d7,2021-10-27_12h14.50.903,arrow_simon_punish,2021.1.2,Win32,120.105693,,,,,,,,,,,,,,p,1,1.1088,1.537838427,1,5,2,0,8,0,1,,,,,,,,,,,,,,
,,,,,,,,,,,left.png,,w,right,5c23c03889f035000173d7d7,2021-10-27_12h14.50.903,arrow_simon_punish,2021.1.2,Win32,120.105693,,,,,,,,,,,,,,p,0,2.0091,2.342219673,1,5,2,1,9,3,1,,,,,,,,,,,,,,
,,,,,,,,,,,left.png,,w,left,5c23c03889f035000173d7d7,2021-10-27_12h14.50.903,arrow_simon_punish,2021.1.2,Win32,120.105693,,,,,,,,,,,,,,w,1,1.867,2.173154697,1,5,2,2,10,2,1,,,,,,,,,,,,,,
,,,,,,,,,,,right.png,,p,left,5c23c03889f035000173d7d7,2021-10-27_12h14.50.903,arrow_simon_punish,2021.1.2,Win32,120.105693,,,,,,,,,,,,,,p,1,1.7926,2.361245164,1,5,2,3,11,0,1,,,,,,,,,,,,,,
,,,,,,,,,,,left.png,,w,left,5c23c03889f035000173d7d7,2021-10-27_12h14.50.903,arrow_simon_punish,2021.1.2,Win32,120.105693,,,,,,,,,,,,,,w,1,0.9852,1.514129534,1,5,3,0,12,2,1,,,,,,,,,,,,,,
,,,,,,,,,,,right.png,,p,left,5c23c03889f035000173d7d7,2021-10-27_12h14.50.903,arrow_simon_punish,2021.1.2,Win32,120.105693,,,,,,,,,,,,,,p,1,2.1717,2.311072773,1,5,3,1,13,0,1,,,,,,,,,,,,,,
,,,,,,,,,,,right.png,,p,right,5c23c03889f035000173d7d7,2021-10-27_12h14.50.903,arrow_simon_punish,2021.1.2,Win32,120.105693,,,,,,,,,,,,,,p,1,1.0889,1.651345699,1,5,3,2,14,1,1,,,,,,,,,,,,,,
,,,,,,,,,,,left.png,,w,right,5c23c03889f035000173d7d7,2021-10-27_12h14.50.903,arrow_simon_punish,2021.1.2,Win32,120.105693,,,,,,,,,,,,,,w,1,1.6515,1.700752164,1,5,3,3,15,3,1,,,,,,,,,,,,,,
,,,,,,,,,,,right.png,,p,left,5c23c03889f035000173d7d7,2021-10-27_12h14.50.903,arrow_simon_punish,2021.1.2,Win32,120.105693,,,,,,,,,,,,,,p,1,1.7391,2.155912797,1,5,4,0,16,0,1,,,,,,,,,,,,,,
,,,,,,,,,,,right.png,,p,left,5c23c03889f035000173d7d7,2021-10-27_12h14.50.903,arrow_simon_punish,2021.1.2,Win32,120.105693,,,,,,,,,,,,,,p,1,1.1619,1.55813646,1,5,4,1,17,0,1,,,,,,,,,,,,,,
,,,,,,,,,,,left.png,,w,right,5c23c03889f035000173d7d7,2021-10-27_12h14.50.903,arrow_simon_punish,2021.1.2,Win32,120.105693,,,,,,,,,,,,,,p,0,1.4853,2.208011998,1,5,4,2,18,3,1,,,,,,,,,,,,,,
,,,,,,,,,,,left.png,,w,left,5c23c03889f035000173d7d7,2021-10-27_12h14.50.903,arrow_simon_punish,2021.1.2,Win32,120.105693,,,,,,,,,,,,,,w,1,1.0589,1.639292665,1,5,4,3,19,2,1,,,,,,,,,,,,,,
,,,,,,,,,,,right.png,,p,right,5c23c03889f035000173d7d7,2021-10-27_12h14.50.903,arrow_simon_punish,2021.1.2,Win32,120.105693,,,,,,,,,,,,,,p,1,1.5588,2.210475299,0,5,5,0,20,1,1,,,,,,,,,,,,,,
,,,,,,,,,,,left.png,,w,left,5c23c03889f035000173d7d7,2021-10-27_12h14.50.903,arrow_simon_punish,2021.1.2,Win32,120.105693,,,,,,,,,,,,,,w,1,1.2505,1.668386438,1,5,5,1,21,2,1,,,,,,,,,,,,,,
,,,,,,,,,,,right.png,,p,left,5c23c03889f035000173d7d7,2021-10-27_12h14.50.903,arrow_simon_punish,2021.1.2,Win32,120.105693,,,,,,,,,,,,,,p,1,1.6951,2.071310535,1,5,5,2,22,0,1,,,,,,,,,,,,,,
,,,,,,,,,,,right.png,,p,left,5c23c03889f035000173d7d7,2021-10-27_12h14.50.903,arrow_simon_punish,2021.1.2,Win32,120.105693,,,,,,,,,,,,,,p,1,1.6301,1.91798824,1,5,5,3,23,0,1,,,,,,,,,,,,,,
,,,,,,,,,,,left.png,,w,right,5c23c03889f035000173d7d7,2021-10-27_12h14.50.903,arrow_simon_punish,2021.1.2,Win32,120.105693,,,,,,,,,,,,,,w,1,1.5369,2.106900181,0,5,6,0,24,3,1,,,,,,,,,,,,,,
,,,,,,,,,,,left.png,,w,left,5c23c03889f035000173d7d7,2021-10-27_12h14.50.903,arrow_simon_punish,2021.1.2,Win32,120.105693,,,,,,,,,,,,,,w,1,1.7421,2.207083781,1,5,6,1,25,2,1,,,,,,,,,,,,,,
,,,,,,,,,,,right.png,,p,right,5c23c03889f035000173d7d7,2021-10-27_12h14.50.903,arrow_simon_punish,2021.1.2,Win32,120.105693,,,,,,,,,,,,,,p,1,1.8374,2.35621521,1,5,6,2,26,1,1,,,,,,,,,,,,,,
,,,,,,,,,,,right.png,,p,right,5c23c03889f035000173d7d7,2021-10-27_12h14.50.903,arrow_simon_punish,2021.1.2,Win32,120.105693,,,,,,,,,,,,,,p,1,0.3139,1.626094011,1,5,6,3,27,1,1,,,,,,,,,,,,,,
,,,,,,,,,,,left.png,,w,right,5c23c03889f035000173d7d7,2021-10-27_12h14.50.903,arrow_simon_punish,2021.1.2,Win32,120.105693,,,,,,,,,,,,,,w,1,1.8589,2.48637157,1,5,7,0,28,3,1,,,,,,,,,,,,,,
,,,,,,,,,,,right.png,,p,left,5c23c03889f035000173d7d7,2021-10-27_12h14.50.903,arrow_simon_punish,2021.1.2,Win32,120.105693,,,,,,,,,,,,,,p,1,1.8368,2.3902721,1,5,7,1,29,0,1,,,,,,,,,,,,,,
,,,,,,,,,,,right.png,,p,right,5c23c03889f035000173d7d7,2021-10-27_12h14.50.903,arrow_simon_punish,2021.1.2,Win32,120.105693,,,,,,,,,,,,,,p,1,1.6752,2.086054301,1,5,7,2,30,1,1,,,,,,,,,,,,,,
,,,,,,,,,,,left.png,,w,left,5c23c03889f035000173d7d7,2021-10-27_12h14.50.903,arrow_simon_punish,2021.1.2,Win32,120.105693,,,,,,,,,,,,,,w,1,1.7001,2.213514676,1,5,7,3,31,2,1,,,,,,,,,,,,,,
,,,,,,,,,,,right.png,,p,left,5c23c03889f035000173d7d7,2021-10-27_12h14.50.903,arrow_simon_punish,2021.1.2,Win32,120.105693,,,,,,,,,,,,,,p,1,1.8548,2.444306064,1,5,8,0,32,0,1,,,,,,,,,,,,,,
,,,,,,,,,,,left.png,,w,right,5c23c03889f035000173d7d7,2021-10-27_12h14.50.903,arrow_simon_punish,2021.1.2,Win32,120.105693,,,,,,,,,,,,,,w,1,1.9753,1.746287323,1,5,8,1,33,3,1,,,,,,,,,,,,,,
,,,,,,,,,,,right.png,,p,right,5c23c03889f035000173d7d7,2021-10-27_12h14.50.903,arrow_simon_punish,2021.1.2,Win32,120.105693,,,,,,,,,,,,,,w,0,1.7281,2.487672676,1,5,8,2,34,1,1,,,,,,,,,,,,,,
,,,,,,,,,,,left.png,,w,left,5c23c03889f035000173d7d7,2021-10-27_12h14.50.903,arrow_simon_punish,2021.1.2,Win32,120.105693,,,,,,,,,,,,,,w,1,1.6792,2.393603024,1,5,8,3,35,2,1,,,,,,,,,,,,,,
,,,,,,,,,,,right.png,,p,right,5c23c03889f035000173d7d7,2021-10-27_12h14.50.903,arrow_simon_punish,2021.1.2,Win32,120.105693,,,,,,,,,,,,,,p,1,1.9028,2.050262115,1,5,9,0,36,1,1,,,,,,,,,,,,,,
,,,,,,,,,,,left.png,,w,right,5c23c03889f035000173d7d7,2021-10-27_12h14.50.903,arrow_simon_punish,2021.1.2,Win32,120.105693,,,,,,,,,,,,,,w,1,1.5002,1.81346707,0,5,9,1,37,3,1,,,,,,,,,,,,,,
,,,,,,,,,,,right.png,,p,left,5c23c03889f035000173d7d7,2021-10-27_12h14.50.903,arrow_simon_punish,2021.1.2,Win32,120.105693,,,,,,,,,,,,,,p,1,1.6519,1.70326623,1,5,9,2,38,0,1,,,,,,,,,,,,,,
,,,,,,,,,,,left.png,,w,right,5c23c03889f035000173d7d7,2021-10-27_12h14.50.903,arrow_simon_punish,2021.1.2,Win32,120.105693,,,,,,,,,,,,,,w,1,1.6425,2.027667083,1,5,9,3,39,3,1,,,,,,,,,,,,,,
,,,,,,,,,,,right.png,,p,right,5c23c03889f035000173d7d7,2021-10-27_12h14.50.903,arrow_simon_punish,2021.1.2,Win32,120.105693,,,,,,,,,,,,,,p,1,1.4336,2.007027628,0,5,10,0,40,1,1,,,,,,,,,,,,,,
,,,,,,,,,,,left.png,,w,right,5c23c03889f035000173d7d7,2021-10-27_12h14.50.903,arrow_simon_punish,2021.1.2,Win32,120.105693,,,,,,,,,,,,,,w,1,1.5418,2.055637343,0,5,10,1,41,3,1,,,,,,,,,,,,,,
,,,,,,,,,,,left.png,,w,left,5c23c03889f035000173d7d7,2021-10-27_12h14.50.903,arrow_simon_punish,2021.1.2,Win32,120.105693,,,,,,,,,,,,,,w,1,1.8671,2.47283128,1,5,10,2,42,2,1,,,,,,,,,,,,,,
,,,,,,,,,,,left.png,,w,right,5c23c03889f035000173d7d7,2021-10-27_12h14.50.903,arrow_simon_punish,2021.1.2,Win32,120.105693,,,,,,,,,,,,,,w,1,1.8088,2.302015891,1,5,10,3,43,3,1,,,,,,,,,,,,,,
,,,,,,,,,,,right.png,,p,right,5c23c03889f035000173d7d7,2021-10-27_12h14.50.903,arrow_simon_punish,2021.1.2,Win32,120.105693,,,,,,,,,,,,,,p,1,1.5586,2.240549272,0,5,11,0,44,1,1,,,,,,,,,,,,,,
,,,,,,,,,,,left.png,,w,left,5c23c03889f035000173d7d7,2021-10-27_12h14.50.903,arrow_simon_punish,2021.1.2,Win32,120.105693,,,,,,,,,,,,,,w,1,1.7918,1.691106021,1,5,11,1,45,2,1,,,,,,,,,,,,,,
,,,,,,,,,,,left.png,,w,left,5c23c03889f035000173d7d7,2021-10-27_12h14.50.903,arrow_simon_punish,2021.1.2,Win32,120.105693,,,,,,,,,,,,,,w,1,1.4509,2.115098283,0,5,11,2,46,2,1,,,,,,,,,,,,,,
,,,,,,,,,,,right.png,,p,left,5c23c03889f035000173d7d7,2021-10-27_12h14.50.903,arrow_simon_punish,2021.1.2,Win32,120.105693,,,,,,,,,,,,,,w,0,1.277,1.998308138,1,5,11,3,47,0,1,,,,,,,,,,,,,,
,,,,,,,,,,,left.png,,w,right,5c23c03889f035000173d7d7,2021-10-27_12h14.50.903,arrow_simon_punish,2021.1.2,Win32,120.105693,,,,,,,,,,,,,,p,0,1.5042,2.224554892,1,5,12,0,48,3,1,,,,,,,,,,,,,,
,,,,,,,,,,,right.png,,p,right,5c23c03889f035000173d7d7,2021-10-27_12h14.50.903,arrow_simon_punish,2021.1.2,Win32,120.105693,,,,,,,,,,,,,,p,1,1.4754,2.163603522,0,5,12,1,49,1,1,,,,,,,,,,,,,,
,,,,,,,,,,,right.png,,p,right,5c23c03889f035000173d7d7,2021-10-27_12h14.50.903,arrow_simon_punish,2021.1.2,Win32,120.105693,,,,,,,,,,,,,,p,1,1.7959,2.383384465,1,5,12,2,50,1,1,,,,,,,,,,,,,,
,,,,,,,,,,,right.png,,p,right,5c23c03889f035000173d7d7,2021-10-27_12h14.50.903,arrow_simon_punish,2021.1.2,Win32,120.105693,,,,,,,,,,,,,,p,1,1.4523,1.923018539,0,5,12,3,51,1,1,,,,,,,,,,,,,,
,,,,,,,,,,,right.png,,p,left,5c23c03889f035000173d7d7,2021-10-27_12h14.50.903,arrow_simon_punish,2021.1.2,Win32,120.105693,,,,,,,,,,,,,,p,1,1.5304,1.596601245,0,5,13,0,52,0,1,,,,,,,,,,,,,,
,,,,,,,,,,,right.png,,p,left,5c23c03889f035000173d7d7,2021-10-27_12h14.50.903,arrow_simon_punish,2021.1.2,Win32,120.105693,,,,,,,,,,,,,,p,1,1.5587,1.826572851,0,5,13,1,53,0,1,,,,,,,,,,,,,,
,,,,,,,,,,,right.png,,p,right,5c23c03889f035000173d7d7,2021-10-27_12h14.50.903,arrow_simon_punish,2021.1.2,Win32,120.105693,,,,,,,,,,,,,,p,1,1.2089,1.519096682,1,5,13,2,54,1,1,,,,,,,,,,,,,,
,,,,,,,,,,,right.png,,p,right,5c23c03889f035000173d7d7,2021-10-27_12h14.50.903,arrow_simon_punish,2021.1.2,Win32,120.105693,,,,,,,,,,,,,,p,1,1.6524,2.401821598,1,5,13,3,55,1,1,,,,,,,,,,,,,,
,,,,,,,,,,,left.png,,w,left,5c23c03889f035000173d7d7,2021-10-27_12h14.50.903,arrow_simon_punish,2021.1.2,Win32,120.105693,,,,,,,,,,,,,,w,1,1.2358,1.661432985,1,5,14,0,56,2,1,,,,,,,,,,,,,,
,,,,,,,,,,,left.png,,w,left,5c23c03889f035000173d7d7,2021-10-27_12h14.50.903,arrow_simon_punish,2021.1.2,Win32,120.105693,,,,,,,,,,,,,,w,1,1.8213,2.463607635,1,5,14,1,57,2,1,,,,,,,,,,,,,,
,,,,,,,,,,,left.png,,w,right,5c23c03889f035000173d7d7,2021-10-27_12h14.50.903,arrow_simon_punish,2021.1.2,Win32,120.105693,,,,,,,,,,,,,,w,1,1.7205,2.149594827,1,5,14,2,58,3,1,,,,,,,,,,,,,,
,,,,,,,,,,,left.png,,w,right,5c23c03889f035000173d7d7,2021-10-27_12h14.50.903,arrow_simon_punish,2021.1.2,Win32,120.105693,,,,,,,,,,,,,,w,1,1.2586,1.837986155,1,5,14,3,59,3,1,,,,,,,,,,,,,,
,,,,,,,,,,,,,,,5c23c03889f035000173d7d7,2021-10-27_12h14.50.903,arrow_simon_punish,2021.1.2,Win32,120.105693,,,,,,,,,,,,,,,,,,,,,,,,,space,1.825,5,1,1,3,1,1,5,,,,,
,,,,,,,,,,,left.png,,w,left,5c23c03889f035000173d7d7,2021-10-27_12h14.50.903,arrow_simon_punish,2021.1.2,Win32,120.105693,,,,,,,,,,,,,,w,1,1.5623,2.306510228,0,1,0,0,0,2,1,,,,,,,,,,,,,,
,,,,,,,,,,,right.png,,p,left,5c23c03889f035000173d7d7,2021-10-27_12h14.50.903,arrow_simon_punish,2021.1.2,Win32,120.105693,,,,,,,,,,,,,,p,1,1.6549,1.94034569,1,1,0,1,1,0,1,,,,,,,,,,,,,,
,,,,,,,,,,,right.png,,p,right,5c23c03889f035000173d7d7,2021-10-27_12h14.50.903,arrow_simon_punish,2021.1.2,Win32,120.105693,,,,,,,,,,,,,,p,1,1.642,2.05828773,1,1,0,2,2,1,1,,,,,,,,,,,,,,
,,,,,,,,,,,left.png,,w,left,5c23c03889f035000173d7d7,2021-10-27_12h14.50.903,arrow_simon_punish,2021.1.2,Win32,120.105693,,,,,,,,,,,,,,w,1,1.3175,2.353978357,1,1,0,3,3,2,1,,,,,,,,,,,,,,
,,,,,,,,,,,right.png,,p,right,5c23c03889f035000173d7d7,2021-10-27_12h14.50.903,arrow_simon_punish,2021.1.2,Win32,120.105693,,,,,,,,,,,,,,w,0,1.5177,2.385018393,1,1,1,0,4,1,1,,,,,,,,,,,,,,
,,,,,,,,,,,right.png,,p,right,5c23c03889f035000173d7d7,2021-10-27_12h14.50.903,arrow_simon_punish,2021.1.2,Win32,120.105693,,,,,,,,,,,,,,p,1,1.602,2.011006499,1,1,1,1,5,1,1,,,,,,,,,,,,,,
,,,,,,,,,,,right.png,,p,left,5c23c03889f035000173d7d7,2021-10-27_12h14.50.903,arrow_simon_punish,2021.1.2,Win32,120.105693,,,,,,,,,,,,,,p,1,1.6015,2.096384863,1,1,1,2,6,0,1,,,,,,,,,,,,,,
,,,,,,,,,,,left.png,,w,right,5c23c03889f035000173d7d7,2021-10-27_12h14.50.903,arrow_simon_punish,2021.1.2,Win32,120.105693,,,,,,,,,,,,,,w,1,1.5502,2.041540132,0,1,1,3,7,3,1,,,,,,,,,,,,,,
,,,,,,,,,,,left.png,,w,right,5c23c03889f035000173d7d7,2021-10-27_12h14.50.903,arrow_simon_punish,2021.1.2,Win32,120.105693,,,,,,,,,,,,,,w,1,1.8086,2.351596275,1,1,2,0,8,3,1,,,,,,,,,,,,,,
,,,,,,,,,,,left.png,,w,left,5c23c03889f035000173d7d7,2021-10-27_12h14.50.903,arrow_simon_punish,2021.1.2,Win32,120.105693,,,,,,,,,,,,,,w,1,1.2396,1.569734442,1,1,2,1,9,2,1,,,,,,,,,,,,,,
,,,,,,,,,,,left.png,,w,left,5c23c03889f035000173d7d7,2021-10-27_12h14.50.903,arrow_simon_punish,2021.1.2,Win32,120.105693,,,,,,,,,,,,,,w,1,1.7589,1.625644876,1,1,2,2,10,2,1,,,,,,,,,,,,,,
,,,,,,,,,,,left.png,,w,left,5c23c03889f035000173d7d7,2021-10-27_12h14.50.903,arrow_simon_punish,2021.1.2,Win32,120.105693,,,,,,,,,,,,,,w,1,1.9278,2.492553354,1,1,2,3,11,2,1,,,,,,,,,,,,,,
,,,,,,,,,,,left.png,,w,left,5c23c03889f035000173d7d7,2021-10-27_12h14.50.903,arrow_simon_punish,2021.1.2,Win32,120.105693,,,,,,,,,,,,,,w,1,1.8474,1.814297642,1,1,3,0,12,2,1,,,,,,,,,,,,,,
,,,,,,,,,,,left.png,,w,right,5c23c03889f035000173d7d7,2021-10-27_12h14.50.903,arrow_simon_punish,2021.1.2,Win32,120.105693,,,,,,,,,,,,,,w,1,1.0211,1.641512962,1,1,3,1,13,3,1,,,,,,,,,,,,,,
,,,,,,,,,,,left.png,,w,right,5c23c03889f035000173d7d7,2021-10-27_12h14.50.903,arrow_simon_punish,2021.1.2,Win32,120.105693,,,,,,,,,,,,,,w,1,1.6696,2.386438172,1,1,3,2,14,3,1,,,,,,,,,,,,,,
,,,,,,,,,,,right.png,,p,left,5c23c03889f035000173d7d7,2021-10-27_12h14.50.903,arrow_simon_punish,2021.1.2,Win32,120.105693,,,,,,,,,,,,,,p,1,1.517,1.548110829,0,1,3,3,15,0,1,,,,,,,,,,,,,,
,,,,,,,,,,,right.png,,p,right,5c23c03889f035000173d7d7,2021-10-27_12h14.50.903,arrow_simon_punish,2021.1.2,Win32,120.105693,,,,,,,,,,,,,,p,1,1.6786,2.339240464,1,1,4,0,16,1,1,,,,,,,,,,,,,,
,,,,,,,,,,,right.png,,p,left,5c23c03889f035000173d7d7,2021-10-27_12h14.50.903,arrow_simon_punish,2021.1.2,Win32,120.105693,,,,,,,,,,,,,,p,1,1.226,1.813912819,1,1,4,1,17,0,1,,,,,,,,,,,,,,
,,,,,,,,,,,left.png,,w,left,5c23c03889f035000173d7d7,2021-10-27_12h14.50.903,arrow_simon_punish,2021.1.2,Win32,120.105693,,,,,,,,,,,,,,p,0,1.4282,2.262094561,1,1,4,2,18,2,1,,,,,,,,,,,,,,
,,,,,,,,,,,left.png,,w,right,5c23c03889f035000173d7d7,2021-10-27_12h14.50.903,arrow_simon_punish,2021.1.2,Win32,120.105693,,,,,,,,,,,,,,w,1,1.8921,1.617009935,1,1,4,3,19,3,1,,,,,,,,,,,,,,
,,,,,,,,,,,left.png,,w,right,5c23c03889f035000173d7d7,2021-10-27_12h14.50.903,arrow_simon_punish,2021.1.2,Win32,120.105693,,,,,,,,,,,,,,w,1,1.2889,1.756202831,1,1,5,0,20,3,1,,,,,,,,,,,,,,
,,,,,,,,,,,right.png,,p,right,5c23c03889f035000173d7d7,2021-10-27_12h14.50.903,arrow_simon_punish,2021.1.2,Win32,120.105693,,,,,,,,,,,,,,p,1,1.7259,1.566379654,1,1,5,1,21,1,1,,,,,,,,,,,,,,
,,,,,,,,,,,left.png,,w,right,5c23c03889f035000173d7d7,2021-10-27_12h14.50.903,arrow_simon_punish,2021.1.2,Win32,120.105693,,,,,,,,,,,,,,w,1,1.5919,1.524933216,0,1,5,2,22,3,1,,,,,,,,,,,,,,
,,,,,,,,,,,right.png,,p,right,5c23c03889f035000173d7d7,2021-10-27_12h14.50.903,arrow_simon_punish,2021.1.2,Win32,120.105693,,,,,,,,,,,,,,p,1,1.5201,2.000464439,0,1,5,3,23,1,1,,,,,,,,,,,,,,
,,,,,,,,,,,left.png,,w,right,5c23c03889f035000173d7d7,2021-10-27_12h14.50.903,arrow_simon_punish,2021.1.2,Win32,120.105693,,,,,,,,,,,,,,w,1,1.5549,2.350750257,0,1,6,0,24,3,1,,,,,,,,,,,,,,
,,,,,,,,,,,right.png,,p,right,5c23c03889f035000173d7d7,2021-10-27_12h14.50.903,arrow_simon_punish,2021.1.2,Win32,120.105693,,,,,,,,,,,,,,p,1,1.6048,1.688604358,1,1,6,1,25,1,1,,,,,,,,,,,,,,
,,,,,,,,,,,right.png,,p,right,5c23c03889f035000173d7d7,2021-10-27_12h14.50.903,arrow_simon_punish,2021.1.2,Win32,120.105693,,,,,,,,,,,,,,p,1,1.6182,1.752446357,1,1,6,2,26,1,1,,,,,,,,,,,,,,
,,,,,,,,,,,left.png,,w,right,5c23c03889f035000173d7d7,2021-10-27_12h14.50.903,arrow_simon_punish,2021.1.2,Win32,120.105693,,,,,,,,,,,,,,p,0,1.6804,2.479033812,1,1,6,3,27,3,1,,,,,,,,,,,,,,
,,,,,,,,,,,left.png,,w,left,5c23c03889f035000173d7d7,2021-10-27_12h14.50.903,arrow_simon_punish,2021.1.2,Win32,120.105693,,,,,,,,,,,,,,w,1,1.785,1.554909816,1,1,7,0,28,2,1,,,,,,,,,,,,,,
,,,,,,,,,,,right.png,,p,left,5c23c03889f035000173d7d7,2021-10-27_12h14.50.903,arrow_simon_punish,2021.1.2,Win32,120.105693,,,,,,,,,,,,,,p,1,1.5304,1.572514422,0,1,7,1,29,0,1,,,,,,,,,,,,,,
,,,,,,,,,,,right.png,,p,left,5c23c03889f035000173d7d7,2021-10-27_12h14.50.903,arrow_simon_punish,2021.1.2,Win32,120.105693,,,,,,,,,,,,,,p,1,1.5222,2.125546161,0,1,7,2,30,0,1,,,,,,,,,,,,,,
,,,,,,,,,,,right.png,,p,left,5c23c03889f035000173d7d7,2021-10-27_12h14.50.903,arrow_simon_punish,2021.1.2,Win32,120.105693,,,,,,,,,,,,,,p,1,1.4836,2.075109949,0,1,7,3,31,0,1,,,,,,,,,,,,,,
,,,,,,,,,,,left.png,,w,left,5c23c03889f035000173d7d7,2021-10-27_12h14.50.903,arrow_simon_punish,2021.1.2,Win32,120.105693,,,,,,,,,,,,,,w,1,1.6351,1.831972355,1,1,8,0,32,2,1,,,,,,,,,,,,,,
,,,,,,,,,,,left.png,,w,left,5c23c03889f035000173d7d7,2021-10-27_12h14.50.903,arrow_simon_punish,2021.1.2,Win32,120.105693,,,,,,,,,,,,,,w,1,1.6277,1.834561834,1,1,8,1,33,2,1,,,,,,,,,,,,,,
,,,,,,,,,,,left.png,,w,left,5c23c03889f035000173d7d7,2021-10-27_12h14.50.903,arrow_simon_punish,2021.1.2,Win32,120.105693,,,,,,,,,,,,,,w,1,1.6284,2.019486222,1,1,8,2,34,2,1,,,,,,,,,,,,,,
,,,,,,,,,,,left.png,,w,right,5c23c03889f035000173d7d7,2021-10-27_12h14.50.903,arrow_simon_punish,2021.1.2,Win32,120.105693,,,,,,,,,,,,,,w,1,1.317,1.589882626,1,1,8,3,35,3,1,,,,,,,,,,,,,,
,,,,,,,,,,,right.png,,p,left,5c23c03889f035000173d7d7,2021-10-27_12h14.50.903,arrow_simon_punish,2021.1.2,Win32,120.105693,,,,,,,,,,,,,,w,0,1.6096,2.477683561,1,1,9,0,36,0,1,,,,,,,,,,,,,,
,,,,,,,,,,,right.png,,p,right,5c23c03889f035000173d7d7,2021-10-27_12h14.50.903,arrow_simon_punish,2021.1.2,Win32,120.105693,,,,,,,,,,,,,,p,1,1.8753,2.395019607,1,1,9,1,37,1,1,,,,,,,,,,,,,,
,,,,,,,,,,,left.png,,w,right,5c23c03889f035000173d7d7,2021-10-27_12h14.50.903,arrow_simon_punish,2021.1.2,Win32,120.105693,,,,,,,,,,,,,,w,1,1.5169,2.130036122,0,1,9,2,38,3,1,,,,,,,,,,,,,,
,,,,,,,,,,,right.png,,p,right,5c23c03889f035000173d7d7,2021-10-27_12h14.50.903,arrow_simon_punish,2021.1.2,Win32,120.105693,,,,,,,,,,,,,,w,0,1.634,2.480998886,1,1,9,3,39,1,1,,,,,,,,,,,,,,
,,,,,,,,,,,right.png,,p,left,5c23c03889f035000173d7d7,2021-10-27_12h14.50.903,arrow_simon_punish,2021.1.2,Win32,120.105693,,,,,,,,,,,,,,p,1,1.5217,2.042264068,0,1,10,0,40,0,1,,,,,,,,,,,,,,
,,,,,,,,,,,right.png,,p,right,5c23c03889f035000173d7d7,2021-10-27_12h14.50.903,arrow_simon_punish,2021.1.2,Win32,120.105693,,,,,,,,,,,,,,p,1,1.6723,2.396338815,1,1,10,1,41,1,1,,,,,,,,,,,,,,
,,,,,,,,,,,right.png,,p,right,5c23c03889f035000173d7d7,2021-10-27_12h14.50.903,arrow_simon_punish,2021.1.2,Win32,120.105693,,,,,,,,,,,,,,p,1,1.5754,2.178092705,0,1,10,2,42,1,1,,,,,,,,,,,,,,
,,,,,,,,,,,left.png,,w,right,5c23c03889f035000173d7d7,2021-10-27_12h14.50.903,arrow_simon_punish,2021.1.2,Win32,120.105693,,,,,,,,,,,,,,w,1,1.4357,1.87072903,0,1,10,3,43,3,1,,,,,,,,,,,,,,
,,,,,,,,,,,left.png,,w,right,5c23c03889f035000173d7d7,2021-10-27_12h14.50.903,arrow_simon_punish,2021.1.2,Win32,120.105693,,,,,,,,,,,,,,w,1,1.6701,2.465435566,1,1,11,0,44,3,1,,,,,,,,,,,,,,
,,,,,,,,,,,left.png,,w,left,5c23c03889f035000173d7d7,2021-10-27_12h14.50.903,arrow_simon_punish,2021.1.2,Win32,120.105693,,,,,,,,,,,,,,w,1,1.7848,1.562720564,1,1,11,1,45,2,1,,,,,,,,,,,,,,
,,,,,,,,,,,right.png,,p,left,5c23c03889f035000173d7d7,2021-10-27_12h14.50.903,arrow_simon_punish,2021.1.2,Win32,120.105693,,,,,,,,,,,,,,w,0,1.855,2.239419824,1,1,11,2,46,0,1,,,,,,,,,,,,,,
,,,,,,,,,,,right.png,,p,right,5c23c03889f035000173d7d7,2021-10-27_12h14.50.903,arrow_simon_punish,2021.1.2,Win32,120.105693,,,,,,,,,,,,,,p,1,1.4281,1.70812157,0,1,11,3,47,1,1,,,,,,,,,,,,,,
,,,,,,,,,,,right.png,,p,left,5c23c03889f035000173d7d7,2021-10-27_12h14.50.903,arrow_simon_punish,2021.1.2,Win32,120.105693,,,,,,,,,,,,,,w,0,1.7255,2.412166483,1,1,12,0,48,0,1,,,,,,,,,,,,,,
,,,,,,,,,,,right.png,,p,left,5c23c03889f035000173d7d7,2021-10-27_12h14.50.903,arrow_simon_punish,2021.1.2,Win32,120.105693,,,,,,,,,,,,,,p,1,1.843,2.145442766,1,1,12,1,49,0,1,,,,,,,,,,,,,,
,,,,,,,,,,,right.png,,p,right,5c23c03889f035000173d7d7,2021-10-27_12h14.50.903,arrow_simon_punish,2021.1.2,Win32,120.105693,,,,,,,,,,,,,,p,1,1.4336,1.5904915,0,1,12,2,50,1,1,,,,,,,,,,,,,,
,,,,,,,,,,,left.png,,w,right,5c23c03889f035000173d7d7,2021-10-27_12h14.50.903,arrow_simon_punish,2021.1.2,Win32,120.105693,,,,,,,,,,,,,,w,1,1.5753,2.122167583,0,1,12,3,51,3,1,,,,,,,,,,,,,,
,,,,,,,,,,,right.png,,p,right,5c23c03889f035000173d7d7,2021-10-27_12h14.50.903,arrow_simon_punish,2021.1.2,Win32,120.105693,,,,,,,,,,,,,,w,0,1.9343,2.485646726,1,1,13,0,52,1,1,,,,,,,,,,,,,,
,,,,,,,,,,,left.png,,w,left,5c23c03889f035000173d7d7,2021-10-27_12h14.50.903,arrow_simon_punish,2021.1.2,Win32,120.105693,,,,,,,,,,,,,,w,1,1.7724,2.475328698,1,1,13,1,53,2,1,,,,,,,,,,,,,,
,,,,,,,,,,,left.png,,w,left,5c23c03889f035000173d7d7,2021-10-27_12h14.50.903,arrow_simon_punish,2021.1.2,Win32,120.105693,,,,,,,,,,,,,,w,1,1.5774,2.164172312,0,1,13,2,54,2,1,,,,,,,,,,,,,,
,,,,,,,,,,,left.png,,w,right,5c23c03889f035000173d7d7,2021-10-27_12h14.50.903,arrow_simon_punish,2021.1.2,Win32,120.105693,,,,,,,,,,,,,,p,0,1.6005,2.255004912,1,1,13,3,55,3,1,,,,,,,,,,,,,,
,,,,,,,,,,,left.png,,w,left,5c23c03889f035000173d7d7,2021-10-27_12h14.50.903,arrow_simon_punish,2021.1.2,Win32,120.105693,,,,,,,,,,,,,,p,0,1.5217,1.688079811,1,1,14,0,56,2,1,,,,,,,,,,,,,,
,,,,,,,,,,,right.png,,p,left,5c23c03889f035000173d7d7,2021-10-27_12h14.50.903,arrow_simon_punish,2021.1.2,Win32,120.105693,,,,,,,,,,,,,,p,1,1.717,1.836809213,1,1,14,1,57,0,1,,,,,,,,,,,,,,
,,,,,,,,,,,right.png,,p,left,5c23c03889f035000173d7d7,2021-10-27_12h14.50.903,arrow_simon_punish,2021.1.2,Win32,120.105693,,,,,,,,,,,,,,p,1,1.5671,1.961696172,0,1,14,2,58,0,1,,,,,,,,,,,,,,
,,,,,,,,,,,right.png,,p,left,5c23c03889f035000173d7d7,2021-10-27_12h14.50.903,arrow_simon_punish,2021.1.2,Win32,120.105693,,,,,,,,,,,,,,p,1,1.5717,1.74629354,0,1,14,3,59,0,1,,,,,,,,,,,,,,
,,,,,,,,,,,,,,,5c23c03889f035000173d7d7,2021-10-27_12h14.50.903,arrow_simon_punish,2021.1.2,Win32,120.105693,,,,,,,,,,,,,,,,,,,,,,,,,space,14.8303,6,2,0,4,0,1,1,,,,,
,,,,,,,,,,,right.png,,p,left,5c23c03889f035000173d7d7,2021-10-27_12h14.50.903,arrow_simon_punish,2021.1.2,Win32,120.105693,,,,,,,,,,,,,,p,1,1.3781,2.010113868,1,5,0,0,0,0,1,,,,,,,,,,,,,,
,,,,,,,,,,,right.png,,p,right,5c23c03889f035000173d7d7,2021-10-27_12h14.50.903,arrow_simon_punish,2021.1.2,Win32,120.105693,,,,,,,,,,,,,,p,1,1.5173,1.958336205,0,5,0,1,1,1,1,,,,,,,,,,,,,,
,,,,,,,,,,,right.png,,p,left,5c23c03889f035000173d7d7,2021-10-27_12h14.50.903,arrow_simon_punish,2021.1.2,Win32,120.105693,,,,,,,,,,,,,,p,1,1.5861,1.707473464,0,5,0,2,2,0,1,,,,,,,,,,,,,,
,,,,,,,,,,,left.png,,w,right,5c23c03889f035000173d7d7,2021-10-27_12h14.50.903,arrow_simon_punish,2021.1.2,Win32,120.105693,,,,,,,,,,,,,,w,1,1.6889,2.217271766,1,5,0,3,3,3,1,,,,,,,,,,,,,,
,,,,,,,,,,,right.png,,p,left,5c23c03889f035000173d7d7,2021-10-27_12h14.50.903,arrow_simon_punish,2021.1.2,Win32,120.105693,,,,,,,,,,,,,,p,1,1.4934,1.644678385,0,5,1,0,4,0,1,,,,,,,,,,,,,,
,,,,,,,,,,,left.png,,w,right,5c23c03889f035000173d7d7,2021-10-27_12h14.50.903,arrow_simon_punish,2021.1.2,Win32,120.105693,,,,,,,,,,,,,,p,0,1.5222,2.330863162,1,5,1,1,5,3,1,,,,,,,,,,,,,,
,,,,,,,,,,,left.png,,w,right,5c23c03889f035000173d7d7,2021-10-27_12h14.50.903,arrow_simon_punish,2021.1.2,Win32,120.105693,,,,,,,,,,,,,,w,1,1.4266,2.441702496,0,5,1,2,6,3,1,,,,,,,,,,,,,,
,,,,,,,,,,,right.png,,p,right,5c23c03889f035000173d7d7,2021-10-27_12h14.50.903,arrow_simon_punish,2021.1.2,Win32,120.105693,,,,,,,,,,,,,,p,1,1.1963,1.635833305,1,5,1,3,7,1,1,,,,,,,,,,,,,,
,,,,,,,,,,,left.png,,w,right,5c23c03889f035000173d7d7,2021-10-27_12h14.50.903,arrow_simon_punish,2021.1.2,Win32,120.105693,,,,,,,,,,,,,,p,0,1.717,2.478747147,1,5,2,0,8,3,1,,,,,,,,,,,,,,
,,,,,,,,,,,right.png,,p,left,5c23c03889f035000173d7d7,2021-10-27_12h14.50.903,arrow_simon_punish,2021.1.2,Win32,120.105693,,,,,,,,,,,,,,p,1,1.717,2.292884601,1,5,2,1,9,0,1,,,,,,,,,,,,,,
,,,,,,,,,,,right.png,,p,right,5c23c03889f035000173d7d7,2021-10-27_12h14.50.903,arrow_simon_punish,2021.1.2,Win32,120.105693,,,,,,,,,,,,,,w,0,1.592,2.289529312,1,5,2,2,10,1,1,,,,,,,,,,,,,,
,,,,,,,,,,,left.png,,w,left,5c23c03889f035000173d7d7,2021-10-27_12h14.50.903,arrow_simon_punish,2021.1.2,Win32,120.105693,,,,,,,,,,,,,,w,1,1.7424,2.422770179,1,5,2,3,11,2,1,,,,,,,,,,,,,,
,,,,,,,,,,,left.png,,w,right,5c23c03889f035000173d7d7,2021-10-27_12h14.50.903,arrow_simon_punish,2021.1.2,Win32,120.105693,,,,,,,,,,,,,,w,1,1.5506,1.937127894,0,5,3,0,12,3,1,,,,,,,,,,,,,,
,,,,,,,,,,,left.png,,w,right,5c23c03889f035000173d7d7,2021-10-27_12h14.50.903,arrow_simon_punish,2021.1.2,Win32,120.105693,,,,,,,,,,,,,,w,1,1.578,2.345278782,0,5,3,1,13,3,1,,,,,,,,,,,,,,
,,,,,,,,,,,left.png,,w,left,5c23c03889f035000173d7d7,2021-10-27_12h14.50.903,arrow_simon_punish,2021.1.2,Win32,120.105693,,,,,,,,,,,,,,w,1,1.9254,1.651215399,1,5,3,2,14,2,1,,,,,,,,,,,,,,
,,,,,,,,,,,right.png,,p,left,5c23c03889f035000173d7d7,2021-10-27_12h14.50.903,arrow_simon_punish,2021.1.2,Win32,120.105693,,,,,,,,,,,,,,p,1,1.4685,1.953184102,0,5,3,3,15,0,1,,,,,,,,,,,,,,
,,,,,,,,,,,right.png,,p,right,5c23c03889f035000173d7d7,2021-10-27_12h14.50.903,arrow_simon_punish,2021.1.2,Win32,120.105693,,,,,,,,,,,,,,p,1,1.7256,2.009905948,1,5,4,0,16,1,1,,,,,,,,,,,,,,
,,,,,,,,,,,left.png,,w,left,5c23c03889f035000173d7d7,2021-10-27_12h14.50.903,arrow_simon_punish,2021.1.2,Win32,120.105693,,,,,,,,,,,,,,p,0,1.6671,2.455511668,1,5,4,1,17,2,1,,,,,,,,,,,,,,
,,,,,,,,,,,right.png,,p,left,5c23c03889f035000173d7d7,2021-10-27_12h14.50.903,arrow_simon_punish,2021.1.2,Win32,120.105693,,,,,,,,,,,,,,p,1,1.4837,1.909972039,0,5,4,2,18,0,1,,,,,,,,,,,,,,
,,,,,,,,,,,left.png,,w,left,5c23c03889f035000173d7d7,2021-10-27_12h14.50.903,arrow_simon_punish,2021.1.2,Win32,120.105693,,,,,,,,,,,,,,w,1,1.4221,1.693723087,0,5,4,3,19,2,1,,,,,,,,,,,,,,
,,,,,,,,,,,left.png,,w,right,5c23c03889f035000173d7d7,2021-10-27_12h14.50.903,arrow_simon_punish,2021.1.2,Win32,120.105693,,,,,,,,,,,,,,w,1,1.7269,2.049691503,1,5,5,0,20,3,1,,,,,,,,,,,,,,
,,,,,,,,,,,right.png,,p,left,5c23c03889f035000173d7d7,2021-10-27_12h14.50.903,arrow_simon_punish,2021.1.2,Win32,120.105693,,,,,,,,,,,,,,w,0,1.5168,2.427394743,1,5,5,1,21,0,1,,,,,,,,,,,,,,
,,,,,,,,,,,right.png,,p,left,5c23c03889f035000173d7d7,2021-10-27_12h14.50.903,arrow_simon_punish,2021.1.2,Win32,120.105693,,,,,,,,,,,,,,p,1,1.517,2.196925821,0,5,5,2,22,0,1,,,,,,,,,,,,,,
,,,,,,,,,,,left.png,,w,right,5c23c03889f035000173d7d7,2021-10-27_12h14.50.903,arrow_simon_punish,2021.1.2,Win32,120.105693,,,,,,,,,,,,,,w,1,1.4629,1.899182199,0,5,5,3,23,3,1,,,,,,,,,,,,,,
,,,,,,,,,,,left.png,,w,right,5c23c03889f035000173d7d7,2021-10-27_12h14.50.903,arrow_simon_punish,2021.1.2,Win32,120.105693,,,,,,,,,,,,,,p,0,1.5753,2.123795823,1,5,6,0,24,3,1,,,,,,,,,,,,,,
,,,,,,,,,,,right.png,,p,left,5c23c03889f035000173d7d7,2021-10-27_12h14.50.903,arrow_simon_punish,2021.1.2,Win32,120.105693,,,,,,,,,,,,,,w,0,1.6542,2.284472705,1,5,6,1,25,0,1,,,,,,,,,,,,,,
,,,,,,,,,,,left.png,,w,right,5c23c03889f035000173d7d7,2021-10-27_12h14.50.903,arrow_simon_punish,2021.1.2,Win32,120.105693,,,,,,,,,,,,,,p,0,1.026,1.582595467,1,5,6,2,26,3,1,,,,,,,,,,,,,,
,,,,,,,,,,,right.png,,p,right,5c23c03889f035000173d7d7,2021-10-27_12h14.50.903,arrow_simon_punish,2021.1.2,Win32,120.105693,,,,,,,,,,,,,,p,1,1.7201,2.404746227,1,5,6,3,27,1,1,,,,,,,,,,,,,,
,,,,,,,,,,,right.png,,p,right,5c23c03889f035000173d7d7,2021-10-27_12h14.50.903,arrow_simon_punish,2021.1.2,Win32,120.105693,,,,,,,,,,,,,,p,1,1.7205,1.527187969,1,5,7,0,28,1,1,,,,,,,,,,,,,,
,,,,,,,,,,,left.png,,w,left,5c23c03889f035000173d7d7,2021-10-27_12h14.50.903,arrow_simon_punish,2021.1.2,Win32,120.105693,,,,,,,,,,,,,,w,1,1.6183,2.049101036,1,5,7,1,29,2,1,,,,,,,,,,,,,,
,,,,,,,,,,,right.png,,p,right,5c23c03889f035000173d7d7,2021-10-27_12h14.50.903,arrow_simon_punish,2021.1.2,Win32,120.105693,,,,,,,,,,,,,,p,1,1.6837,2.161625019,1,5,7,2,30,1,1,,,,,,,,,,,,,,
,,,,,,,,,,,left.png,,w,left,5c23c03889f035000173d7d7,2021-10-27_12h14.50.903,arrow_simon_punish,2021.1.2,Win32,120.105693,,,,,,,,,,,,,,w,1,1.6042,2.27716041,1,5,7,3,31,2,1,,,,,,,,,,,,,,
,,,,,,,,,,,right.png,,p,right,5c23c03889f035000173d7d7,2021-10-27_12h14.50.903,arrow_simon_punish,2021.1.2,Win32,120.105693,,,,,,,,,,,,,,p,1,0.9609,1.759443442,1,5,8,0,32,1,1,,,,,,,,,,,,,,
,,,,,,,,,,,right.png,,p,right,5c23c03889f035000173d7d7,2021-10-27_12h14.50.903,arrow_simon_punish,2021.1.2,Win32,120.105693,,,,,,,,,,,,,,p,1,1.3964,2.109380216,1,5,8,1,33,1,1,,,,,,,,,,,,,,
,,,,,,,,,,,left.png,,w,left,5c23c03889f035000173d7d7,2021-10-27_12h14.50.903,arrow_simon_punish,2021.1.2,Win32,120.105693,,,,,,,,,,,,,,w,1,1.475,1.996375868,0,5,8,2,34,2,1,,,,,,,,,,,,,,
,,,,,,,,,,,left.png,,w,right,5c23c03889f035000173d7d7,2021-10-27_12h14.50.903,arrow_simon_punish,2021.1.2,Win32,120.105693,,,,,,,,,,,,,,w,1,1.7033,2.249454928,1,5,8,3,35,3,1,,,,,,,,,,,,,,
,,,,,,,,,,,left.png,,w,left,5c23c03889f035000173d7d7,2021-10-27_12h14.50.903,arrow_simon_punish,2021.1.2,Win32,120.105693,,,,,,,,,,,,,,w,1,1.5837,2.004134827,0,5,9,0,36,2,1,,,,,,,,,,,,,,
,,,,,,,,,,,right.png,,p,right,5c23c03889f035000173d7d7,2021-10-27_12h14.50.903,arrow_simon_punish,2021.1.2,Win32,120.105693,,,,,,,,,,,,,,p,1,1.6124,2.305838047,1,5,9,1,37,1,1,,,,,,,,,,,,,,
,,,,,,,,,,,right.png,,p,left,5c23c03889f035000173d7d7,2021-10-27_12h14.50.903,arrow_simon_punish,2021.1.2,Win32,120.105693,,,,,,,,,,,,,,p,1,1.9478,1.846030133,1,5,9,2,38,0,1,,,,,,,,,,,,,,
,,,,,,,,,,,left.png,,w,left,5c23c03889f035000173d7d7,2021-10-27_12h14.50.903,arrow_simon_punish,2021.1.2,Win32,120.105693,,,,,,,,,,,,,,w,1,1.239,1.673818277,1,5,9,3,39,2,1,,,,,,,,,,,,,,
,,,,,,,,,,,right.png,,p,right,5c23c03889f035000173d7d7,2021-10-27_12h14.50.903,arrow_simon_punish,2021.1.2,Win32,120.105693,,,,,,,,,,,,,,p,1,1.4511,1.798122804,0,5,10,0,40,1,1,,,,,,,,,,,,,,
,,,,,,,,,,,right.png,,p,left,5c23c03889f035000173d7d7,2021-10-27_12h14.50.903,arrow_simon_punish,2021.1.2,Win32,120.105693,,,,,,,,,,,,,,p,1,1.7107,1.854453729,1,5,10,1,41,0,1,,,,,,,,,,,,,,
,,,,,,,,,,,left.png,,w,right,5c23c03889f035000173d7d7,2021-10-27_12h14.50.903,arrow_simon_punish,2021.1.2,Win32,120.105693,,,,,,,,,,,,,,w,1,1.6754,2.008351576,1,5,10,2,42,3,1,,,,,,,,,,,,,,
,,,,,,,,,,,left.png,,w,left,5c23c03889f035000173d7d7,2021-10-27_12h14.50.903,arrow_simon_punish,2021.1.2,Win32,120.105693,,,,,,,,,,,,,,w,1,1.4888,1.595831888,0,5,10,3,43,2,1,,,,,,,,,,,,,,
,,,,,,,,,,,left.png,,w,left,5c23c03889f035000173d7d7,2021-10-27_12h14.50.903,arrow_simon_punish,2021.1.2,Win32,120.105693,,,,,,,,,,,,,,w,1,1.7723,2.002883646,1,5,11,0,44,2,1,,,,,,,,,,,,,,
,,,,,,,,,,,right.png,,p,right,5c23c03889f035000173d7d7,2021-10-27_12h14.50.903,arrow_simon_punish,2021.1.2,Win32,120.105693,,,,,,,,,,,,,,p,1,1.6838,2.429928999,1,5,11,1,45,1,1,,,,,,,,,,,,,,
,,,,,,,,,,,right.png,,p,left,5c23c03889f035000173d7d7,2021-10-27_12h14.50.903,arrow_simon_punish,2021.1.2,Win32,120.105693,,,,,,,,,,,,,,w,0,1.0188,1.652672547,1,5,11,2,46,0,1,,,,,,,,,,,,,,
,,,,,,,,,,,right.png,,p,left,5c23c03889f035000173d7d7,2021-10-27_12h14.50.903,arrow_simon_punish,2021.1.2,Win32,120.105693,,,,,,,,,,,,,,p,1,1.0873,1.541257744,1,5,11,3,47,0,1,,,,,,,,,,,,,,
,,,,,,,,,,,right.png,,p,right,5c23c03889f035000173d7d7,2021-10-27_12h14.50.903,arrow_simon_punish,2021.1.2,Win32,120.105693,,,,,,,,,,,,,,p,1,1.5692,2.269425979,0,5,12,0,48,1,1,,,,,,,,,,,,,,
,,,,,,,,,,,right.png,,p,left,5c23c03889f035000173d7d7,2021-10-27_12h14.50.903,arrow_simon_punish,2021.1.2,Win32,120.105693,,,,,,,,,,,,,,p,1,1.6589,2.062027656,1,5,12,1,49,0,1,,,,,,,,,,,,,,
,,,,,,,,,,,left.png,,w,right,5c23c03889f035000173d7d7,2021-10-27_12h14.50.903,arrow_simon_punish,2021.1.2,Win32,120.105693,,,,,,,,,,,,,,w,1,1.4666,2.010419797,0,5,12,2,50,3,1,,,,,,,,,,,,,,
,,,,,,,,,,,left.png,,w,right,5c23c03889f035000173d7d7,2021-10-27_12h14.50.903,arrow_simon_punish,2021.1.2,Win32,120.105693,,,,,,,,,,,,,,w,1,1.6005,2.252143241,1,5,12,3,51,3,1,,,,,,,,,,,,,,
,,,,,,,,,,,left.png,,w,right,5c23c03889f035000173d7d7,2021-10-27_12h14.50.903,arrow_simon_punish,2021.1.2,Win32,120.105693,,,,,,,,,,,,,,w,1,1.567,2.178097942,0,5,13,0,52,3,1,,,,,,,,,,,,,,
,,,,,,,,,,,left.png,,w,left,5c23c03889f035000173d7d7,2021-10-27_12h14.50.903,arrow_simon_punish,2021.1.2,Win32,120.105693,,,,,,,,,,,,,,w,1,1.7671,2.490036511,1,5,13,1,53,2,1,,,,,,,,,,,,,,
,,,,,,,,,,,left.png,,w,left,5c23c03889f035000173d7d7,2021-10-27_12h14.50.903,arrow_simon_punish,2021.1.2,Win32,120.105693,,,,,,,,,,,,,,w,1,1.5087,2.210286111,0,5,13,2,54,2,1,,,,,,,,,,,,,,
,,,,,,,,,,,left.png,,w,left,5c23c03889f035000173d7d7,2021-10-27_12h14.50.903,arrow_simon_punish,2021.1.2,Win32,120.105693,,,,,,,,,,,,,,w,1,1.7701,2.458324035,1,5,13,3,55,2,1,,,,,,,,,,,,,,
,,,,,,,,,,,right.png,,p,left,5c23c03889f035000173d7d7,2021-10-27_12h14.50.903,arrow_simon_punish,2021.1.2,Win32,120.105693,,,,,,,,,,,,,,w,0,0.496,2.204929691,1,5,14,0,56,0,1,,,,,,,,,,,,,,
,,,,,,,,,,,left.png,,w,left,5c23c03889f035000173d7d7,2021-10-27_12h14.50.903,arrow_simon_punish,2021.1.2,Win32,120.105693,,,,,,,,,,,,,,w,1,1.3363,2.48151272,1,5,14,1,57,2,1,,,,,,,,,,,,,,
,,,,,,,,,,,right.png,,p,right,5c23c03889f035000173d7d7,2021-10-27_12h14.50.903,arrow_simon_punish,2021.1.2,Win32,120.105693,,,,,,,,,,,,,,p,1,1.5207,1.776845582,0,5,14,2,58,1,1,,,,,,,,,,,,,,
,,,,,,,,,,,right.png,,p,right,5c23c03889f035000173d7d7,2021-10-27_12h14.50.903,arrow_simon_punish,2021.1.2,Win32,120.105693,,,,,,,,,,,,,,p,1,1.8345,2.485192613,1,5,14,3,59,1,1,,,,,,,,,,,,,,
,,,,,,,,,,,,,,,5c23c03889f035000173d7d7,2021-10-27_12h14.50.903,arrow_simon_punish,2021.1.2,Win32,120.105693,,,,,,,,,,,,,,,,,,,,,,,,,space,0.9916,7,2,1,5,1,1,5,,,,,
,,,,,,,,,,,right.png,,p,left,5c23c03889f035000173d7d7,2021-10-27_12h14.50.903,arrow_simon_punish,2021.1.2,Win32,120.105693,,,,,,,,,,,,,,p,1,1.5222,2.319687309,0,1,0,0,0,0,1,,,,,,,,,,,,,,
,,,,,,,,,,,left.png,,w,right,5c23c03889f035000173d7d7,2021-10-27_12h14.50.903,arrow_simon_punish,2021.1.2,Win32,120.105693,,,,,,,,,,,,,,w,1,1.3863,1.911479604,1,1,0,1,1,3,1,,,,,,,,,,,,,,
,,,,,,,,,,,left.png,,w,left,5c23c03889f035000173d7d7,2021-10-27_12h14.50.903,arrow_simon_punish,2021.1.2,Win32,120.105693,,,,,,,,,,,,,,w,1,1.2767,1.822631662,1,1,0,2,2,2,1,,,,,,,,,,,,,,
,,,,,,,,,,,right.png,,p,left,5c23c03889f035000173d7d7,2021-10-27_12h14.50.903,arrow_simon_punish,2021.1.2,Win32,120.105693,,,,,,,,,,,,,,p,1,1.5003,1.73282389,0,1,0,3,3,0,1,,,,,,,,,,,,,,
,,,,,,,,,,,left.png,,w,left,5c23c03889f035000173d7d7,2021-10-27_12h14.50.903,arrow_simon_punish,2021.1.2,Win32,120.105693,,,,,,,,,,,,,,w,1,1.5585,2.279817777,0,1,1,0,4,2,1,,,,,,,,,,,,,,
,,,,,,,,,,,left.png,,w,right,5c23c03889f035000173d7d7,2021-10-27_12h14.50.903,arrow_simon_punish,2021.1.2,Win32,120.105693,,,,,,,,,,,,,,w,1,1.5003,1.899839782,0,1,1,1,5,3,1,,,,,,,,,,,,,,
,,,,,,,,,,,right.png,,p,left,5c23c03889f035000173d7d7,2021-10-27_12h14.50.903,arrow_simon_punish,2021.1.2,Win32,120.105693,,,,,,,,,,,,,,w,0,0.2417,1.686336969,1,1,1,2,6,0,1,,,,,,,,,,,,,,
,,,,,,,,,,,right.png,,p,right,5c23c03889f035000173d7d7,2021-10-27_12h14.50.903,arrow_simon_punish,2021.1.2,Win32,120.105693,,,,,,,,,,,,,,p,1,1.6205,2.220287638,1,1,1,3,7,1,1,,,,,,,,,,,,,,
,,,,,,,,,,,right.png,,p,left,5c23c03889f035000173d7d7,2021-10-27_12h14.50.903,arrow_simon_punish,2021.1.2,Win32,120.105693,,,,,,,,,,,,,,p,1,1.6475,2.03551551,1,1,2,0,8,0,1,,,,,,,,,,,,,,
,,,,,,,,,,,right.png,,p,left,5c23c03889f035000173d7d7,2021-10-27_12h14.50.903,arrow_simon_punish,2021.1.2,Win32,120.105693,,,,,,,,,,,,,,p,1,1.4035,2.032346036,0,1,2,1,9,0,1,,,,,,,,,,,,,,
,,,,,,,,,,,left.png,,w,right,5c23c03889f035000173d7d7,2021-10-27_12h14.50.903,arrow_simon_punish,2021.1.2,Win32,120.105693,,,,,,,,,,,,,,p,0,1.8672,2.421753424,1,1,2,2,10,3,1,,,,,,,,,,,,,,
,,,,,,,,,,,left.png,,w,left,5c23c03889f035000173d7d7,2021-10-27_12h14.50.903,arrow_simon_punish,2021.1.2,Win32,120.105693,,,,,,,,,,,,,,w,1,1.417,1.79543602,0,1,2,3,11,2,1,,,,,,,,,,,,,,
,,,,,,,,,,,right.png,,p,right,5c23c03889f035000173d7d7,2021-10-27_12h14.50.903,arrow_simon_punish,2021.1.2,Win32,120.105693,,,,,,,,,,,,,,p,1,1.7841,2.411591145,1,1,3,0,12,1,1,,,,,,,,,,,,,,
,,,,,,,,,,,left.png,,w,left,5c23c03889f035000173d7d7,2021-10-27_12h14.50.903,arrow_simon_punish,2021.1.2,Win32,120.105693,,,,,,,,,,,,,,w,1,1.6172,1.882258671,1,1,3,1,13,2,1,,,,,,,,,,,,,,
,,,,,,,,,,,right.png,,p,right,5c23c03889f035000173d7d7,2021-10-27_12h14.50.903,arrow_simon_punish,2021.1.2,Win32,120.105693,,,,,,,,,,,,,,w,0,1.5253,2.315775514,1,1,3,2,14,1,1,,,,,,,,,,,,,,
,,,,,,,,,,,right.png,,p,right,5c23c03889f035000173d7d7,2021-10-27_12h14.50.903,arrow_simon_punish,2021.1.2,Win32,120.105693,,,,,,,,,,,,,,p,1,1.5335,1.944771982,0,1,3,3,15,1,1,,,,,,,,,,,,,,
,,,,,,,,,,,right.png,,p,right,5c23c03889f035000173d7d7,2021-10-27_12h14.50.903,arrow_simon_punish,2021.1.2,Win32,120.105693,,,,,,,,,,,,,,w,0,1.7751,2.481710737,1,1,4,0,16,1,1,,,,,,,,,,,,,,
,,,,,,,,,,,left.png,,w,left,5c23c03889f035000173d7d7,2021-10-27_12h14.50.903,arrow_simon_punish,2021.1.2,Win32,120.105693,,,,,,,,,,,,,,w,1,1.6707,2.322453783,1,1,4,1,17,2,1,,,,,,,,,,,,,,
,,,,,,,,,,,left.png,,w,left,5c23c03889f035000173d7d7,2021-10-27_12h14.50.903,arrow_simon_punish,2021.1.2,Win32,120.105693,,,,,,,,,,,,,,w,1,1.6004,1.814491473,1,1,4,2,18,2,1,,,,,,,,,,,,,,
,,,,,,,,,,,right.png,,p,left,5c23c03889f035000173d7d7,2021-10-27_12h14.50.903,arrow_simon_punish,2021.1.2,Win32,120.105693,,,,,,,,,,,,,,p,1,1.0087,1.516949759,1,1,4,3,19,0,1,,,,,,,,,,,,,,
,,,,,,,,,,,left.png,,w,left,5c23c03889f035000173d7d7,2021-10-27_12h14.50.903,arrow_simon_punish,2021.1.2,Win32,120.105693,,,,,,,,,,,,,,w,1,1.7836,2.331827489,1,1,5,0,20,2,1,,,,,,,,,,,,,,
,,,,,,,,,,,left.png,,w,right,5c23c03889f035000173d7d7,2021-10-27_12h14.50.903,arrow_simon_punish,2021.1.2,Win32,120.105693,,,,,,,,,,,,,,w,1,1.252,1.751275837,1,1,5,1,21,3,1,,,,,,,,,,,,,,
,,,,,,,,,,,right.png,,p,left,5c23c03889f035000173d7d7,2021-10-27_12h14.50.903,arrow_simon_punish,2021.1.2,Win32,120.105693,,,,,,,,,,,,,,p,1,1.2306,1.561018619,1,1,5,2,22,0,1,,,,,,,,,,,,,,
,,,,,,,,,,,right.png,,p,left,5c23c03889f035000173d7d7,2021-10-27_12h14.50.903,arrow_simon_punish,2021.1.2,Win32,120.105693,,,,,,,,,,,,,,p,1,1.6108,2.067657448,1,1,5,3,23,0,1,,,,,,,,,,,,,,
,,,,,,,,,,,right.png,,p,left,5c23c03889f035000173d7d7,2021-10-27_12h14.50.903,arrow_simon_punish,2021.1.2,Win32,120.105693,,,,,,,,,,,,,,p,1,1.542,2.183840664,0,1,6,0,24,0,1,,,,,,,,,,,,,,
,,,,,,,,,,,left.png,,w,right,5c23c03889f035000173d7d7,2021-10-27_12h14.50.903,arrow_simon_punish,2021.1.2,Win32,120.105693,,,,,,,,,,,,,,w,1,1.8391,2.478654447,1,1,6,1,25,3,1,,,,,,,,,,,,,,
,,,,,,,,,,,left.png,,w,right,5c23c03889f035000173d7d7,2021-10-27_12h14.50.903,arrow_simon_punish,2021.1.2,Win32,120.105693,,,,,,,,,,,,,,w,1,1.2168,1.725920341,1,1,6,2,26,3,1,,,,,,,,,,,,,,
,,,,,,,,,,,left.png,,w,right,5c23c03889f035000173d7d7,2021-10-27_12h14.50.903,arrow_simon_punish,2021.1.2,Win32,120.105693,,,,,,,,,,,,,,w,1,1.4369,1.994698941,0,1,6,3,27,3,1,,,,,,,,,,,,,,
,,,,,,,,,,,right.png,,p,right,5c23c03889f035000173d7d7,2021-10-27_12h14.50.903,arrow_simon_punish,2021.1.2,Win32,120.105693,,,,,,,,,,,,,,p,1,1.5046,1.706818069,0,1,7,0,28,1,1,,,,,,,,,,,,,,
,,,,,,,,,,,right.png,,p,left,5c23c03889f035000173d7d7,2021-10-27_12h14.50.903,arrow_simon_punish,2021.1.2,Win32,120.105693,,,,,,,,,,,,,,p,1,1.8162,1.808704357,1,1,7,1,29,0,1,,,,,,,,,,,,,,
,,,,,,,,,,,left.png,,w,right,5c23c03889f035000173d7d7,2021-10-27_12h14.50.903,arrow_simon_punish,2021.1.2,Win32,120.105693,,,,,,,,,,,,,,w,1,1.7007,2.340105291,1,1,7,2,30,3,1,,,,,,,,,,,,,,
,,,,,,,,,,,right.png,,p,left,5c23c03889f035000173d7d7,2021-10-27_12h14.50.903,arrow_simon_punish,2021.1.2,Win32,120.105693,,,,,,,,,,,,,,p,1,1.7922,2.381474658,1,1,7,3,31,0,1,,,,,,,,,,,,,,
,,,,,,,,,,,left.png,,w,right,5c23c03889f035000173d7d7,2021-10-27_12h14.50.903,arrow_simon_punish,2021.1.2,Win32,120.105693,,,,,,,,,,,,,,w,1,1.4093,1.815711622,0,1,8,0,32,3,1,,,,,,,,,,,,,,
,,,,,,,,,,,right.png,,p,left,5c23c03889f035000173d7d7,2021-10-27_12h14.50.903,arrow_simon_punish,2021.1.2,Win32,120.105693,,,,,,,,,,,,,,p,1,1.71,2.12787894,1,1,8,1,33,0,1,,,,,,,,,,,,,,
,,,,,,,,,,,right.png,,p,right,5c23c03889f035000173d7d7,2021-10-27_12h14.50.903,arrow_simon_punish,2021.1.2,Win32,120.105693,,,,,,,,,,,,,,p,1,1.4631,1.84361598,0,1,8,2,34,1,1,,,,,,,,,,,,,,
,,,,,,,,,,,right.png,,p,left,5c23c03889f035000173d7d7,2021-10-27_12h14.50.903,arrow_simon_punish,2021.1.2,Win32,120.105693,,,,,,,,,,,,,,p,1,1.8839,1.537039849,1,1,8,3,35,0,1,,,,,,,,,,,,,,
,,,,,,,,,,,right.png,,p,right,5c23c03889f035000173d7d7,2021-10-27_12h14.50.903,arrow_simon_punish,2021.1.2,Win32,120.105693,,,,,,,,,,,,,,p,1,1.8047,2.289999133,1,1,9,0,36,1,1,,,,,,,,,,,,,,
,,,,,,,,,,,left.png,,w,right,5c23c03889f035000173d7d7,2021-10-27_12h14.50.903,arrow_simon_punish,2021.1.2,Win32,120.105693,,,,,,,,,,,,,,w,1,1.2087,1.765638989,1,1,9,1,37,3,1,,,,,,,,,,,,,,
,,,,,,,,,,,right.png,,p,right,5c23c03889f035000173d7d7,2021-10-27_12h14.50.903,arrow_simon_punish,2021.1.2,Win32,120.105693,,,,,,,,,,,,,,p,1,1.3842,1.824074995,1,1,9,2,38,1,1,,,,,,,,,,,,,,
,,,,,,,,,,,right.png,,p,right,5c23c03889f035000173d7d7,2021-10-27_12h14.50.903,arrow_simon_punish,2021.1.2,Win32,120.105693,,,,,,,,,,,,,,p,1,1.0304,1.573669996,1,1,9,3,39,1,1,,,,,,,,,,,,,,
,,,,,,,,,,,right.png,,p,right,5c23c03889f035000173d7d7,2021-10-27_12h14.50.903,arrow_simon_punish,2021.1.2,Win32,120.105693,,,,,,,,,,,,,,p,1,1.6719,2.384776614,1,1,10,0,40,1,1,,,,,,,,,,,,,,
,,,,,,,,,,,left.png,,w,right,5c23c03889f035000173d7d7,2021-10-27_12h14.50.903,arrow_simon_punish,2021.1.2,Win32,120.105693,,,,,,,,,,,,,,w,1,1.1957,1.586502648,1,1,10,1,41,3,1,,,,,,,,,,,,,,
,,,,,,,,,,,left.png,,w,left,5c23c03889f035000173d7d7,2021-10-27_12h14.50.903,arrow_simon_punish,2021.1.2,Win32,120.105693,,,,,,,,,,,,,,w,1,1.6136,2.370821874,1,1,10,2,42,2,1,,,,,,,,,,,,,,
,,,,,,,,,,,left.png,,w,left,5c23c03889f035000173d7d7,2021-10-27_12h14.50.903,arrow_simon_punish,2021.1.2,Win32,120.105693,,,,,,,,,,,,,,w,1,1.0919,1.825429517,1,1,10,3,43,2,1,,,,,,,,,,,,,,
,,,,,,,,,,,left.png,,w,right,5c23c03889f035000173d7d7,2021-10-27_12h14.50.903,arrow_simon_punish,2021.1.2,Win32,120.105693,,,,,,,,,,,,,,w,1,1.6337,2.131477894,1,1,11,0,44,3,1,,,,,,,,,,,,,,
,,,,,,,,,,,right.png,,p,right,5c23c03889f035000173d7d7,2021-10-27_12h14.50.903,arrow_simon_punish,2021.1.2,Win32,120.105693,,,,,,,,,,,,,,p,1,1.4725,1.75452728,0,1,11,1,45,1,1,,,,,,,,,,,,,,
,,,,,,,,,,,left.png,,w,left,5c23c03889f035000173d7d7,2021-10-27_12h14.50.903,arrow_simon_punish,2021.1.2,Win32,120.105693,,,,,,,,,,,,,,w,1,1.8172,2.336484889,1,1,11,2,46,2,1,,,,,,,,,,,,,,
,,,,,,,,,,,right.png,,p,right,5c23c03889f035000173d7d7,2021-10-27_12h14.50.903,arrow_simon_punish,2021.1.2,Win32,120.105693,,,,,,,,,,,,,,p,1,1.0778,1.665845351,1,1,11,3,47,1,1,,,,,,,,,,,,,,
,,,,,,,,,,,left.png,,w,right,5c23c03889f035000173d7d7,2021-10-27_12h14.50.903,arrow_simon_punish,2021.1.2,Win32,120.105693,,,,,,,,,,,,,,w,1,1.68,2.061404756,1,1,12,0,48,3,1,,,,,,,,,,,,,,
,,,,,,,,,,,right.png,,p,left,5c23c03889f035000173d7d7,2021-10-27_12h14.50.903,arrow_simon_punish,2021.1.2,Win32,120.105693,,,,,,,,,,,,,,p,1,1.254,1.744749743,1,1,12,1,49,0,1,,,,,,,,,,,,,,
,,,,,,,,,,,left.png,,w,left,5c23c03889f035000173d7d7,2021-10-27_12h14.50.903,arrow_simon_punish,2021.1.2,Win32,120.105693,,,,,,,,,,,,,,w,1,1.5181,1.930593493,0,1,12,2,50,2,1,,,,,,,,,,,,,,
,,,,,,,,,,,left.png,,w,left,5c23c03889f035000173d7d7,2021-10-27_12h14.50.903,arrow_simon_punish,2021.1.2,Win32,120.105693,,,,,,,,,,,,,,w,1,1.3004,1.566637306,1,1,12,3,51,2,1,,,,,,,,,,,,,,
,,,,,,,,,,,left.png,,w,left,5c23c03889f035000173d7d7,2021-10-27_12h14.50.903,arrow_simon_punish,2021.1.2,Win32,120.105693,,,,,,,,,,,,,,w,1,1.6625,1.602179511,1,1,13,0,52,2,1,,,,,,,,,,,,,,
,,,,,,,,,,,left.png,,w,right,5c23c03889f035000173d7d7,2021-10-27_12h14.50.903,arrow_simon_punish,2021.1.2,Win32,120.105693,,,,,,,,,,,,,,w,1,1.2256,1.619137463,1,1,13,1,53,3,1,,,,,,,,,,,,,,
,,,,,,,,,,,left.png,,w,left,5c23c03889f035000173d7d7,2021-10-27_12h14.50.903,arrow_simon_punish,2021.1.2,Win32,120.105693,,,,,,,,,,,,,,w,1,1.6213,2.056159906,1,1,13,2,54,2,1,,,,,,,,,,,,,,
,,,,,,,,,,,right.png,,p,left,5c23c03889f035000173d7d7,2021-10-27_12h14.50.903,arrow_simon_punish,2021.1.2,Win32,120.105693,,,,,,,,,,,,,,w,0,1.367,2.041111148,1,1,13,3,55,0,1,,,,,,,,,,,,,,
,,,,,,,,,,,right.png,,p,right,5c23c03889f035000173d7d7,2021-10-27_12h14.50.903,arrow_simon_punish,2021.1.2,Win32,120.105693,,,,,,,,,,,,,,p,1,1.3966,1.618648397,1,1,14,0,56,1,1,,,,,,,,,,,,,,
,,,,,,,,,,,right.png,,p,right,5c23c03889f035000173d7d7,2021-10-27_12h14.50.903,arrow_simon_punish,2021.1.2,Win32,120.105693,,,,,,,,,,,,,,p,1,1.3689,1.935828481,1,1,14,1,57,1,1,,,,,,,,,,,,,,
,,,,,,,,,,,left.png,,w,left,5c23c03889f035000173d7d7,2021-10-27_12h14.50.903,arrow_simon_punish,2021.1.2,Win32,120.105693,,,,,,,,,,,,,,w,1,1.767,1.666764876,1,1,14,2,58,2,1,,,,,,,,,,,,,,
,,,,,,,,,,,left.png,,w,right,5c23c03889f035000173d7d7,2021-10-27_12h14.50.903,arrow_simon_punish,2021.1.2,Win32,120.105693,,,,,,,,,,,,,,w,1,0.5389,2.341861114,1,1,14,3,59,3,1,,,,,,,,,,,,,,
,,,,,,,,,,,,,,,5c23c03889f035000173d7d7,2021-10-27_12h14.50.903,arrow_simon_punish,2021.1.2,Win32,120.105693,,,,,,,,,,,,,,,,,,,,,,,,,space,0.9165,8,3,0,6,0,1,1,,,,,
,,,,,,,,,,,right.png,,p,right,5c23c03889f035000173d7d7,2021-10-27_12h14.50.903,arrow_simon_punish,2021.1.2,Win32,120.105693,,,,,,,,,,,,,,p,1,1.7004,2.407916015,1,5,0,0,0,1,1,,,,,,,,,,,,,,
,,,,,,,,,,,left.png,,w,left,5c23c03889f035000173d7d7,2021-10-27_12h14.50.903,arrow_simon_punish,2021.1.2,Win32,120.105693,,,,,,,,,,,,,,w,1,1.3669,1.56994486,1,5,0,1,1,2,1,,,,,,,,,,,,,,
,,,,,,,,,,,left.png,,w,left,5c23c03889f035000173d7d7,2021-10-27_12h14.50.903,arrow_simon_punish,2021.1.2,Win32,120.105693,,,,,,,,,,,,,,w,1,1.5926,1.999596502,0,5,0,2,2,2,1,,,,,,,,,,,,,,
,,,,,,,,,,,left.png,,w,right,5c23c03889f035000173d7d7,2021-10-27_12h14.50.903,arrow_simon_punish,2021.1.2,Win32,120.105693,,,,,,,,,,,,,,p,0,1.2343,1.500920984,1,5,0,3,3,3,1,,,,,,,,,,,,,,
,,,,,,,,,,,left.png,,w,right,5c23c03889f035000173d7d7,2021-10-27_12h14.50.903,arrow_simon_punish,2021.1.2,Win32,120.105693,,,,,,,,,,,,,,p,0,1.7588,2.453263815,1,5,1,0,4,3,1,,,,,,,,,,,,,,
,,,,,,,,,,,left.png,,w,right,5c23c03889f035000173d7d7,2021-10-27_12h14.50.903,arrow_simon_punish,2021.1.2,Win32,120.105693,,,,,,,,,,,,,,p,0,1.4007,1.809259123,1,5,1,1,5,3,1,,,,,,,,,,,,,,
,,,,,,,,,,,left.png,,w,left,5c23c03889f035000173d7d7,2021-10-27_12h14.50.903,arrow_simon_punish,2021.1.2,Win32,120.105693,,,,,,,,,,,,,,p,0,1.7338,2.266337646,1,5,1,2,6,2,1,,,,,,,,,,,,,,
,,,,,,,,,,,left.png,,w,right,5c23c03889f035000173d7d7,2021-10-27_12h14.50.903,arrow_simon_punish,2021.1.2,Win32,120.105693,,,,,,,,,,,,,,p,0,1.7338,2.168900617,1,5,1,3,7,3,1,,,,,,,,,,,,,,
,,,,,,,,,,,right.png,,p,right,5c23c03889f035000173d7d7,2021-10-27_12h14.50.903,arrow_simon_punish,2021.1.2,Win32,120.105693,,,,,,,,,,,,,,p,1,1.5456,1.50241272,0,5,2,0,8,1,1,,,,,,,,,,,,,,
,,,,,,,,,,,right.png,,p,left,5c23c03889f035000173d7d7,2021-10-27_12h14.50.903,arrow_simon_punish,2021.1.2,Win32,120.105693,,,,,,,,,,,,,,p,1,1.3783,1.720687869,1,5,2,1,9,0,1,,,,,,,,,,,,,,
,,,,,,,,,,,left.png,,w,left,5c23c03889f035000173d7d7,2021-10-27_12h14.50.903,arrow_simon_punish,2021.1.2,Win32,120.105693,,,,,,,,,,,,,,w,1,1.7204,2.034031038,1,5,2,2,10,2,1,,,,,,,,,,,,,,
