instruct_resp_simon.keys,instruct_resp_simon.corr,instruct_resp_simon.rt,trial_resp_simon.keys,trial_resp_simon.corr,trial_resp_simon.rt,trials_train_simon.thisRepN,trials_train_simon.thisTrialN,trials_train_simon.thisN,trials_train_simon.thisIndex,trials_train_simon.ran,target_file,target_pos,target_resp,target_side,participant,date,expName,psychopyVersion,OS,frameRate,instruct_resp_timing.keys,instruct_resp_timing.corr,instruct_resp_timing.rt,trial_resp_timing.keys,trial_resp_timing.rt,trials_train_timing.thisRepN,trials_train_timing.thisTrialN,trials_train_timing.thisN,trials_train_timing.thisIndex,trials_train_timing.ran,instruct_resp.keys,instruct_resp.corr,instruct_resp.rt,trial_resp.keys,trial_resp.corr,trial_resp.rt,target_onset,err,pun,trials.thisRepN,trials.thisTrialN,trials.thisN,trials.thisIndex,trials.ran,block_note_resp.keys,block_note_resp.rt,block_num,blocks.thisRepN,blocks.thisTrialN,blocks.thisN,blocks.thisIndex,blocks.ran,punish,complete_resp.keys,complete_resp.rt,raffle_trial,raffle_err,raffle_rew
space,0,41.9148,p,1,1.3339,0,0,0,1,1,right.png,,p,right,5cb34fdb9a26a300017302d8,2021-10-22_17h16.47.854,arrow_simon_punish,2021.1.2,Win32,60.12867537,,,,,,,,,,,,,,,,,,,,,,,,,,,,,,,,,,,,,,
,,,w,1,1.4999,0,1,1,3,1,left.png,,w,right,5cb34fdb9a26a300017302d8,2021-10-22_17h16.47.854,arrow_simon_punish,2021.1.2,Win32,60.12867537,,,,,,,,,,,,,,,,,,,,,,,,,,,,,,,,,,,,,,
,,,p,1,1.3299,0,2,2,0,1,right.png,,p,left,5cb34fdb9a26a300017302d8,2021-10-22_17h16.47.854,arrow_simon_punish,2021.1.2,Win32,60.12867537,,,,,,,,,,,,,,,,,,,,,,,,,,,,,,,,,,,,,,
,,,w,1,0.6265,0,3,3,2,1,left.png,,w,left,5cb34fdb9a26a300017302d8,2021-10-22_17h16.47.854,arrow_simon_punish,2021.1.2,Win32,60.12867537,,,,,,,,,,,,,,,,,,,,,,,,,,,,,,,,,,,,,,
,,,p,1,1.1536,1,0,4,1,1,right.png,,p,right,5cb34fdb9a26a300017302d8,2021-10-22_17h16.47.854,arrow_simon_punish,2021.1.2,Win32,60.12867537,,,,,,,,,,,,,,,,,,,,,,,,,,,,,,,,,,,,,,
,,,w,1,0.5051,1,1,5,2,1,left.png,,w,left,5cb34fdb9a26a300017302d8,2021-10-22_17h16.47.854,arrow_simon_punish,2021.1.2,Win32,60.12867537,,,,,,,,,,,,,,,,,,,,,,,,,,,,,,,,,,,,,,
,,,p,1,1.1451,1,2,6,0,1,right.png,,p,left,5cb34fdb9a26a300017302d8,2021-10-22_17h16.47.854,arrow_simon_punish,2021.1.2,Win32,60.12867537,,,,,,,,,,,,,,,,,,,,,,,,,,,,,,,,,,,,,,
,,,w,1,1.3125,1,3,7,3,1,left.png,,w,right,5cb34fdb9a26a300017302d8,2021-10-22_17h16.47.854,arrow_simon_punish,2021.1.2,Win32,60.12867537,,,,,,,,,,,,,,,,,,,,,,,,,,,,,,,,,,,,,,
,,,p,1,0.9834,2,0,8,1,1,right.png,,p,right,5cb34fdb9a26a300017302d8,2021-10-22_17h16.47.854,arrow_simon_punish,2021.1.2,Win32,60.12867537,,,,,,,,,,,,,,,,,,,,,,,,,,,,,,,,,,,,,,
,,,w,1,1.3812,2,1,9,3,1,left.png,,w,right,5cb34fdb9a26a300017302d8,2021-10-22_17h16.47.854,arrow_simon_punish,2021.1.2,Win32,60.12867537,,,,,,,,,,,,,,,,,,,,,,,,,,,,,,,,,,,,,,
,,,p,1,1.1802,2,2,10,0,1,right.png,,p,left,5cb34fdb9a26a300017302d8,2021-10-22_17h16.47.854,arrow_simon_punish,2021.1.2,Win32,60.12867537,,,,,,,,,,,,,,,,,,,,,,,,,,,,,,,,,,,,,,
,,,w,1,1.4539,2,3,11,2,1,left.png,,w,left,5cb34fdb9a26a300017302d8,2021-10-22_17h16.47.854,arrow_simon_punish,2021.1.2,Win32,60.12867537,,,,,,,,,,,,,,,,,,,,,,,,,,,,,,,,,,,,,,
,,,p,1,1.1834,3,0,12,0,1,right.png,,p,left,5cb34fdb9a26a300017302d8,2021-10-22_17h16.47.854,arrow_simon_punish,2021.1.2,Win32,60.12867537,,,,,,,,,,,,,,,,,,,,,,,,,,,,,,,,,,,,,,
,,,w,1,1.8361,3,1,13,3,1,left.png,,w,right,5cb34fdb9a26a300017302d8,2021-10-22_17h16.47.854,arrow_simon_punish,2021.1.2,Win32,60.12867537,,,,,,,,,,,,,,,,,,,,,,,,,,,,,,,,,,,,,,
,,,p,1,1.3827,3,2,14,1,1,right.png,,p,right,5cb34fdb9a26a300017302d8,2021-10-22_17h16.47.854,arrow_simon_punish,2021.1.2,Win32,60.12867537,,,,,,,,,,,,,,,,,,,,,,,,,,,,,,,,,,,,,,
,,,w,1,1.0911,3,3,15,2,1,left.png,,w,left,5cb34fdb9a26a300017302d8,2021-10-22_17h16.47.854,arrow_simon_punish,2021.1.2,Win32,60.12867537,,,,,,,,,,,,,,,,,,,,,,,,,,,,,,,,,,,,,,
,,,w,1,0.9042,4,0,16,2,1,left.png,,w,left,5cb34fdb9a26a300017302d8,2021-10-22_17h16.47.854,arrow_simon_punish,2021.1.2,Win32,60.12867537,,,,,,,,,,,,,,,,,,,,,,,,,,,,,,,,,,,,,,
,,,p,1,1.2749,4,1,17,1,1,right.png,,p,right,5cb34fdb9a26a300017302d8,2021-10-22_17h16.47.854,arrow_simon_punish,2021.1.2,Win32,60.12867537,,,,,,,,,,,,,,,,,,,,,,,,,,,,,,,,,,,,,,
,,,p,1,1.462,4,2,18,0,1,right.png,,p,left,5cb34fdb9a26a300017302d8,2021-10-22_17h16.47.854,arrow_simon_punish,2021.1.2,Win32,60.12867537,,,,,,,,,,,,,,,,,,,,,,,,,,,,,,,,,,,,,,
,,,w,1,1.8855,4,3,19,3,1,left.png,,w,right,5cb34fdb9a26a300017302d8,2021-10-22_17h16.47.854,arrow_simon_punish,2021.1.2,Win32,60.12867537,,,,,,,,,,,,,,,,,,,,,,,,,,,,,,,,,,,,,,
,,,p,1,0.9593,5,0,20,0,1,right.png,,p,left,5cb34fdb9a26a300017302d8,2021-10-22_17h16.47.854,arrow_simon_punish,2021.1.2,Win32,60.12867537,,,,,,,,,,,,,,,,,,,,,,,,,,,,,,,,,,,,,,
,,,w,1,0.7502,5,1,21,3,1,left.png,,w,right,5cb34fdb9a26a300017302d8,2021-10-22_17h16.47.854,arrow_simon_punish,2021.1.2,Win32,60.12867537,,,,,,,,,,,,,,,,,,,,,,,,,,,,,,,,,,,,,,
,,,p,1,1.2228,5,2,22,1,1,right.png,,p,right,5cb34fdb9a26a300017302d8,2021-10-22_17h16.47.854,arrow_simon_punish,2021.1.2,Win32,60.12867537,,,,,,,,,,,,,,,,,,,,,,,,,,,,,,,,,,,,,,
,,,w,1,1.0869,5,3,23,2,1,left.png,,w,left,5cb34fdb9a26a300017302d8,2021-10-22_17h16.47.854,arrow_simon_punish,2021.1.2,Win32,60.12867537,,,,,,,,,,,,,,,,,,,,,,,,,,,,,,,,,,,,,,
,,,p,0,0.803,6,0,24,3,1,left.png,,w,right,5cb34fdb9a26a300017302d8,2021-10-22_17h16.47.854,arrow_simon_punish,2021.1.2,Win32,60.12867537,,,,,,,,,,,,,,,,,,,,,,,,,,,,,,,,,,,,,,
,,,p,1,0.8499,6,1,25,1,1,right.png,,p,right,5cb34fdb9a26a300017302d8,2021-10-22_17h16.47.854,arrow_simon_punish,2021.1.2,Win32,60.12867537,,,,,,,,,,,,,,,,,,,,,,,,,,,,,,,,,,,,,,
,,,w,1,1.2435,6,2,26,2,1,left.png,,w,left,5cb34fdb9a26a300017302d8,2021-10-22_17h16.47.854,arrow_simon_punish,2021.1.2,Win32,60.12867537,,,,,,,,,,,,,,,,,,,,,,,,,,,,,,,,,,,,,,
,,,p,1,1.7031,6,3,27,0,1,right.png,,p,left,5cb34fdb9a26a300017302d8,2021-10-22_17h16.47.854,arrow_simon_punish,2021.1.2,Win32,60.12867537,,,,,,,,,,,,,,,,,,,,,,,,,,,,,,,,,,,,,,
,,,w,1,1.0164,7,0,28,3,1,left.png,,w,right,5cb34fdb9a26a300017302d8,2021-10-22_17h16.47.854,arrow_simon_punish,2021.1.2,Win32,60.12867537,,,,,,,,,,,,,,,,,,,,,,,,,,,,,,,,,,,,,,
,,,p,1,1.2396,7,1,29,1,1,right.png,,p,right,5cb34fdb9a26a300017302d8,2021-10-22_17h16.47.854,arrow_simon_punish,2021.1.2,Win32,60.12867537,,,,,,,,,,,,,,,,,,,,,,,,,,,,,,,,,,,,,,
,,,p,1,1.799,7,2,30,0,1,right.png,,p,left,5cb34fdb9a26a300017302d8,2021-10-22_17h16.47.854,arrow_simon_punish,2021.1.2,Win32,60.12867537,,,,,,,,,,,,,,,,,,,,,,,,,,,,,,,,,,,,,,
,,,w,1,0.7667,7,3,31,2,1,left.png,,w,left,5cb34fdb9a26a300017302d8,2021-10-22_17h16.47.854,arrow_simon_punish,2021.1.2,Win32,60.12867537,,,,,,,,,,,,,,,,,,,,,,,,,,,,,,,,,,,,,,
,,,w,1,1.5994,8,0,32,3,1,left.png,,w,right,5cb34fdb9a26a300017302d8,2021-10-22_17h16.47.854,arrow_simon_punish,2021.1.2,Win32,60.12867537,,,,,,,,,,,,,,,,,,,,,,,,,,,,,,,,,,,,,,
,,,p,1,1.4515,8,1,33,0,1,right.png,,p,left,5cb34fdb9a26a300017302d8,2021-10-22_17h16.47.854,arrow_simon_punish,2021.1.2,Win32,60.12867537,,,,,,,,,,,,,,,,,,,,,,,,,,,,,,,,,,,,,,
,,,w,1,1.6039,8,2,34,2,1,left.png,,w,left,5cb34fdb9a26a300017302d8,2021-10-22_17h16.47.854,arrow_simon_punish,2021.1.2,Win32,60.12867537,,,,,,,,,,,,,,,,,,,,,,,,,,,,,,,,,,,,,,
,,,p,1,1.3165,8,3,35,1,1,right.png,,p,right,5cb34fdb9a26a300017302d8,2021-10-22_17h16.47.854,arrow_simon_punish,2021.1.2,Win32,60.12867537,,,,,,,,,,,,,,,,,,,,,,,,,,,,,,,,,,,,,,
,,,p,1,1.3671,9,0,36,1,1,right.png,,p,right,5cb34fdb9a26a300017302d8,2021-10-22_17h16.47.854,arrow_simon_punish,2021.1.2,Win32,60.12867537,,,,,,,,,,,,,,,,,,,,,,,,,,,,,,,,,,,,,,
,,,p,1,1.492,9,1,37,0,1,right.png,,p,left,5cb34fdb9a26a300017302d8,2021-10-22_17h16.47.854,arrow_simon_punish,2021.1.2,Win32,60.12867537,,,,,,,,,,,,,,,,,,,,,,,,,,,,,,,,,,,,,,
,,,w,1,1.1014,9,2,38,3,1,left.png,,w,right,5cb34fdb9a26a300017302d8,2021-10-22_17h16.47.854,arrow_simon_punish,2021.1.2,Win32,60.12867537,,,,,,,,,,,,,,,,,,,,,,,,,,,,,,,,,,,,,,
,,,w,1,1.5832,9,3,39,2,1,left.png,,w,left,5cb34fdb9a26a300017302d8,2021-10-22_17h16.47.854,arrow_simon_punish,2021.1.2,Win32,60.12867537,,,,,,,,,,,,,,,,,,,,,,,,,,,,,,,,,,,,,,
,,,,,,,,,,,,,,,5cb34fdb9a26a300017302d8,2021-10-22_17h16.47.854,arrow_simon_punish,2021.1.2,Win32,60.12867537,space,0,52.5571,p,2.5919,0,0,0,0,1,,,,,,,,,,,,,,,,,,,,,,,,,,,,
,,,,,,,,,,,,,,,5cb34fdb9a26a300017302d8,2021-10-22_17h16.47.854,arrow_simon_punish,2021.1.2,Win32,60.12867537,,,,p,1.4125,1,0,1,0,1,,,,,,,,,,,,,,,,,,,,,,,,,,,,
,,,,,,,,,,,,,,,5cb34fdb9a26a300017302d8,2021-10-22_17h16.47.854,arrow_simon_punish,2021.1.2,Win32,60.12867537,,,,p,1.7618,2,0,2,0,1,,,,,,,,,,,,,,,,,,,,,,,,,,,,
,,,,,,,,,,,,,,,5cb34fdb9a26a300017302d8,2021-10-22_17h16.47.854,arrow_simon_punish,2021.1.2,Win32,60.12867537,,,,p,2.0329,3,0,3,0,1,,,,,,,,,,,,,,,,,,,,,,,,,,,,
,,,,,,,,,,,,,,,5cb34fdb9a26a300017302d8,2021-10-22_17h16.47.854,arrow_simon_punish,2021.1.2,Win32,60.12867537,,,,p,2.3519,4,0,4,0,1,,,,,,,,,,,,,,,,,,,,,,,,,,,,
,,,,,,,,,,,,,,,5cb34fdb9a26a300017302d8,2021-10-22_17h16.47.854,arrow_simon_punish,2021.1.2,Win32,60.12867537,,,,p,2.4289,5,0,5,0,1,,,,,,,,,,,,,,,,,,,,,,,,,,,,
,,,,,,,,,,,,,,,5cb34fdb9a26a300017302d8,2021-10-22_17h16.47.854,arrow_simon_punish,2021.1.2,Win32,60.12867537,,,,p,2.494,6,0,6,0,1,,,,,,,,,,,,,,,,,,,,,,,,,,,,
,,,,,,,,,,,,,,,5cb34fdb9a26a300017302d8,2021-10-22_17h16.47.854,arrow_simon_punish,2021.1.2,Win32,60.12867537,,,,p,2.3672,7,0,7,0,1,,,,,,,,,,,,,,,,,,,,,,,,,,,,
,,,,,,,,,,,,,,,5cb34fdb9a26a300017302d8,2021-10-22_17h16.47.854,arrow_simon_punish,2021.1.2,Win32,60.12867537,,,,p,2.4283,8,0,8,0,1,,,,,,,,,,,,,,,,,,,,,,,,,,,,
,,,,,,,,,,,,,,,5cb34fdb9a26a300017302d8,2021-10-22_17h16.47.854,arrow_simon_punish,2021.1.2,Win32,60.12867537,,,,p,2.4477,9,0,9,0,1,,,,,,,,,,,,,,,,,,,,,,,,,,,,
,,,,,,,,,,,,,,,5cb34fdb9a26a300017302d8,2021-10-22_17h16.47.854,arrow_simon_punish,2021.1.2,Win32,60.12867537,,,,p,2.4529,10,0,10,0,1,,,,,,,,,,,,,,,,,,,,,,,,,,,,
,,,,,,,,,,,,,,,5cb34fdb9a26a300017302d8,2021-10-22_17h16.47.854,arrow_simon_punish,2021.1.2,Win32,60.12867537,,,,p,2.4288,11,0,11,0,1,,,,,,,,,,,,,,,,,,,,,,,,,,,,
,,,,,,,,,,,,,,,5cb34fdb9a26a300017302d8,2021-10-22_17h16.47.854,arrow_simon_punish,2021.1.2,Win32,60.12867537,,,,p,2.5813,12,0,12,0,1,,,,,,,,,,,,,,,,,,,,,,,,,,,,
,,,,,,,,,,,,,,,5cb34fdb9a26a300017302d8,2021-10-22_17h16.47.854,arrow_simon_punish,2021.1.2,Win32,60.12867537,,,,p,2.4903,13,0,13,0,1,,,,,,,,,,,,,,,,,,,,,,,,,,,,
,,,,,,,,,,,,,,,5cb34fdb9a26a300017302d8,2021-10-22_17h16.47.854,arrow_simon_punish,2021.1.2,Win32,60.12867537,,,,p,2.5644,14,0,14,0,1,,,,,,,,,,,,,,,,,,,,,,,,,,,,
,,,,,,,,,,,,,,,5cb34fdb9a26a300017302d8,2021-10-22_17h16.47.854,arrow_simon_punish,2021.1.2,Win32,60.12867537,,,,p,2.4281,15,0,15,0,1,,,,,,,,,,,,,,,,,,,,,,,,,,,,
,,,,,,,,,,,,,,,5cb34fdb9a26a300017302d8,2021-10-22_17h16.47.854,arrow_simon_punish,2021.1.2,Win32,60.12867537,,,,p,2.4811,16,0,16,0,1,,,,,,,,,,,,,,,,,,,,,,,,,,,,
,,,,,,,,,,,,,,,5cb34fdb9a26a300017302d8,2021-10-22_17h16.47.854,arrow_simon_punish,2021.1.2,Win32,60.12867537,,,,p,2.5475,17,0,17,0,1,,,,,,,,,,,,,,,,,,,,,,,,,,,,
,,,,,,,,,,,,,,,5cb34fdb9a26a300017302d8,2021-10-22_17h16.47.854,arrow_simon_punish,2021.1.2,Win32,60.12867537,,,,p,2.4314,18,0,18,0,1,,,,,,,,,,,,,,,,,,,,,,,,,,,,
,,,,,,,,,,,,,,,5cb34fdb9a26a300017302d8,2021-10-22_17h16.47.854,arrow_simon_punish,2021.1.2,Win32,60.12867537,,,,p,2.4443,19,0,19,0,1,,,,,,,,,,,,,,,,,,,,,,,,,,,,
,,,,,,,,,,,,,,,5cb34fdb9a26a300017302d8,2021-10-22_17h16.47.854,arrow_simon_punish,2021.1.2,Win32,60.12867537,,,,p,2.4999,20,0,20,0,1,,,,,,,,,,,,,,,,,,,,,,,,,,,,
,,,,,,,,,,,,,,,5cb34fdb9a26a300017302d8,2021-10-22_17h16.47.854,arrow_simon_punish,2021.1.2,Win32,60.12867537,,,,p,2.4188,21,0,21,0,1,,,,,,,,,,,,,,,,,,,,,,,,,,,,
,,,,,,,,,,,,,,,5cb34fdb9a26a300017302d8,2021-10-22_17h16.47.854,arrow_simon_punish,2021.1.2,Win32,60.12867537,,,,p,2.464,22,0,22,0,1,,,,,,,,,,,,,,,,,,,,,,,,,,,,
,,,,,,,,,,,,,,,5cb34fdb9a26a300017302d8,2021-10-22_17h16.47.854,arrow_simon_punish,2021.1.2,Win32,60.12867537,,,,p,2.5281,23,0,23,0,1,,,,,,,,,,,,,,,,,,,,,,,,,,,,
,,,,,,,,,,,,,,,5cb34fdb9a26a300017302d8,2021-10-22_17h16.47.854,arrow_simon_punish,2021.1.2,Win32,60.12867537,,,,p,2.4092,24,0,24,0,1,,,,,,,,,,,,,,,,,,,,,,,,,,,,
,,,,,,,,,,,,,,,5cb34fdb9a26a300017302d8,2021-10-22_17h16.47.854,arrow_simon_punish,2021.1.2,Win32,60.12867537,,,,p,1.9932,25,0,25,0,1,,,,,,,,,,,,,,,,,,,,,,,,,,,,
,,,,,,,,,,,,,,,5cb34fdb9a26a300017302d8,2021-10-22_17h16.47.854,arrow_simon_punish,2021.1.2,Win32,60.12867537,,,,p,2.4109,26,0,26,0,1,,,,,,,,,,,,,,,,,,,,,,,,,,,,
,,,,,,,,,,,,,,,5cb34fdb9a26a300017302d8,2021-10-22_17h16.47.854,arrow_simon_punish,2021.1.2,Win32,60.12867537,,,,p,2.5265,27,0,27,0,1,,,,,,,,,,,,,,,,,,,,,,,,,,,,
,,,,,,,,,,,,,,,5cb34fdb9a26a300017302d8,2021-10-22_17h16.47.854,arrow_simon_punish,2021.1.2,Win32,60.12867537,,,,p,2.4539,28,0,28,0,1,,,,,,,,,,,,,,,,,,,,,,,,,,,,
,,,,,,,,,,,,,,,5cb34fdb9a26a300017302d8,2021-10-22_17h16.47.854,arrow_simon_punish,2021.1.2,Win32,60.12867537,,,,p,2.4619,29,0,29,0,1,,,,,,,,,,,,,,,,,,,,,,,,,,,,
,,,,,,,,,,,,,,,5cb34fdb9a26a300017302d8,2021-10-22_17h16.47.854,arrow_simon_punish,2021.1.2,Win32,60.12867537,,,,p,2.4304,30,0,30,0,1,,,,,,,,,,,,,,,,,,,,,,,,,,,,
,,,,,,,,,,,,,,,5cb34fdb9a26a300017302d8,2021-10-22_17h16.47.854,arrow_simon_punish,2021.1.2,Win32,60.12867537,,,,p,2.4973,31,0,31,0,1,,,,,,,,,,,,,,,,,,,,,,,,,,,,
,,,,,,,,,,,,,,,5cb34fdb9a26a300017302d8,2021-10-22_17h16.47.854,arrow_simon_punish,2021.1.2,Win32,60.12867537,,,,p,2.5982,32,0,32,0,1,,,,,,,,,,,,,,,,,,,,,,,,,,,,
,,,,,,,,,,,,,,,5cb34fdb9a26a300017302d8,2021-10-22_17h16.47.854,arrow_simon_punish,2021.1.2,Win32,60.12867537,,,,p,2.4138,33,0,33,0,1,,,,,,,,,,,,,,,,,,,,,,,,,,,,
,,,,,,,,,,,,,,,5cb34fdb9a26a300017302d8,2021-10-22_17h16.47.854,arrow_simon_punish,2021.1.2,Win32,60.12867537,,,,p,2.7637,34,0,34,0,1,,,,,,,,,,,,,,,,,,,,,,,,,,,,
,,,,,,,,,,,,,,,5cb34fdb9a26a300017302d8,2021-10-22_17h16.47.854,arrow_simon_punish,2021.1.2,Win32,60.12867537,,,,p,2.42,35,0,35,0,1,,,,,,,,,,,,,,,,,,,,,,,,,,,,
,,,,,,,,,,,,,,,5cb34fdb9a26a300017302d8,2021-10-22_17h16.47.854,arrow_simon_punish,2021.1.2,Win32,60.12867537,,,,p,2.6111,36,0,36,0,1,,,,,,,,,,,,,,,,,,,,,,,,,,,,
,,,,,,,,,,,,,,,5cb34fdb9a26a300017302d8,2021-10-22_17h16.47.854,arrow_simon_punish,2021.1.2,Win32,60.12867537,,,,p,2.4044,37,0,37,0,1,,,,,,,,,,,,,,,,,,,,,,,,,,,,
,,,,,,,,,,,,,,,5cb34fdb9a26a300017302d8,2021-10-22_17h16.47.854,arrow_simon_punish,2021.1.2,Win32,60.12867537,,,,p,2.35,38,0,38,0,1,,,,,,,,,,,,,,,,,,,,,,,,,,,,
,,,,,,,,,,,,,,,5cb34fdb9a26a300017302d8,2021-10-22_17h16.47.854,arrow_simon_punish,2021.1.2,Win32,60.12867537,,,,p,2.4204,39,0,39,0,1,,,,,,,,,,,,,,,,,,,,,,,,,,,,
,,,,,,,,,,,,,,,5cb34fdb9a26a300017302d8,2021-10-22_17h16.47.854,arrow_simon_punish,2021.1.2,Win32,60.12867537,,,,p,2.3839,40,0,40,0,1,,,,,,,,,,,,,,,,,,,,,,,,,,,,
,,,,,,,,,,,,,,,5cb34fdb9a26a300017302d8,2021-10-22_17h16.47.854,arrow_simon_punish,2021.1.2,Win32,60.12867537,,,,p,2.4463,41,0,41,0,1,,,,,,,,,,,,,,,,,,,,,,,,,,,,
,,,,,,,,,,,,,,,5cb34fdb9a26a300017302d8,2021-10-22_17h16.47.854,arrow_simon_punish,2021.1.2,Win32,60.12867537,,,,p,2.3784,42,0,42,0,1,,,,,,,,,,,,,,,,,,,,,,,,,,,,
,,,,,,,,,,,,,,,5cb34fdb9a26a300017302d8,2021-10-22_17h16.47.854,arrow_simon_punish,2021.1.2,Win32,60.12867537,,,,p,2.3847,43,0,43,0,1,,,,,,,,,,,,,,,,,,,,,,,,,,,,
,,,,,,,,,,,,,,,5cb34fdb9a26a300017302d8,2021-10-22_17h16.47.854,arrow_simon_punish,2021.1.2,Win32,60.12867537,,,,p,2.3468,44,0,44,0,1,,,,,,,,,,,,,,,,,,,,,,,,,,,,
,,,,,,,,,,,,,,,5cb34fdb9a26a300017302d8,2021-10-22_17h16.47.854,arrow_simon_punish,2021.1.2,Win32,60.12867537,,,,p,2.5676,45,0,45,0,1,,,,,,,,,,,,,,,,,,,,,,,,,,,,
,,,,,,,,,,,,,,,5cb34fdb9a26a300017302d8,2021-10-22_17h16.47.854,arrow_simon_punish,2021.1.2,Win32,60.12867537,,,,p,2.5448,46,0,46,0,1,,,,,,,,,,,,,,,,,,,,,,,,,,,,
,,,,,,,,,,,,,,,5cb34fdb9a26a300017302d8,2021-10-22_17h16.47.854,arrow_simon_punish,2021.1.2,Win32,60.12867537,,,,p,2.3997,47,0,47,0,1,,,,,,,,,,,,,,,,,,,,,,,,,,,,
,,,,,,,,,,,,,,,5cb34fdb9a26a300017302d8,2021-10-22_17h16.47.854,arrow_simon_punish,2021.1.2,Win32,60.12867537,,,,p,2.5644,48,0,48,0,1,,,,,,,,,,,,,,,,,,,,,,,,,,,,
,,,,,,,,,,,,,,,5cb34fdb9a26a300017302d8,2021-10-22_17h16.47.854,arrow_simon_punish,2021.1.2,Win32,60.12867537,,,,p,2.461,49,0,49,0,1,,,,,,,,,,,,,,,,,,,,,,,,,,,,
,,,,,,,,,,,,,,,5cb34fdb9a26a300017302d8,2021-10-22_17h16.47.854,arrow_simon_punish,2021.1.2,Win32,60.12867537,,,,p,2.4382,50,0,50,0,1,,,,,,,,,,,,,,,,,,,,,,,,,,,,
,,,,,,,,,,,,,,,5cb34fdb9a26a300017302d8,2021-10-22_17h16.47.854,arrow_simon_punish,2021.1.2,Win32,60.12867537,,,,p,2.4101,51,0,51,0,1,,,,,,,,,,,,,,,,,,,,,,,,,,,,
,,,,,,,,,,,,,,,5cb34fdb9a26a300017302d8,2021-10-22_17h16.47.854,arrow_simon_punish,2021.1.2,Win32,60.12867537,,,,p,2.3482,52,0,52,0,1,,,,,,,,,,,,,,,,,,,,,,,,,,,,
,,,,,,,,,,,,,,,5cb34fdb9a26a300017302d8,2021-10-22_17h16.47.854,arrow_simon_punish,2021.1.2,Win32,60.12867537,,,,p,2.2286,53,0,53,0,1,,,,,,,,,,,,,,,,,,,,,,,,,,,,
,,,,,,,,,,,,,,,5cb34fdb9a26a300017302d8,2021-10-22_17h16.47.854,arrow_simon_punish,2021.1.2,Win32,60.12867537,,,,p,2.494,54,0,54,0,1,,,,,,,,,,,,,,,,,,,,,,,,,,,,
,,,,,,,,,,,,,,,5cb34fdb9a26a300017302d8,2021-10-22_17h16.47.854,arrow_simon_punish,2021.1.2,Win32,60.12867537,,,,p,2.39,55,0,55,0,1,,,,,,,,,,,,,,,,,,,,,,,,,,,,
,,,,,,,,,,,,,,,5cb34fdb9a26a300017302d8,2021-10-22_17h16.47.854,arrow_simon_punish,2021.1.2,Win32,60.12867537,,,,p,2.457,56,0,56,0,1,,,,,,,,,,,,,,,,,,,,,,,,,,,,
,,,,,,,,,,,,,,,5cb34fdb9a26a300017302d8,2021-10-22_17h16.47.854,arrow_simon_punish,2021.1.2,Win32,60.12867537,,,,p,2.235,57,0,57,0,1,,,,,,,,,,,,,,,,,,,,,,,,,,,,
,,,,,,,,,,,,,,,5cb34fdb9a26a300017302d8,2021-10-22_17h16.47.854,arrow_simon_punish,2021.1.2,Win32,60.12867537,,,,p,2.4376,58,0,58,0,1,,,,,,,,,,,,,,,,,,,,,,,,,,,,
,,,,,,,,,,,,,,,5cb34fdb9a26a300017302d8,2021-10-22_17h16.47.854,arrow_simon_punish,2021.1.2,Win32,60.12867537,,,,p,2.3058,59,0,59,0,1,,,,,,,,,,,,,,,,,,,,,,,,,,,,
,,,,,,,,,,,right.png,,p,right,5cb34fdb9a26a300017302d8,2021-10-22_17h16.47.854,arrow_simon_punish,2021.1.2,Win32,60.12867537,,,,,,,,,,,space,0,42.3831,p,1,1.1995,1.709847256,1,1,0,0,0,1,1,,,,,,,,,,,,,,
,,,,,,,,,,,right.png,,p,right,5cb34fdb9a26a300017302d8,2021-10-22_17h16.47.854,arrow_simon_punish,2021.1.2,Win32,60.12867537,,,,,,,,,,,,,,p,1,1.5947,2.006065708,0,1,0,1,1,1,1,,,,,,,,,,,,,,
,,,,,,,,,,,right.png,,p,right,5cb34fdb9a26a300017302d8,2021-10-22_17h16.47.854,arrow_simon_punish,2021.1.2,Win32,60.12867537,,,,,,,,,,,,,,p,1,1.4649,2.104195484,0,1,0,2,2,1,1,,,,,,,,,,,,,,
,,,,,,,,,,,right.png,,p,right,5cb34fdb9a26a300017302d8,2021-10-22_17h16.47.854,arrow_simon_punish,2021.1.2,Win32,60.12867537,,,,,,,,,,,,,,p,1,1.6213,1.994170261,1,1,0,3,3,1,1,,,,,,,,,,,,,,
,,,,,,,,,,,right.png,,p,right,5cb34fdb9a26a300017302d8,2021-10-22_17h16.47.854,arrow_simon_punish,2021.1.2,Win32,60.12867537,,,,,,,,,,,,,,p,1,1.2659,2.024260597,1,1,1,0,4,1,1,,,,,,,,,,,,,,
,,,,,,,,,,,left.png,,w,right,5cb34fdb9a26a300017302d8,2021-10-22_17h16.47.854,arrow_simon_punish,2021.1.2,Win32,60.12867537,,,,,,,,,,,,,,p,0,1.5336,2.415722047,1,1,1,1,5,3,1,,,,,,,,,,,,,,
,,,,,,,,,,,left.png,,w,right,5cb34fdb9a26a300017302d8,2021-10-22_17h16.47.854,arrow_simon_punish,2021.1.2,Win32,60.12867537,,,,,,,,,,,,,,p,0,1.5772,2.269230726,1,1,1,2,6,3,1,,,,,,,,,,,,,,
,,,,,,,,,,,left.png,,w,right,5cb34fdb9a26a300017302d8,2021-10-22_17h16.47.854,arrow_simon_punish,2021.1.2,Win32,60.12867537,,,,,,,,,,,,,,p,0,1.7228,2.433144789,1,1,1,3,7,3,1,,,,,,,,,,,,,,
,,,,,,,,,,,right.png,,p,left,5cb34fdb9a26a300017302d8,2021-10-22_17h16.47.854,arrow_simon_punish,2021.1.2,Win32,60.12867537,,,,,,,,,,,,,,p,1,1.6526,2.144989252,1,1,2,0,8,0,1,,,,,,,,,,,,,,
,,,,,,,,,,,right.png,,p,right,5cb34fdb9a26a300017302d8,2021-10-22_17h16.47.854,arrow_simon_punish,2021.1.2,Win32,60.12867537,,,,,,,,,,,,,,p,1,1.4839,2.018087789,0,1,2,1,9,1,1,,,,,,,,,,,,,,
,,,,,,,,,,,left.png,,w,right,5cb34fdb9a26a300017302d8,2021-10-22_17h16.47.854,arrow_simon_punish,2021.1.2,Win32,60.12867537,,,,,,,,,,,,,,w,1,1.8332,2.120376209,1,1,2,2,10,3,1,,,,,,,,,,,,,,
,,,,,,,,,,,right.png,,p,left,5cb34fdb9a26a300017302d8,2021-10-22_17h16.47.854,arrow_simon_punish,2021.1.2,Win32,60.12867537,,,,,,,,,,,,,,p,1,2.1968,2.425595687,1,1,2,3,11,0,1,,,,,,,,,,,,,,
,,,,,,,,,,,right.png,,p,right,5cb34fdb9a26a300017302d8,2021-10-22_17h16.47.854,arrow_simon_punish,2021.1.2,Win32,60.12867537,,,,,,,,,,,,,,p,1,1.2943,1.761588199,1,1,3,0,12,1,1,,,,,,,,,,,,,,
,,,,,,,,,,,right.png,,p,left,5cb34fdb9a26a300017302d8,2021-10-22_17h16.47.854,arrow_simon_punish,2021.1.2,Win32,60.12867537,,,,,,,,,,,,,,p,1,1.5065,2.352122956,0,1,3,1,13,0,1,,,,,,,,,,,,,,
,,,,,,,,,,,right.png,,p,left,5cb34fdb9a26a300017302d8,2021-10-22_17h16.47.854,arrow_simon_punish,2021.1.2,Win32,60.12867537,,,,,,,,,,,,,,w,0,4.0609,2.214796576,1,1,3,2,14,0,1,,,,,,,,,,,,,,
,,,,,,,,,,,left.png,,w,left,5cb34fdb9a26a300017302d8,2021-10-22_17h16.47.854,arrow_simon_punish,2021.1.2,Win32,60.12867537,,,,,,,,,,,,,,w,1,2.9184,2.064615069,1,1,3,3,15,2,1,,,,,,,,,,,,,,
,,,,,,,,,,,right.png,,p,left,5cb34fdb9a26a300017302d8,2021-10-22_17h16.47.854,arrow_simon_punish,2021.1.2,Win32,60.12867537,,,,,,,,,,,,,,p,1,2.0037,2.30544684,1,1,4,0,16,0,1,,,,,,,,,,,,,,
,,,,,,,,,,,right.png,,p,left,5cb34fdb9a26a300017302d8,2021-10-22_17h16.47.854,arrow_simon_punish,2021.1.2,Win32,60.12867537,,,,,,,,,,,,,,p,1,1.9834,2.346617716,1,1,4,1,17,0,1,,,,,,,,,,,,,,
,,,,,,,,,,,left.png,,w,left,5cb34fdb9a26a300017302d8,2021-10-22_17h16.47.854,arrow_simon_punish,2021.1.2,Win32,60.12867537,,,,,,,,,,,,,,w,1,1.5875,2.058223913,0,1,4,2,18,2,1,,,,,,,,,,,,,,
,,,,,,,,,,,right.png,,p,left,5cb34fdb9a26a300017302d8,2021-10-22_17h16.47.854,arrow_simon_punish,2021.1.2,Win32,60.12867537,,,,,,,,,,,,,,w,0,1.8169,2.491145394,1,1,4,3,19,0,1,,,,,,,,,,,,,,
,,,,,,,,,,,left.png,,w,right,5cb34fdb9a26a300017302d8,2021-10-22_17h16.47.854,arrow_simon_punish,2021.1.2,Win32,60.12867537,,,,,,,,,,,,,,w,1,1.3559,1.525352034,1,1,5,0,20,3,1,,,,,,,,,,,,,,
,,,,,,,,,,,left.png,,w,right,5cb34fdb9a26a300017302d8,2021-10-22_17h16.47.854,arrow_simon_punish,2021.1.2,Win32,60.12867537,,,,,,,,,,,,,,p,0,1.4088,1.916959324,1,1,5,1,21,3,1,,,,,,,,,,,,,,
,,,,,,,,,,,right.png,,p,right,5cb34fdb9a26a300017302d8,2021-10-22_17h16.47.854,arrow_simon_punish,2021.1.2,Win32,60.12867537,,,,,,,,,,,,,,p,1,1.8178,2.422384697,1,1,5,2,22,1,1,,,,,,,,,,,,,,
,,,,,,,,,,,right.png,,p,left,5cb34fdb9a26a300017302d8,2021-10-22_17h16.47.854,arrow_simon_punish,2021.1.2,Win32,60.12867537,,,,,,,,,,,,,,w,0,1.8559,2.422459425,1,1,5,3,23,0,1,,,,,,,,,,,,,,
,,,,,,,,,,,right.png,,p,right,5cb34fdb9a26a300017302d8,2021-10-22_17h16.47.854,arrow_simon_punish,2021.1.2,Win32,60.12867537,,,,,,,,,,,,,,p,1,1.628,2.346672995,1,1,6,0,24,1,1,,,,,,,,,,,,,,
,,,,,,,,,,,right.png,,p,left,5cb34fdb9a26a300017302d8,2021-10-22_17h16.47.854,arrow_simon_punish,2021.1.2,Win32,60.12867537,,,,,,,,,,,,,,w,0,1.6085,2.164561475,1,1,6,1,25,0,1,,,,,,,,,,,,,,
,,,,,,,,,,,left.png,,w,right,5cb34fdb9a26a300017302d8,2021-10-22_17h16.47.854,arrow_simon_punish,2021.1.2,Win32,60.12867537,,,,,,,,,,,,,,w,1,2.5833,1.676562792,1,1,6,2,26,3,1,,,,,,,,,,,,,,
,,,,,,,,,,,right.png,,p,right,5cb34fdb9a26a300017302d8,2021-10-22_17h16.47.854,arrow_simon_punish,2021.1.2,Win32,60.12867537,,,,,,,,,,,,,,p,1,1.6801,2.477668421,1,1,6,3,27,1,1,,,,,,,,,,,,,,
,,,,,,,,,,,right.png,,p,left,5cb34fdb9a26a300017302d8,2021-10-22_17h16.47.854,arrow_simon_punish,2021.1.2,Win32,60.12867537,,,,,,,,,,,,,,w,0,1.6413,1.919005103,1,1,7,0,28,0,1,,,,,,,,,,,,,,
,,,,,,,,,,,left.png,,w,left,5cb34fdb9a26a300017302d8,2021-10-22_17h16.47.854,arrow_simon_punish,2021.1.2,Win32,60.12867537,,,,,,,,,,,,,,w,1,1.6221,1.79975423,1,1,7,1,29,2,1,,,,,,,,,,,,,,
,,,,,,,,,,,right.png,,p,right,5cb34fdb9a26a300017302d8,2021-10-22_17h16.47.854,arrow_simon_punish,2021.1.2,Win32,60.12867537,,,,,,,,,,,,,,p,1,1.4017,1.596245118,0,1,7,2,30,1,1,,,,,,,,,,,,,,
,,,,,,,,,,,right.png,,p,right,5cb34fdb9a26a300017302d8,2021-10-22_17h16.47.854,arrow_simon_punish,2021.1.2,Win32,60.12867537,,,,,,,,,,,,,,p,1,1.2503,1.739349278,1,1,7,3,31,1,1,,,,,,,,,,,,,,
,,,,,,,,,,,left.png,,w,left,5cb34fdb9a26a300017302d8,2021-10-22_17h16.47.854,arrow_simon_punish,2021.1.2,Win32,60.12867537,,,,,,,,,,,,,,p,0,1.2648,2.042080927,1,1,8,0,32,2,1,,,,,,,,,,,,,,
,,,,,,,,,,,left.png,,w,left,5cb34fdb9a26a300017302d8,2021-10-22_17h16.47.854,arrow_simon_punish,2021.1.2,Win32,60.12867537,,,,,,,,,,,,,,w,1,1.5365,2.285069299,0,1,8,1,33,2,1,,,,,,,,,,,,,,
,,,,,,,,,,,right.png,,p,left,5cb34fdb9a26a300017302d8,2021-10-22_17h16.47.854,arrow_simon_punish,2021.1.2,Win32,60.12867537,,,,,,,,,,,,,,w,0,1.3636,2.038602159,1,1,8,2,34,0,1,,,,,,,,,,,,,,
,,,,,,,,,,,left.png,,w,left,5cb34fdb9a26a300017302d8,2021-10-22_17h16.47.854,arrow_simon_punish,2021.1.2,Win32,60.12867537,,,,,,,,,,,,,,p,0,1.2901,2.34562715,1,1,8,3,35,2,1,,,,,,,,,,,,,,
,,,,,,,,,,,right.png,,p,left,5cb34fdb9a26a300017302d8,2021-10-22_17h16.47.854,arrow_simon_punish,2021.1.2,Win32,60.12867537,,,,,,,,,,,,,,p,1,1.3527,1.56536331,1,1,9,0,36,0,1,,,,,,,,,,,,,,
,,,,,,,,,,,right.png,,p,right,5cb34fdb9a26a300017302d8,2021-10-22_17h16.47.854,arrow_simon_punish,2021.1.2,Win32,60.12867537,,,,,,,,,,,,,,p,1,1.2508,2.072707589,1,1,9,1,37,1,1,,,,,,,,,,,,,,
,,,,,,,,,,,left.png,,w,left,5cb34fdb9a26a300017302d8,2021-10-22_17h16.47.854,arrow_simon_punish,2021.1.2,Win32,60.12867537,,,,,,,,,,,,,,p,0,1.4062,2.239858167,1,1,9,2,38,2,1,,,,,,,,,,,,,,
,,,,,,,,,,,left.png,,w,left,5cb34fdb9a26a300017302d8,2021-10-22_17h16.47.854,arrow_simon_punish,2021.1.2,Win32,60.12867537,,,,,,,,,,,,,,p,0,1.0987,1.538933103,1,1,9,3,39,2,1,,,,,,,,,,,,,,
,,,,,,,,,,,left.png,,w,left,5cb34fdb9a26a300017302d8,2021-10-22_17h16.47.854,arrow_simon_punish,2021.1.2,Win32,60.12867537,,,,,,,,,,,,,,w,1,1.7479,2.382150334,1,1,10,0,40,2,1,,,,,,,,,,,,,,
,,,,,,,,,,,left.png,,w,right,5cb34fdb9a26a300017302d8,2021-10-22_17h16.47.854,arrow_simon_punish,2021.1.2,Win32,60.12867537,,,,,,,,,,,,,,p,0,1.5842,1.961231096,1,1,10,1,41,3,1,,,,,,,,,,,,,,
,,,,,,,,,,,left.png,,w,right,5cb34fdb9a26a300017302d8,2021-10-22_17h16.47.854,arrow_simon_punish,2021.1.2,Win32,60.12867537,,,,,,,,,,,,,,p,0,1.2679,1.807759106,1,1,10,2,42,3,1,,,,,,,,,,,,,,
,,,,,,,,,,,left.png,,w,left,5cb34fdb9a26a300017302d8,2021-10-22_17h16.47.854,arrow_simon_punish,2021.1.2,Win32,60.12867537,,,,,,,,,,,,,,w,1,1.1072,1.563487413,1,1,10,3,43,2,1,,,,,,,,,,,,,,
,,,,,,,,,,,left.png,,w,right,5cb34fdb9a26a300017302d8,2021-10-22_17h16.47.854,arrow_simon_punish,2021.1.2,Win32,60.12867537,,,,,,,,,,,,,,p,0,1.7841,2.331390359,1,1,11,0,44,3,1,,,,,,,,,,,,,,
,,,,,,,,,,,right.png,,p,right,5cb34fdb9a26a300017302d8,2021-10-22_17h16.47.854,arrow_simon_punish,2021.1.2,Win32,60.12867537,,,,,,,,,,,,,,w,0,1.2009,1.501634041,1,1,11,1,45,1,1,,,,,,,,,,,,,,
,,,,,,,,,,,left.png,,w,right,5cb34fdb9a26a300017302d8,2021-10-22_17h16.47.854,arrow_simon_punish,2021.1.2,Win32,60.12867537,,,,,,,,,,,,,,p,0,1.3887,1.986800562,1,1,11,2,46,3,1,,,,,,,,,,,,,,
,,,,,,,,,,,left.png,,w,right,5cb34fdb9a26a300017302d8,2021-10-22_17h16.47.854,arrow_simon_punish,2021.1.2,Win32,60.12867537,,,,,,,,,,,,,,w,1,2.3626,2.11718141,1,1,11,3,47,3,1,,,,,,,,,,,,,,
,,,,,,,,,,,left.png,,w,right,5cb34fdb9a26a300017302d8,2021-10-22_17h16.47.854,arrow_simon_punish,2021.1.2,Win32,60.12867537,,,,,,,,,,,,,,w,1,1.6555,2.183973406,1,1,12,0,48,3,1,,,,,,,,,,,,,,
,,,,,,,,,,,right.png,,p,right,5cb34fdb9a26a300017302d8,2021-10-22_17h16.47.854,arrow_simon_punish,2021.1.2,Win32,60.12867537,,,,,,,,,,,,,,p,1,1.0006,1.542678704,1,1,12,1,49,1,1,,,,,,,,,,,,,,
,,,,,,,,,,,right.png,,p,left,5cb34fdb9a26a300017302d8,2021-10-22_17h16.47.854,arrow_simon_punish,2021.1.2,Win32,60.12867537,,,,,,,,,,,,,,p,1,1.4172,1.932233118,0,1,12,2,50,0,1,,,,,,,,,,,,,,
,,,,,,,,,,,right.png,,p,left,5cb34fdb9a26a300017302d8,2021-10-22_17h16.47.854,arrow_simon_punish,2021.1.2,Win32,60.12867537,,,,,,,,,,,,,,p,1,1.1175,1.542866178,1,1,12,3,51,0,1,,,,,,,,,,,,,,
,,,,,,,,,,,left.png,,w,left,5cb34fdb9a26a300017302d8,2021-10-22_17h16.47.854,arrow_simon_punish,2021.1.2,Win32,60.12867537,,,,,,,,,,,,,,p,0,1.1285,1.723458066,1,1,13,0,52,2,1,,,,,,,,,,,,,,
,,,,,,,,,,,left.png,,w,left,5cb34fdb9a26a300017302d8,2021-10-22_17h16.47.854,arrow_simon_punish,2021.1.2,Win32,60.12867537,,,,,,,,,,,,,,w,1,1.1719,1.79590071,1,1,13,1,53,2,1,,,,,,,,,,,,,,
,,,,,,,,,,,left.png,,w,left,5cb34fdb9a26a300017302d8,2021-10-22_17h16.47.854,arrow_simon_punish,2021.1.2,Win32,60.12867537,,,,,,,,,,,,,,w,1,1.4947,1.510886643,0,1,13,2,54,2,1,,,,,,,,,,,,,,
,,,,,,,,,,,right.png,,p,left,5cb34fdb9a26a300017302d8,2021-10-22_17h16.47.854,arrow_simon_punish,2021.1.2,Win32,60.12867537,,,,,,,,,,,,,,w,0,0.9869,1.511676522,1,1,13,3,55,0,1,,,,,,,,,,,,,,
,,,,,,,,,,,left.png,,w,left,5cb34fdb9a26a300017302d8,2021-10-22_17h16.47.854,arrow_simon_punish,2021.1.2,Win32,60.12867537,,,,,,,,,,,,,,w,1,1.768,2.334252385,1,1,14,0,56,2,1,,,,,,,,,,,,,,
,,,,,,,,,,,left.png,,w,left,5cb34fdb9a26a300017302d8,2021-10-22_17h16.47.854,arrow_simon_punish,2021.1.2,Win32,60.12867537,,,,,,,,,,,,,,w,1,1.6182,2.244166919,1,1,14,1,57,2,1,,,,,,,,,,,,,,
,,,,,,,,,,,left.png,,w,right,5cb34fdb9a26a300017302d8,2021-10-22_17h16.47.854,arrow_simon_punish,2021.1.2,Win32,60.12867537,,,,,,,,,,,,,,w,1,1.5205,1.862858244,0,1,14,2,58,3,1,,,,,,,,,,,,,,
,,,,,,,,,,,left.png,,w,right,5cb34fdb9a26a300017302d8,2021-10-22_17h16.47.854,arrow_simon_punish,2021.1.2,Win32,60.12867537,,,,,,,,,,,,,,w,1,2.1143,2.448953733,1,1,14,3,59,3,1,,,,,,,,,,,,,,
,,,,,,,,,,,,,,,5cb34fdb9a26a300017302d8,2021-10-22_17h16.47.854,arrow_simon_punish,2021.1.2,Win32,60.12867537,,,,,,,,,,,,,,,,,,,,,,,,,space,13.5758,2,0,0,0,0,1,1,,,,,
,,,,,,,,,,,left.png,,w,right,5cb34fdb9a26a300017302d8,2021-10-22_17h16.47.854,arrow_simon_punish,2021.1.2,Win32,60.12867537,,,,,,,,,,,,,,w,1,1.7674,2.325143131,1,5,0,0,0,3,1,,,,,,,,,,,,,,
,,,,,,,,,,,right.png,,p,left,5cb34fdb9a26a300017302d8,2021-10-22_17h16.47.854,arrow_simon_punish,2021.1.2,Win32,60.12867537,,,,,,,,,,,,,,p,1,1.7832,2.295931326,1,5,0,1,1,0,1,,,,,,,,,,,,,,
,,,,,,,,,,,right.png,,p,left,5cb34fdb9a26a300017302d8,2021-10-22_17h16.47.854,arrow_simon_punish,2021.1.2,Win32,60.12867537,,,,,,,,,,,,,,w,0,1.4193,2.02064394,1,5,0,2,2,0,1,,,,,,,,,,,,,,
,,,,,,,,,,,right.png,,p,right,5cb34fdb9a26a300017302d8,2021-10-22_17h16.47.854,arrow_simon_punish,2021.1.2,Win32,60.12867537,,,,,,,,,,,,,,p,1,1.5673,2.272766346,0,5,0,3,3,1,1,,,,,,,,,,,,,,
,,,,,,,,,,,left.png,,w,right,5cb34fdb9a26a300017302d8,2021-10-22_17h16.47.854,arrow_simon_punish,2021.1.2,Win32,60.12867537,,,,,,,,,,,,,,p,0,1.5527,2.310929572,1,5,1,0,4,3,1,,,,,,,,,,,,,,
,,,,,,,,,,,left.png,,w,right,5cb34fdb9a26a300017302d8,2021-10-22_17h16.47.854,arrow_simon_punish,2021.1.2,Win32,60.12867537,,,,,,,,,,,,,,p,0,1.7046,2.229358287,1,5,1,1,5,3,1,,,,,,,,,,,,,,
,,,,,,,,,,,left.png,,w,right,5cb34fdb9a26a300017302d8,2021-10-22_17h16.47.854,arrow_simon_punish,2021.1.2,Win32,60.12867537,,,,,,,,,,,,,,p,0,1.701,2.308448481,1,5,1,2,6,3,1,,,,,,,,,,,,,,
,,,,,,,,,,,left.png,,w,left,5cb34fdb9a26a300017302d8,2021-10-22_17h16.47.854,arrow_simon_punish,2021.1.2,Win32,60.12867537,,,,,,,,,,,,,,p,0,1.6783,1.84692289,1,5,1,3,7,2,1,,,,,,,,,,,,,,
,,,,,,,,,,,right.png,,p,right,5cb34fdb9a26a300017302d8,2021-10-22_17h16.47.854,arrow_simon_punish,2021.1.2,Win32,60.12867537,,,,,,,,,,,,,,w,0,1.4134,1.887133272,1,5,2,0,8,1,1,,,,,,,,,,,,,,
,,,,,,,,,,,left.png,,w,right,5cb34fdb9a26a300017302d8,2021-10-22_17h16.47.854,arrow_simon_punish,2021.1.2,Win32,60.12867537,,,,,,,,,,,,,,p,0,1.6143,2.18678208,1,5,2,1,9,3,1,,,,,,,,,,,,,,
,,,,,,,,,,,left.png,,w,left,5cb34fdb9a26a300017302d8,2021-10-22_17h16.47.854,arrow_simon_punish,2021.1.2,Win32,60.12867537,,,,,,,,,,,,,,w,1,1.6143,2.045500466,1,5,2,2,10,2,1,,,,,,,,,,,,,,
,,,,,,,,,,,right.png,,p,left,5cb34fdb9a26a300017302d8,2021-10-22_17h16.47.854,arrow_simon_punish,2021.1.2,Win32,60.12867537,,,,,,,,,,,,,,p,1,1.526,1.989149883,0,5,2,3,11,0,1,,,,,,,,,,,,,,
,,,,,,,,,,,right.png,,p,left,5cb34fdb9a26a300017302d8,2021-10-22_17h16.47.854,arrow_simon_punish,2021.1.2,Win32,60.12867537,,,,,,,,,,,,,,p,1,1.7733,2.126981148,1,5,3,0,12,0,1,,,,,,,,,,,,,,
,,,,,,,,,,,left.png,,w,left,5cb34fdb9a26a300017302d8,2021-10-22_17h16.47.854,arrow_simon_punish,2021.1.2,Win32,60.12867537,,,,,,,,,,,,,,w,1,1.5883,2.13344109,0,5,3,1,13,2,1,,,,,,,,,,,,,,
,,,,,,,,,,,right.png,,p,right,5cb34fdb9a26a300017302d8,2021-10-22_17h16.47.854,arrow_simon_punish,2021.1.2,Win32,60.12867537,,,,,,,,,,,,,,p,1,1.2304,1.831969488,1,5,3,2,14,1,1,,,,,,,,,,,,,,
,,,,,,,,,,,right.png,,p,right,5cb34fdb9a26a300017302d8,2021-10-22_17h16.47.854,arrow_simon_punish,2021.1.2,Win32,60.12867537,,,,,,,,,,,,,,p,1,1.188,1.790961896,1,5,3,3,15,1,1,,,,,,,,,,,,,,
,,,,,,,,,,,left.png,,w,right,5cb34fdb9a26a300017302d8,2021-10-22_17h16.47.854,arrow_simon_punish,2021.1.2,Win32,60.12867537,,,,,,,,,,,,,,p,0,1.7132,2.349134341,1,5,4,0,16,3,1,,,,,,,,,,,,,,
,,,,,,,,,,,right.png,,p,left,5cb34fdb9a26a300017302d8,2021-10-22_17h16.47.854,arrow_simon_punish,2021.1.2,Win32,60.12867537,,,,,,,,,,,,,,p,1,1.6942,2.317066739,1,5,4,1,17,0,1,,,,,,,,,,,,,,
,,,,,,,,,,,left.png,,w,left,5cb34fdb9a26a300017302d8,2021-10-22_17h16.47.854,arrow_simon_punish,2021.1.2,Win32,60.12867537,,,,,,,,,,,,,,w,1,1.6796,2.276383482,1,5,4,2,18,2,1,,,,,,,,,,,,,,
,,,,,,,,,,,right.png,,p,right,5cb34fdb9a26a300017302d8,2021-10-22_17h16.47.854,arrow_simon_punish,2021.1.2,Win32,60.12867537,,,,,,,,,,,,,,p,1,1.4414,2.118935986,0,5,4,3,19,1,1,,,,,,,,,,,,,,
,,,,,,,,,,,right.png,,p,right,5cb34fdb9a26a300017302d8,2021-10-22_17h16.47.854,arrow_simon_punish,2021.1.2,Win32,60.12867537,,,,,,,,,,,,,,p,1,1.5448,2.081149969,0,5,5,0,20,1,1,,,,,,,,,,,,,,
,,,,,,,,,,,left.png,,w,right,5cb34fdb9a26a300017302d8,2021-10-22_17h16.47.854,arrow_simon_punish,2021.1.2,Win32,60.12867537,,,,,,,,,,,,,,p,0,1.6167,2.314373338,1,5,5,1,21,3,1,,,,,,,,,,,,,,
,,,,,,,,,,,left.png,,w,left,5cb34fdb9a26a300017302d8,2021-10-22_17h16.47.854,arrow_simon_punish,2021.1.2,Win32,60.12867537,,,,,,,,,,,,,,w,1,1.6554,2.390487479,1,5,5,2,22,2,1,,,,,,,,,,,,,,
,,,,,,,,,,,left.png,,w,right,5cb34fdb9a26a300017302d8,2021-10-22_17h16.47.854,arrow_simon_punish,2021.1.2,Win32,60.12867537,,,,,,,,,,,,,,p,0,1.3908,2.087603399,1,5,5,3,23,3,1,,,,,,,,,,,,,,
,,,,,,,,,,,right.png,,p,right,5cb34fdb9a26a300017302d8,2021-10-22_17h16.47.854,arrow_simon_punish,2021.1.2,Win32,60.12867537,,,,,,,,,,,,,,p,1,1.5226,2.002800012,0,5,6,0,24,1,1,,,,,,,,,,,,,,
,,,,,,,,,,,right.png,,p,left,5cb34fdb9a26a300017302d8,2021-10-22_17h16.47.854,arrow_simon_punish,2021.1.2,Win32,60.12867537,,,,,,,,,,,,,,w,0,1.7476,2.417447152,1,5,6,1,25,0,1,,,,,,,,,,,,,,
,,,,,,,,,,,left.png,,w,left,5cb34fdb9a26a300017302d8,2021-10-22_17h16.47.854,arrow_simon_punish,2021.1.2,Win32,60.12867537,,,,,,,,,,,,,,w,1,1.6522,2.194143207,1,5,6,2,26,2,1,,,,,,,,,,,,,,
,,,,,,,,,,,right.png,,p,left,5cb34fdb9a26a300017302d8,2021-10-22_17h16.47.854,arrow_simon_punish,2021.1.2,Win32,60.12867537,,,,,,,,,,,,,,p,1,1.8008,2.258180368,1,5,6,3,27,0,1,,,,,,,,,,,,,,
,,,,,,,,,,,right.png,,p,right,5cb34fdb9a26a300017302d8,2021-10-22_17h16.47.854,arrow_simon_punish,2021.1.2,Win32,60.12867537,,,,,,,,,,,,,,w,0,1.4815,1.989037541,1,5,7,0,28,1,1,,,,,,,,,,,,,,
,,,,,,,,,,,left.png,,w,left,5cb34fdb9a26a300017302d8,2021-10-22_17h16.47.854,arrow_simon_punish,2021.1.2,Win32,60.12867537,,,,,,,,,,,,,,w,1,1.5893,2.20474712,0,5,7,1,29,2,1,,,,,,,,,,,,,,
,,,,,,,,,,,right.png,,p,right,5cb34fdb9a26a300017302d8,2021-10-22_17h16.47.854,arrow_simon_punish,2021.1.2,Win32,60.12867537,,,,,,,,,,,,,,p,1,1.4939,2.209078098,0,5,7,2,30,1,1,,,,,,,,,,,,,,
,,,,,,,,,,,left.png,,w,left,5cb34fdb9a26a300017302d8,2021-10-22_17h16.47.854,arrow_simon_punish,2021.1.2,Win32,60.12867537,,,,,,,,,,,,,,w,1,1.5536,2.251392466,0,5,7,3,31,2,1,,,,,,,,,,,,,,
,,,,,,,,,,,left.png,,w,right,5cb34fdb9a26a300017302d8,2021-10-22_17h16.47.854,arrow_simon_punish,2021.1.2,Win32,60.12867537,,,,,,,,,,,,,,p,0,1.2747,1.841168495,1,5,8,0,32,3,1,,,,,,,,,,,,,,
,,,,,,,,,,,left.png,,w,left,5cb34fdb9a26a300017302d8,2021-10-22_17h16.47.854,arrow_simon_punish,2021.1.2,Win32,60.12867537,,,,,,,,,,,,,,w,1,1.8807,1.752712271,1,5,8,1,33,2,1,,,,,,,,,,,,,,
,,,,,,,,,,,right.png,,p,left,5cb34fdb9a26a300017302d8,2021-10-22_17h16.47.854,arrow_simon_punish,2021.1.2,Win32,60.12867537,,,,,,,,,,,,,,p,1,1.6208,2.179594481,1,5,8,2,34,0,1,,,,,,,,,,,,,,
,,,,,,,,,,,right.png,,p,right,5cb34fdb9a26a300017302d8,2021-10-22_17h16.47.854,arrow_simon_punish,2021.1.2,Win32,60.12867537,,,,,,,,,,,,,,p,1,1.2092,1.651102677,1,5,8,3,35,1,1,,,,,,,,,,,,,,
,,,,,,,,,,,left.png,,w,left,5cb34fdb9a26a300017302d8,2021-10-22_17h16.47.854,arrow_simon_punish,2021.1.2,Win32,60.12867537,,,,,,,,,,,,,,w,1,1.8668,1.898894138,1,5,9,0,36,2,1,,,,,,,,,,,,,,
,,,,,,,,,,,right.png,,p,left,5cb34fdb9a26a300017302d8,2021-10-22_17h16.47.854,arrow_simon_punish,2021.1.2,Win32,60.12867537,,,,,,,,,,,,,,w,0,1.7211,2.289384294,1,5,9,1,37,0,1,,,,,,,,,,,,,,
,,,,,,,,,,,right.png,,p,left,5cb34fdb9a26a300017302d8,2021-10-22_17h16.47.854,arrow_simon_punish,2021.1.2,Win32,60.12867537,,,,,,,,,,,,,,p,1,1.8668,1.54549769,1,5,9,2,38,0,1,,,,,,,,,,,,,,
,,,,,,,,,,,right.png,,p,right,5cb34fdb9a26a300017302d8,2021-10-22_17h16.47.854,arrow_simon_punish,2021.1.2,Win32,60.12867537,,,,,,,,,,,,,,p,1,1.8489,1.92304986,1,5,9,3,39,1,1,,,,,,,,,,,,,,
,,,,,,,,,,,left.png,,w,right,5cb34fdb9a26a300017302d8,2021-10-22_17h16.47.854,arrow_simon_punish,2021.1.2,Win32,60.12867537,,,,,,,,,,,,,,w,1,1.6572,2.098066504,1,5,10,0,40,3,1,,,,,,,,,,,,,,
,,,,,,,,,,,right.png,,p,left,5cb34fdb9a26a300017302d8,2021-10-22_17h16.47.854,arrow_simon_punish,2021.1.2,Win32,60.12867537,,,,,,,,,,,,,,p,1,1.1217,1.63465586,1,5,10,1,41,0,1,,,,,,,,,,,,,,
,,,,,,,,,,,right.png,,p,right,5cb34fdb9a26a300017302d8,2021-10-22_17h16.47.854,arrow_simon_punish,2021.1.2,Win32,60.12867537,,,,,,,,,,,,,,p,1,1.5703,2.271147211,0,5,10,2,42,1,1,,,,,,,,,,,,,,
,,,,,,,,,,,right.png,,p,right,5cb34fdb9a26a300017302d8,2021-10-22_17h16.47.854,arrow_simon_punish,2021.1.2,Win32,60.12867537,,,,,,,,,,,,,,p,1,1.9307,1.940941276,1,5,10,3,43,1,1,,,,,,,,,,,,,,
,,,,,,,,,,,left.png,,w,right,5cb34fdb9a26a300017302d8,2021-10-22_17h16.47.854,arrow_simon_punish,2021.1.2,Win32,60.12867537,,,,,,,,,,,,,,w,1,1.9283,2.291002064,1,5,11,0,44,3,1,,,,,,,,,,,,,,
,,,,,,,,,,,right.png,,p,left,5cb34fdb9a26a300017302d8,2021-10-22_17h16.47.854,arrow_simon_punish,2021.1.2,Win32,60.12867537,,,,,,,,,,,,,,p,1,1.6711,2.26937347,1,5,11,1,45,0,1,,,,,,,,,,,,,,
,,,,,,,,,,,right.png,,p,left,5cb34fdb9a26a300017302d8,2021-10-22_17h16.47.854,arrow_simon_punish,2021.1.2,Win32,60.12867537,,,,,,,,,,,,,,p,1,1.7588,2.37544976,1,5,11,2,46,0,1,,,,,,,,,,,,,,
,,,,,,,,,,,left.png,,w,left,5cb34fdb9a26a300017302d8,2021-10-22_17h16.47.854,arrow_simon_punish,2021.1.2,Win32,60.12867537,,,,,,,,,,,,,,p,0,1.8085,2.33237896,1,5,11,3,47,2,1,,,,,,,,,,,,,,
,,,,,,,,,,,right.png,,p,left,5cb34fdb9a26a300017302d8,2021-10-22_17h16.47.854,arrow_simon_punish,2021.1.2,Win32,60.12867537,,,,,,,,,,,,,,p,1,1.1632,1.683529739,1,5,12,0,48,0,1,,,,,,,,,,,,,,
,,,,,,,,,,,left.png,,w,right,5cb34fdb9a26a300017302d8,2021-10-22_17h16.47.854,arrow_simon_punish,2021.1.2,Win32,60.12867537,,,,,,,,,,,,,,w,1,1.8813,1.517163379,1,5,12,1,49,3,1,,,,,,,,,,,,,,
,,,,,,,,,,,right.png,,p,right,5cb34fdb9a26a300017302d8,2021-10-22_17h16.47.854,arrow_simon_punish,2021.1.2,Win32,60.12867537,,,,,,,,,,,,,,p,1,1.914,1.760937902,1,5,12,2,50,1,1,,,,,,,,,,,,,,
,,,,,,,,,,,left.png,,w,right,5cb34fdb9a26a300017302d8,2021-10-22_17h16.47.854,arrow_simon_punish,2021.1.2,Win32,60.12867537,,,,,,,,,,,,,,w,1,1.9999,2.323181688,1,5,12,3,51,3,1,,,,,,,,,,,,,,
,,,,,,,,,,,right.png,,p,right,5cb34fdb9a26a300017302d8,2021-10-22_17h16.47.854,arrow_simon_punish,2021.1.2,Win32,60.12867537,,,,,,,,,,,,,,p,1,1.8173,1.534941979,1,5,13,0,52,1,1,,,,,,,,,,,,,,
,,,,,,,,,,,left.png,,w,right,5cb34fdb9a26a300017302d8,2021-10-22_17h16.47.854,arrow_simon_punish,2021.1.2,Win32,60.12867537,,,,,,,,,,,,,,p,0,1.8703,2.311823341,1,5,13,1,53,3,1,,,,,,,,,,,,,,
,,,,,,,,,,,right.png,,p,left,5cb34fdb9a26a300017302d8,2021-10-22_17h16.47.854,arrow_simon_punish,2021.1.2,Win32,60.12867537,,,,,,,,,,,,,,p,1,1.8706,1.535780854,1,5,13,2,54,0,1,,,,,,,,,,,,,,
,,,,,,,,,,,left.png,,w,left,5cb34fdb9a26a300017302d8,2021-10-22_17h16.47.854,arrow_simon_punish,2021.1.2,Win32,60.12867537,,,,,,,,,,,,,,p,0,1.9186,2.472806652,1,5,13,3,55,2,1,,,,,,,,,,,,,,
,,,,,,,,,,,left.png,,w,right,5cb34fdb9a26a300017302d8,2021-10-22_17h16.47.854,arrow_simon_punish,2021.1.2,Win32,60.12867537,,,,,,,,,,,,,,w,1,2.2411,2.457192009,1,5,14,0,56,3,1,,,,,,,,,,,,,,
,,,,,,,,,,,left.png,,w,left,5cb34fdb9a26a300017302d8,2021-10-22_17h16.47.854,arrow_simon_punish,2021.1.2,Win32,60.12867537,,,,,,,,,,,,,,w,1,1.8648,1.987703697,1,5,14,1,57,2,1,,,,,,,,,,,,,,
,,,,,,,,,,,left.png,,w,left,5cb34fdb9a26a300017302d8,2021-10-22_17h16.47.854,arrow_simon_punish,2021.1.2,Win32,60.12867537,,,,,,,,,,,,,,w,1,1.9135,2.48346424,1,5,14,2,58,2,1,,,,,,,,,,,,,,
,,,,,,,,,,,left.png,,w,left,5cb34fdb9a26a300017302d8,2021-10-22_17h16.47.854,arrow_simon_punish,2021.1.2,Win32,60.12867537,,,,,,,,,,,,,,w,1,1.2532,1.775355654,1,5,14,3,59,2,1,,,,,,,,,,,,,,
,,,,,,,,,,,,,,,5cb34fdb9a26a300017302d8,2021-10-22_17h16.47.854,arrow_simon_punish,2021.1.2,Win32,60.12867537,,,,,,,,,,,,,,,,,,,,,,,,,space,12.9973,3,0,1,1,1,1,5,,,,,
,,,,,,,,,,,left.png,,w,left,5cb34fdb9a26a300017302d8,2021-10-22_17h16.47.854,arrow_simon_punish,2021.1.2,Win32,60.12867537,,,,,,,,,,,,,,p,0,1.8435,1.885874381,1,1,0,0,0,2,1,,,,,,,,,,,,,,
,,,,,,,,,,,right.png,,p,right,5cb34fdb9a26a300017302d8,2021-10-22_17h16.47.854,arrow_simon_punish,2021.1.2,Win32,60.12867537,,,,,,,,,,,,,,p,1,1.2838,1.844096928,1,1,0,1,1,1,1,,,,,,,,,,,,,,
,,,,,,,,,,,right.png,,p,right,5cb34fdb9a26a300017302d8,2021-10-22_17h16.47.854,arrow_simon_punish,2021.1.2,Win32,60.12867537,,,,,,,,,,,,,,p,1,1.8808,1.789863072,1,1,0,2,2,1,1,,,,,,,,,,,,,,
,,,,,,,,,,,left.png,,w,right,5cb34fdb9a26a300017302d8,2021-10-22_17h16.47.854,arrow_simon_punish,2021.1.2,Win32,60.12867537,,,,,,,,,,,,,,w,1,1.8807,2.068428098,1,1,0,3,3,3,1,,,,,,,,,,,,,,
,,,,,,,,,,,left.png,,w,right,5cb34fdb9a26a300017302d8,2021-10-22_17h16.47.854,arrow_simon_punish,2021.1.2,Win32,60.12867537,,,,,,,,,,,,,,w,1,1.8692,1.589014119,1,1,1,0,4,3,1,,,,,,,,,,,,,,
,,,,,,,,,,,right.png,,p,right,5cb34fdb9a26a300017302d8,2021-10-22_17h16.47.854,arrow_simon_punish,2021.1.2,Win32,60.12867537,,,,,,,,,,,,,,p,1,1.8397,2.417936661,1,1,1,1,5,1,1,,,,,,,,,,,,,,
,,,,,,,,,,,right.png,,p,left,5cb34fdb9a26a300017302d8,2021-10-22_17h16.47.854,arrow_simon_punish,2021.1.2,Win32,60.12867537,,,,,,,,,,,,,,p,1,1.8525,1.820690209,1,1,1,2,6,0,1,,,,,,,,,,,,,,
,,,,,,,,,,,right.png,,p,left,5cb34fdb9a26a300017302d8,2021-10-22_17h16.47.854,arrow_simon_punish,2021.1.2,Win32,60.12867537,,,,,,,,,,,,,,p,1,1.8335,2.033868596,1,1,1,3,7,0,1,,,,,,,,,,,,,,
,,,,,,,,,,,left.png,,w,right,5cb34fdb9a26a300017302d8,2021-10-22_17h16.47.854,arrow_simon_punish,2021.1.2,Win32,60.12867537,,,,,,,,,,,,,,w,1,1.8308,1.874264093,1,1,2,0,8,3,1,,,,,,,,,,,,,,
,,,,,,,,,,,right.png,,p,right,5cb34fdb9a26a300017302d8,2021-10-22_17h16.47.854,arrow_simon_punish,2021.1.2,Win32,60.12867537,,,,,,,,,,,,,,p,1,1.7464,2.420012474,1,1,2,1,9,1,1,,,,,,,,,,,,,,
,,,,,,,,,,,right.png,,p,right,5cb34fdb9a26a300017302d8,2021-10-22_17h16.47.854,arrow_simon_punish,2021.1.2,Win32,60.12867537,,,,,,,,,,,,,,p,1,1.6501,2.298977384,1,1,2,2,10,1,1,,,,,,,,,,,,,,
,,,,,,,,,,,left.png,,w,right,5cb34fdb9a26a300017302d8,2021-10-22_17h16.47.854,arrow_simon_punish,2021.1.2,Win32,60.12867537,,,,,,,,,,,,,,p,0,1.2269,1.603224691,1,1,2,3,11,3,1,,,,,,,,,,,,,,
,,,,,,,,,,,left.png,,w,left,5cb34fdb9a26a300017302d8,2021-10-22_17h16.47.854,arrow_simon_punish,2021.1.2,Win32,60.12867537,,,,,,,,,,,,,,w,1,1.1541,1.680767997,1,1,3,0,12,2,1,,,,,,,,,,,,,,
,,,,,,,,,,,left.png,,w,left,5cb34fdb9a26a300017302d8,2021-10-22_17h16.47.854,arrow_simon_punish,2021.1.2,Win32,60.12867537,,,,,,,,,,,,,,w,1,1.8675,2.051510226,1,1,3,1,13,2,1,,,,,,,,,,,,,,
,,,,,,,,,,,left.png,,w,right,5cb34fdb9a26a300017302d8,2021-10-22_17h16.47.854,arrow_simon_punish,2021.1.2,Win32,60.12867537,,,,,,,,,,,,,,w,1,1.9864,2.483988872,1,1,3,2,14,3,1,,,,,,,,,,,,,,
,,,,,,,,,,,right.png,,p,right,5cb34fdb9a26a300017302d8,2021-10-22_17h16.47.854,arrow_simon_punish,2021.1.2,Win32,60.12867537,,,,,,,,,,,,,,p,1,1.1224,1.590492991,1,1,3,3,15,1,1,,,,,,,,,,,,,,
,,,,,,,,,,,right.png,,p,right,5cb34fdb9a26a300017302d8,2021-10-22_17h16.47.854,arrow_simon_punish,2021.1.2,Win32,60.12867537,,,,,,,,,,,,,,p,1,1.916,2.424834293,1,1,4,0,16,1,1,,,,,,,,,,,,,,
,,,,,,,,,,,left.png,,w,left,5cb34fdb9a26a300017302d8,2021-10-22_17h16.47.854,arrow_simon_punish,2021.1.2,Win32,60.12867537,,,,,,,,,,,,,,w,1,1.8823,1.808191889,1,1,4,1,17,2,1,,,,,,,,,,,,,,
,,,,,,,,,,,left.png,,w,left,5cb34fdb9a26a300017302d8,2021-10-22_17h16.47.854,arrow_simon_punish,2021.1.2,Win32,60.12867537,,,,,,,,,,,,,,w,1,1.8738,1.703875665,1,1,4,2,18,2,1,,,,,,,,,,,,,,
,,,,,,,,,,,left.png,,w,right,5cb34fdb9a26a300017302d8,2021-10-22_17h16.47.854,arrow_simon_punish,2021.1.2,Win32,60.12867537,,,,,,,,,,,,,,p,0,1.8356,2.082648681,1,1,4,3,19,3,1,,,,,,,,,,,,,,
,,,,,,,,,,,right.png,,p,left,5cb34fdb9a26a300017302d8,2021-10-22_17h16.47.854,arrow_simon_punish,2021.1.2,Win32,60.12867537,,,,,,,,,,,,,,p,1,1.943,1.769352217,1,1,5,0,20,0,1,,,,,,,,,,,,,,
,,,,,,,,,,,right.png,,p,left,5cb34fdb9a26a300017302d8,2021-10-22_17h16.47.854,arrow_simon_punish,2021.1.2,Win32,60.12867537,,,,,,,,,,,,,,p,1,1.9314,2.269178193,1,1,5,1,21,0,1,,,,,,,,,,,,,,
,,,,,,,,,,,left.png,,w,left,5cb34fdb9a26a300017302d8,2021-10-22_17h16.47.854,arrow_simon_punish,2021.1.2,Win32,60.12867537,,,,,,,,,,,,,,w,1,1.817,2.421960445,1,1,5,2,22,2,1,,,,,,,,,,,,,,
,,,,,,,,,,,right.png,,p,left,5cb34fdb9a26a300017302d8,2021-10-22_17h16.47.854,arrow_simon_punish,2021.1.2,Win32,60.12867537,,,,,,,,,,,,,,p,1,1.9511,1.550248204,1,1,5,3,23,0,1,,,,,,,,,,,,,,
,,,,,,,,,,,right.png,,p,left,5cb34fdb9a26a300017302d8,2021-10-22_17h16.47.854,arrow_simon_punish,2021.1.2,Win32,60.12867537,,,,,,,,,,,,,,p,1,1.8694,2.429670395,1,1,6,0,24,0,1,,,,,,,,,,,,,,
,,,,,,,,,,,right.png,,p,right,5cb34fdb9a26a300017302d8,2021-10-22_17h16.47.854,arrow_simon_punish,2021.1.2,Win32,60.12867537,,,,,,,,,,,,,,p,1,1.8029,1.632214579,1,1,6,1,25,1,1,,,,,,,,,,,,,,
,,,,,,,,,,,left.png,,w,left,5cb34fdb9a26a300017302d8,2021-10-22_17h16.47.854,arrow_simon_punish,2021.1.2,Win32,60.12867537,,,,,,,,,,,,,,w,1,1.8859,1.974610386,1,1,6,2,26,2,1,,,,,,,,,,,,,,
,,,,,,,,,,,left.png,,w,left,5cb34fdb9a26a300017302d8,2021-10-22_17h16.47.854,arrow_simon_punish,2021.1.2,Win32,60.12867537,,,,,,,,,,,,,,w,1,1.953,2.456877678,1,1,6,3,27,2,1,,,,,,,,,,,,,,
,,,,,,,,,,,left.png,,w,left,5cb34fdb9a26a300017302d8,2021-10-22_17h16.47.854,arrow_simon_punish,2021.1.2,Win32,60.12867537,,,,,,,,,,,,,,w,1,1.8735,2.330395182,1,1,7,0,28,2,1,,,,,,,,,,,,,,
,,,,,,,,,,,left.png,,w,left,5cb34fdb9a26a300017302d8,2021-10-22_17h16.47.854,arrow_simon_punish,2021.1.2,Win32,60.12867537,,,,,,,,,,,,,,w,1,1.822,1.929921845,1,1,7,1,29,2,1,,,,,,,,,,,,,,
,,,,,,,,,,,right.png,,p,left,5cb34fdb9a26a300017302d8,2021-10-22_17h16.47.854,arrow_simon_punish,2021.1.2,Win32,60.12867537,,,,,,,,,,,,,,p,1,1.9334,2.419716668,1,1,7,2,30,0,1,,,,,,,,,,,,,,
,,,,,,,,,,,left.png,,w,right,5cb34fdb9a26a300017302d8,2021-10-22_17h16.47.854,arrow_simon_punish,2021.1.2,Win32,60.12867537,,,,,,,,,,,,,,p,0,1.9782,2.286108531,1,1,7,3,31,3,1,,,,,,,,,,,,,,
,,,,,,,,,,,left.png,,w,right,5cb34fdb9a26a300017302d8,2021-10-22_17h16.47.854,arrow_simon_punish,2021.1.2,Win32,60.12867537,,,,,,,,,,,,,,w,1,1.9252,2.312748315,1,1,8,0,32,3,1,,,,,,,,,,,,,,
,,,,,,,,,,,left.png,,w,right,5cb34fdb9a26a300017302d8,2021-10-22_17h16.47.854,arrow_simon_punish,2021.1.2,Win32,60.12867537,,,,,,,,,,,,,,w,1,1.8912,2.248149583,1,1,8,1,33,3,1,,,,,,,,,,,,,,
,,,,,,,,,,,right.png,,p,right,5cb34fdb9a26a300017302d8,2021-10-22_17h16.47.854,arrow_simon_punish,2021.1.2,Win32,60.12867537,,,,,,,,,,,,,,p,1,1.8829,1.636709862,1,1,8,2,34,1,1,,,,,,,,,,,,,,
,,,,,,,,,,,right.png,,p,left,5cb34fdb9a26a300017302d8,2021-10-22_17h16.47.854,arrow_simon_punish,2021.1.2,Win32,60.12867537,,,,,,,,,,,,,,p,1,2.0291,2.330962751,1,1,8,3,35,0,1,,,,,,,,,,,,,,
,,,,,,,,,,,right.png,,p,right,5cb34fdb9a26a300017302d8,2021-10-22_17h16.47.854,arrow_simon_punish,2021.1.2,Win32,60.12867537,,,,,,,,,,,,,,p,1,1.8792,2.057965749,1,1,9,0,36,1,1,,,,,,,,,,,,,,
,,,,,,,,,,,left.png,,w,right,5cb34fdb9a26a300017302d8,2021-10-22_17h16.47.854,arrow_simon_punish,2021.1.2,Win32,60.12867537,,,,,,,,,,,,,,w,1,2.0592,2.274406816,1,1,9,1,37,3,1,,,,,,,,,,,,,,
,,,,,,,,,,,right.png,,p,left,5cb34fdb9a26a300017302d8,2021-10-22_17h16.47.854,arrow_simon_punish,2021.1.2,Win32,60.12867537,,,,,,,,,,,,,,p,1,1.8165,1.547538295,1,1,9,2,38,0,1,,,,,,,,,,,,,,
,,,,,,,,,,,left.png,,w,right,5cb34fdb9a26a300017302d8,2021-10-22_17h16.47.854,arrow_simon_punish,2021.1.2,Win32,60.12867537,,,,,,,,,,,,,,w,1,1.8171,1.950070553,1,1,9,3,39,3,1,,,,,,,,,,,,,,
,,,,,,,,,,,left.png,,w,right,5cb34fdb9a26a300017302d8,2021-10-22_17h16.47.854,arrow_simon_punish,2021.1.2,Win32,60.12867537,,,,,,,,,,,,,,w,1,1.9603,2.433229602,1,1,10,0,40,3,1,,,,,,,,,,,,,,
,,,,,,,,,,,right.png,,p,right,5cb34fdb9a26a300017302d8,2021-10-22_17h16.47.854,arrow_simon_punish,2021.1.2,Win32,60.12867537,,,,,,,,,,,,,,p,1,1.9686,2.303552951,1,1,10,1,41,1,1,,,,,,,,,,,,,,
,,,,,,,,,,,right.png,,p,left,5cb34fdb9a26a300017302d8,2021-10-22_17h16.47.854,arrow_simon_punish,2021.1.2,Win32,60.12867537,,,,,,,,,,,,,,p,1,2.0023,1.816886718,1,1,10,2,42,0,1,,,,,,,,,,,,,,
,,,,,,,,,,,left.png,,w,left,5cb34fdb9a26a300017302d8,2021-10-22_17h16.47.854,arrow_simon_punish,2021.1.2,Win32,60.12867537,,,,,,,,,,,,,,w,1,1.9797,2.237736394,1,1,10,3,43,2,1,,,,,,,,,,,,,,
,,,,,,,,,,,right.png,,p,right,5cb34fdb9a26a300017302d8,2021-10-22_17h16.47.854,arrow_simon_punish,2021.1.2,Win32,60.12867537,,,,,,,,,,,,,,p,1,1.835,2.270586944,1,1,11,0,44,1,1,,,,,,,,,,,,,,
,,,,,,,,,,,right.png,,p,left,5cb34fdb9a26a300017302d8,2021-10-22_17h16.47.854,arrow_simon_punish,2021.1.2,Win32,60.12867537,,,,,,,,,,,,,,p,1,1.8805,1.650112818,1,1,11,1,45,0,1,,,,,,,,,,,,,,
,,,,,,,,,,,left.png,,w,right,5cb34fdb9a26a300017302d8,2021-10-22_17h16.47.854,arrow_simon_punish,2021.1.2,Win32,60.12867537,,,,,,,,,,,,,,w,1,1.8648,1.849078999,1,1,11,2,46,3,1,,,,,,,,,,,,,,
,,,,,,,,,,,left.png,,w,left,5cb34fdb9a26a300017302d8,2021-10-22_17h16.47.854,arrow_simon_punish,2021.1.2,Win32,60.12867537,,,,,,,,,,,,,,w,1,1.8831,2.290064456,1,1,11,3,47,2,1,,,,,,,,,,,,,,
,,,,,,,,,,,right.png,,p,left,5cb34fdb9a26a300017302d8,2021-10-22_17h16.47.854,arrow_simon_punish,2021.1.2,Win32,60.12867537,,,,,,,,,,,,,,p,1,1.8502,1.772085934,1,1,12,0,48,0,1,,,,,,,,,,,,,,
,,,,,,,,,,,left.png,,w,right,5cb34fdb9a26a300017302d8,2021-10-22_17h16.47.854,arrow_simon_punish,2021.1.2,Win32,60.12867537,,,,,,,,,,,,,,w,1,1.9144,2.179871586,1,1,12,1,49,3,1,,,,,,,,,,,,,,
,,,,,,,,,,,left.png,,w,left,5cb34fdb9a26a300017302d8,2021-10-22_17h16.47.854,arrow_simon_punish,2021.1.2,Win32,60.12867537,,,,,,,,,,,,,,w,1,1.8241,1.586649596,1,1,12,2,50,2,1,,,,,,,,,,,,,,
,,,,,,,,,,,left.png,,w,left,5cb34fdb9a26a300017302d8,2021-10-22_17h16.47.854,arrow_simon_punish,2021.1.2,Win32,60.12867537,,,,,,,,,,,,,,p,0,1.8991,2.413944592,1,1,12,3,51,2,1,,,,,,,,,,,,,,
,,,,,,,,,,,right.png,,p,left,5cb34fdb9a26a300017302d8,2021-10-22_17h16.47.854,arrow_simon_punish,2021.1.2,Win32,60.12867537,,,,,,,,,,,,,,p,1,1.9224,2.385915469,1,1,13,0,52,0,1,,,,,,,,,,,,,,
,,,,,,,,,,,left.png,,w,right,5cb34fdb9a26a300017302d8,2021-10-22_17h16.47.854,arrow_simon_punish,2021.1.2,Win32,60.12867537,,,,,,,,,,,,,,p,0,1.9165,2.450786355,1,1,13,1,53,3,1,,,,,,,,,,,,,,
,,,,,,,,,,,right.png,,p,right,5cb34fdb9a26a300017302d8,2021-10-22_17h16.47.854,arrow_simon_punish,2021.1.2,Win32,60.12867537,,,,,,,,,,,,,,p,1,1.8863,2.388620947,1,1,13,2,54,1,1,,,,,,,,,,,,,,
,,,,,,,,,,,left.png,,w,left,5cb34fdb9a26a300017302d8,2021-10-22_17h16.47.854,arrow_simon_punish,2021.1.2,Win32,60.12867537,,,,,,,,,,,,,,w,1,1.7842,1.953236147,1,1,13,3,55,2,1,,,,,,,,,,,,,,
,,,,,,,,,,,right.png,,p,left,5cb34fdb9a26a300017302d8,2021-10-22_17h16.47.854,arrow_simon_punish,2021.1.2,Win32,60.12867537,,,,,,,,,,,,,,p,1,1.4215,1.784882333,0,1,14,0,56,0,1,,,,,,,,,,,,,,
,,,,,,,,,,,right.png,,p,right,5cb34fdb9a26a300017302d8,2021-10-22_17h16.47.854,arrow_simon_punish,2021.1.2,Win32,60.12867537,,,,,,,,,,,,,,p,1,1.6716,2.32683407,1,1,14,1,57,1,1,,,,,,,,,,,,,,
,,,,,,,,,,,right.png,,p,right,5cb34fdb9a26a300017302d8,2021-10-22_17h16.47.854,arrow_simon_punish,2021.1.2,Win32,60.12867537,,,,,,,,,,,,,,p,1,1.2049,1.874179244,1,1,14,2,58,1,1,,,,,,,,,,,,,,
,,,,,,,,,,,right.png,,p,left,5cb34fdb9a26a300017302d8,2021-10-22_17h16.47.854,arrow_simon_punish,2021.1.2,Win32,60.12867537,,,,,,,,,,,,,,w,0,1.7076,2.334213711,1,1,14,3,59,0,1,,,,,,,,,,,,,,
,,,,,,,,,,,,,,,5cb34fdb9a26a300017302d8,2021-10-22_17h16.47.854,arrow_simon_punish,2021.1.2,Win32,60.12867537,,,,,,,,,,,,,,,,,,,,,,,,,space,12.3113,4,1,0,2,0,1,1,,,,,
,,,,,,,,,,,right.png,,p,left,5cb34fdb9a26a300017302d8,2021-10-22_17h16.47.854,arrow_simon_punish,2021.1.2,Win32,60.12867537,,,,,,,,,,,,,,w,0,1.9632,2.041607238,1,5,0,0,0,0,1,,,,,,,,,,,,,,
,,,,,,,,,,,left.png,,w,right,5cb34fdb9a26a300017302d8,2021-10-22_17h16.47.854,arrow_simon_punish,2021.1.2,Win32,60.12867537,,,,,,,,,,,,,,p,0,1.8333,1.677758146,1,5,0,1,1,3,1,,,,,,,,,,,,,,
,,,,,,,,,,,left.png,,w,left,5cb34fdb9a26a300017302d8,2021-10-22_17h16.47.854,arrow_simon_punish,2021.1.2,Win32,60.12867537,,,,,,,,,,,,,,w,1,1.8665,1.9286504,1,5,0,2,2,2,1,,,,,,,,,,,,,,
,,,,,,,,,,,right.png,,p,right,5cb34fdb9a26a300017302d8,2021-10-22_17h16.47.854,arrow_simon_punish,2021.1.2,Win32,60.12867537,,,,,,,,,,,,,,p,1,1.766,1.730026539,1,5,0,3,3,1,1,,,,,,,,,,,,,,
,,,,,,,,,,,left.png,,w,left,5cb34fdb9a26a300017302d8,2021-10-22_17h16.47.854,arrow_simon_punish,2021.1.2,Win32,60.12867537,,,,,,,,,,,,,,w,1,1.8006,1.669248071,1,5,1,0,4,2,1,,,,,,,,,,,,,,
,,,,,,,,,,,right.png,,p,right,5cb34fdb9a26a300017302d8,2021-10-22_17h16.47.854,arrow_simon_punish,2021.1.2,Win32,60.12867537,,,,,,,,,,,,,,p,1,1.7791,1.637129694,1,5,1,1,5,1,1,,,,,,,,,,,,,,
,,,,,,,,,,,left.png,,w,left,5cb34fdb9a26a300017302d8,2021-10-22_17h16.47.854,arrow_simon_punish,2021.1.2,Win32,60.12867537,,,,,,,,,,,,,,w,1,1.7833,1.933523412,1,5,1,2,6,2,1,,,,,,,,,,,,,,
,,,,,,,,,,,right.png,,p,left,5cb34fdb9a26a300017302d8,2021-10-22_17h16.47.854,arrow_simon_punish,2021.1.2,Win32,60.12867537,,,,,,,,,,,,,,p,1,1.8386,2.388116014,1,5,1,3,7,0,1,,,,,,,,,,,,,,
,,,,,,,,,,,left.png,,w,right,5cb34fdb9a26a300017302d8,2021-10-22_17h16.47.854,arrow_simon_punish,2021.1.2,Win32,60.12867537,,,,,,,,,,,,,,w,1,1.8202,2.336820349,1,5,2,0,8,3,1,,,,,,,,,,,,,,
,,,,,,,,,,,right.png,,p,right,5cb34fdb9a26a300017302d8,2021-10-22_17h16.47.854,arrow_simon_punish,2021.1.2,Win32,60.12867537,,,,,,,,,,,,,,p,1,1.809,2.053740878,1,5,2,1,9,1,1,,,,,,,,,,,,,,
,,,,,,,,,,,right.png,,p,right,5cb34fdb9a26a300017302d8,2021-10-22_17h16.47.854,arrow_simon_punish,2021.1.2,Win32,60.12867537,,,,,,,,,,,,,,p,1,1.77,2.232553902,1,5,2,2,10,1,1,,,,,,,,,,,,,,
,,,,,,,,,,,right.png,,p,left,5cb34fdb9a26a300017302d8,2021-10-22_17h16.47.854,arrow_simon_punish,2021.1.2,Win32,60.12867537,,,,,,,,,,,,,,p,1,1.9832,2.387594736,1,5,2,3,11,0,1,,,,,,,,,,,,,,
,,,,,,,,,,,right.png,,p,right,5cb34fdb9a26a300017302d8,2021-10-22_17h16.47.854,arrow_simon_punish,2021.1.2,Win32,60.12867537,,,,,,,,,,,,,,p,1,1.7977,1.507303687,1,5,3,0,12,1,1,,,,,,,,,,,,,,
,,,,,,,,,,,left.png,,w,right,5cb34fdb9a26a300017302d8,2021-10-22_17h16.47.854,arrow_simon_punish,2021.1.2,Win32,60.12867537,,,,,,,,,,,,,,w,1,2.0252,2.386407511,1,5,3,1,13,3,1,,,,,,,,,,,,,,
,,,,,,,,,,,left.png,,w,right,5cb34fdb9a26a300017302d8,2021-10-22_17h16.47.854,arrow_simon_punish,2021.1.2,Win32,60.12867537,,,,,,,,,,,,,,w,1,1.8044,1.53929683,1,5,3,2,14,3,1,,,,,,,,,,,,,,
,,,,,,,,,,,right.png,,p,left,5cb34fdb9a26a300017302d8,2021-10-22_17h16.47.854,arrow_simon_punish,2021.1.2,Win32,60.12867537,,,,,,,,,,,,,,p,1,1.8,1.510196448,1,5,3,3,15,0,1,,,,,,,,,,,,,,
,,,,,,,,,,,right.png,,p,left,5cb34fdb9a26a300017302d8,2021-10-22_17h16.47.854,arrow_simon_punish,2021.1.2,Win32,60.12867537,,,,,,,,,,,,,,p,1,1.7397,1.786334058,1,5,4,0,16,0,1,,,,,,,,,,,,,,
,,,,,,,,,,,left.png,,w,right,5cb34fdb9a26a300017302d8,2021-10-22_17h16.47.854,arrow_simon_punish,2021.1.2,Win32,60.12867537,,,,,,,,,,,,,,w,1,1.78,1.613059829,1,5,4,1,17,3,1,,,,,,,,,,,,,,
,,,,,,,,,,,right.png,,p,left,5cb34fdb9a26a300017302d8,2021-10-22_17h16.47.854,arrow_simon_punish,2021.1.2,Win32,60.12867537,,,,,,,,,,,,,,p,1,1.6677,1.901789115,1,5,4,2,18,0,1,,,,,,,,,,,,,,
,,,,,,,,,,,left.png,,w,right,5cb34fdb9a26a300017302d8,2021-10-22_17h16.47.854,arrow_simon_punish,2021.1.2,Win32,60.12867537,,,,,,,,,,,,,,w,1,1.6673,1.823778802,1,5,4,3,19,3,1,,,,,,,,,,,,,,
,,,,,,,,,,,right.png,,p,left,5cb34fdb9a26a300017302d8,2021-10-22_17h16.47.854,arrow_simon_punish,2021.1.2,Win32,60.12867537,,,,,,,,,,,,,,p,1,1.4173,1.893171341,0,5,5,0,20,0,1,,,,,,,,,,,,,,
,,,,,,,,,,,right.png,,p,left,5cb34fdb9a26a300017302d8,2021-10-22_17h16.47.854,arrow_simon_punish,2021.1.2,Win32,60.12867537,,,,,,,,,,,,,,p,1,1.5682,2.140807792,0,5,5,1,21,0,1,,,,,,,,,,,,,,
,,,,,,,,,,,right.png,,p,left,5cb34fdb9a26a300017302d8,2021-10-22_17h16.47.854,arrow_simon_punish,2021.1.2,Win32,60.12867537,,,,,,,,,,,,,,p,1,1.3004,1.887582547,1,5,5,2,22,0,1,,,,,,,,,,,,,,
,,,,,,,,,,,left.png,,w,left,5cb34fdb9a26a300017302d8,2021-10-22_17h16.47.854,arrow_simon_punish,2021.1.2,Win32,60.12867537,,,,,,,,,,,,,,w,1,1.2703,1.790141718,1,5,5,3,23,2,1,,,,,,,,,,,,,,
,,,,,,,,,,,left.png,,w,right,5cb34fdb9a26a300017302d8,2021-10-22_17h16.47.854,arrow_simon_punish,2021.1.2,Win32,60.12867537,,,,,,,,,,,,,,p,0,1.9025,2.475004436,1,5,6,0,24,3,1,,,,,,,,,,,,,,
,,,,,,,,,,,right.png,,p,right,5cb34fdb9a26a300017302d8,2021-10-22_17h16.47.854,arrow_simon_punish,2021.1.2,Win32,60.12867537,,,,,,,,,,,,,,p,1,1.2732,1.812186763,1,5,6,1,25,1,1,,,,,,,,,,,,,,
,,,,,,,,,,,left.png,,w,left,5cb34fdb9a26a300017302d8,2021-10-22_17h16.47.854,arrow_simon_punish,2021.1.2,Win32,60.12867537,,,,,,,,,,,,,,w,1,1.2362,1.911717688,1,5,6,2,26,2,1,,,,,,,,,,,,,,
,,,,,,,,,,,left.png,,w,left,5cb34fdb9a26a300017302d8,2021-10-22_17h16.47.854,arrow_simon_punish,2021.1.2,Win32,60.12867537,,,,,,,,,,,,,,w,1,1.3619,1.923495003,1,5,6,3,27,2,1,,,,,,,,,,,,,,
,,,,,,,,,,,left.png,,w,left,5cb34fdb9a26a300017302d8,2021-10-22_17h16.47.854,arrow_simon_punish,2021.1.2,Win32,60.12867537,,,,,,,,,,,,,,w,1,1.6203,2.175451575,1,5,7,0,28,2,1,,,,,,,,,,,,,,
,,,,,,,,,,,right.png,,p,left,5cb34fdb9a26a300017302d8,2021-10-22_17h16.47.854,arrow_simon_punish,2021.1.2,Win32,60.12867537,,,,,,,,,,,,,,p,1,1.7007,2.211088816,1,5,7,1,29,0,1,,,,,,,,,,,,,,
,,,,,,,,,,,left.png,,w,right,5cb34fdb9a26a300017302d8,2021-10-22_17h16.47.854,arrow_simon_punish,2021.1.2,Win32,60.12867537,,,,,,,,,,,,,,w,1,1.6246,1.571492601,1,5,7,2,30,3,1,,,,,,,,,,,,,,
,,,,,,,,,,,left.png,,w,right,5cb34fdb9a26a300017302d8,2021-10-22_17h16.47.854,arrow_simon_punish,2021.1.2,Win32,60.12867537,,,,,,,,,,,,,,w,1,1.8138,1.885652137,1,5,7,3,31,3,1,,,,,,,,,,,,,,
,,,,,,,,,,,left.png,,w,right,5cb34fdb9a26a300017302d8,2021-10-22_17h16.47.854,arrow_simon_punish,2021.1.2,Win32,60.12867537,,,,,,,,,,,,,,w,1,1.967,2.007102374,1,5,8,0,32,3,1,,,,,,,,,,,,,,
,,,,,,,,,,,left.png,,w,left,5cb34fdb9a26a300017302d8,2021-10-22_17h16.47.854,arrow_simon_punish,2021.1.2,Win32,60.12867537,,,,,,,,,,,,,,w,1,1.8803,2.019406065,1,5,8,1,33,2,1,,,,,,,,,,,,,,
,,,,,,,,,,,right.png,,p,right,5cb34fdb9a26a300017302d8,2021-10-22_17h16.47.854,arrow_simon_punish,2021.1.2,Win32,60.12867537,,,,,,,,,,,,,,p,1,1.9509,2.28741082,1,5,8,2,34,1,1,,,,,,,,,,,,,,
,,,,,,,,,,,left.png,,w,left,5cb34fdb9a26a300017302d8,2021-10-22_17h16.47.854,arrow_simon_punish,2021.1.2,Win32,60.12867537,,,,,,,,,,,,,,w,1,1.034,1.603276128,1,5,8,3,35,2,1,,,,,,,,,,,,,,
,,,,,,,,,,,right.png,,p,right,5cb34fdb9a26a300017302d8,2021-10-22_17h16.47.854,arrow_simon_punish,2021.1.2,Win32,60.12867537,,,,,,,,,,,,,,p,1,1.8848,2.140062942,1,5,9,0,36,1,1,,,,,,,,,,,,,,
,,,,,,,,,,,right.png,,p,left,5cb34fdb9a26a300017302d8,2021-10-22_17h16.47.854,arrow_simon_punish,2021.1.2,Win32,60.12867537,,,,,,,,,,,,,,p,1,1.758,1.719765399,1,5,9,1,37,0,1,,,,,,,,,,,,,,
,,,,,,,,,,,right.png,,p,right,5cb34fdb9a26a300017302d8,2021-10-22_17h16.47.854,arrow_simon_punish,2021.1.2,Win32,60.12867537,,,,,,,,,,,,,,p,1,1.7841,1.922056762,1,5,9,2,38,1,1,,,,,,,,,,,,,,
,,,,,,,,,,,right.png,,p,right,5cb34fdb9a26a300017302d8,2021-10-22_17h16.47.854,arrow_simon_punish,2021.1.2,Win32,60.12867537,,,,,,,,,,,,,,p,1,1.7978,1.659804943,1,5,9,3,39,1,1,,,,,,,,,,,,,,
,,,,,,,,,,,left.png,,w,left,5cb34fdb9a26a300017302d8,2021-10-22_17h16.47.854,arrow_simon_punish,2021.1.2,Win32,60.12867537,,,,,,,,,,,,,,w,1,1.8468,2.140991843,1,5,10,0,40,2,1,,,,,,,,,,,,,,
,,,,,,,,,,,left.png,,w,right,5cb34fdb9a26a300017302d8,2021-10-22_17h16.47.854,arrow_simon_punish,2021.1.2,Win32,60.12867537,,,,,,,,,,,,,,w,1,1.9478,2.389822318,1,5,10,1,41,3,1,,,,,,,,,,,,,,
,,,,,,,,,,,right.png,,p,right,5cb34fdb9a26a300017302d8,2021-10-22_17h16.47.854,arrow_simon_punish,2021.1.2,Win32,60.12867537,,,,,,,,,,,,,,p,1,1.7019,2.172142893,1,5,10,2,42,1,1,,,,,,,,,,,,,,
,,,,,,,,,,,left.png,,w,right,5cb34fdb9a26a300017302d8,2021-10-22_17h16.47.854,arrow_simon_punish,2021.1.2,Win32,60.12867537,,,,,,,,,,,,,,p,0,1.8502,2.476841896,1,5,10,3,43,3,1,,,,,,,,,,,,,,
,,,,,,,,,,,right.png,,p,left,5cb34fdb9a26a300017302d8,2021-10-22_17h16.47.854,arrow_simon_punish,2021.1.2,Win32,60.12867537,,,,,,,,,,,,,,p,1,1.8042,2.336341389,1,5,11,0,44,0,1,,,,,,,,,,,,,,
,,,,,,,,,,,right.png,,p,right,5cb34fdb9a26a300017302d8,2021-10-22_17h16.47.854,arrow_simon_punish,2021.1.2,Win32,60.12867537,,,,,,,,,,,,,,p,1,1.7393,2.151626134,1,5,11,1,45,1,1,,,,,,,,,,,,,,
,,,,,,,,,,,left.png,,w,left,5cb34fdb9a26a300017302d8,2021-10-22_17h16.47.854,arrow_simon_punish,2021.1.2,Win32,60.12867537,,,,,,,,,,,,,,w,1,1.9993,2.345235988,1,5,11,2,46,2,1,,,,,,,,,,,,,,
,,,,,,,,,,,left.png,,w,left,5cb34fdb9a26a300017302d8,2021-10-22_17h16.47.854,arrow_simon_punish,2021.1.2,Win32,60.12867537,,,,,,,,,,,,,,w,1,1.9146,2.198078847,1,5,11,3,47,2,1,,,,,,,,,,,,,,
,,,,,,,,,,,right.png,,p,left,5cb34fdb9a26a300017302d8,2021-10-22_17h16.47.854,arrow_simon_punish,2021.1.2,Win32,60.12867537,,,,,,,,,,,,,,p,1,1.9496,2.416208795,1,5,12,0,48,0,1,,,,,,,,,,,,,,
,,,,,,,,,,,right.png,,p,left,5cb34fdb9a26a300017302d8,2021-10-22_17h16.47.854,arrow_simon_punish,2021.1.2,Win32,60.12867537,,,,,,,,,,,,,,p,1,1.8312,1.937846722,1,5,12,1,49,0,1,,,,,,,,,,,,,,
,,,,,,,,,,,left.png,,w,left,5cb34fdb9a26a300017302d8,2021-10-22_17h16.47.854,arrow_simon_punish,2021.1.2,Win32,60.12867537,,,,,,,,,,,,,,w,1,1.617,2.101335367,1,5,12,2,50,2,1,,,,,,,,,,,,,,
,,,,,,,,,,,left.png,,w,right,5cb34fdb9a26a300017302d8,2021-10-22_17h16.47.854,arrow_simon_punish,2021.1.2,Win32,60.12867537,,,,,,,,,,,,,,p,0,1.9498,2.425587959,1,5,12,3,51,3,1,,,,,,,,,,,,,,
,,,,,,,,,,,right.png,,p,left,5cb34fdb9a26a300017302d8,2021-10-22_17h16.47.854,arrow_simon_punish,2021.1.2,Win32,60.12867537,,,,,,,,,,,,,,p,1,1.7827,1.775994383,1,5,13,0,52,0,1,,,,,,,,,,,,,,
,,,,,,,,,,,right.png,,p,right,5cb34fdb9a26a300017302d8,2021-10-22_17h16.47.854,arrow_simon_punish,2021.1.2,Win32,60.12867537,,,,,,,,,,,,,,p,1,1.8748,1.809440995,1,5,13,1,53,1,1,,,,,,,,,,,,,,
,,,,,,,,,,,right.png,,p,right,5cb34fdb9a26a300017302d8,2021-10-22_17h16.47.854,arrow_simon_punish,2021.1.2,Win32,60.12867537,,,,,,,,,,,,,,p,1,1.5867,2.177765907,0,5,13,2,54,1,1,,,,,,,,,,,,,,
,,,,,,,,,,,left.png,,w,right,5cb34fdb9a26a300017302d8,2021-10-22_17h16.47.854,arrow_simon_punish,2021.1.2,Win32,60.12867537,,,,,,,,,,,,,,w,1,1.9758,2.381736733,1,5,13,3,55,3,1,,,,,,,,,,,,,,
,,,,,,,,,,,left.png,,w,left,5cb34fdb9a26a300017302d8,2021-10-22_17h16.47.854,arrow_simon_punish,2021.1.2,Win32,60.12867537,,,,,,,,,,,,,,w,1,1.8024,1.549610005,1,5,14,0,56,2,1,,,,,,,,,,,,,,
,,,,,,,,,,,left.png,,w,left,5cb34fdb9a26a300017302d8,2021-10-22_17h16.47.854,arrow_simon_punish,2021.1.2,Win32,60.12867537,,,,,,,,,,,,,,w,1,1.9508,2.212689236,1,5,14,1,57,2,1,,,,,,,,,,,,,,
,,,,,,,,,,,left.png,,w,right,5cb34fdb9a26a300017302d8,2021-10-22_17h16.47.854,arrow_simon_punish,2021.1.2,Win32,60.12867537,,,,,,,,,,,,,,w,1,1.6902,1.711699093,1,5,14,2,58,3,1,,,,,,,,,,,,,,
,,,,,,,,,,,right.png,,p,right,5cb34fdb9a26a300017302d8,2021-10-22_17h16.47.854,arrow_simon_punish,2021.1.2,Win32,60.12867537,,,,,,,,,,,,,,p,1,1.8709,2.255600018,1,5,14,3,59,1,1,,,,,,,,,,,,,,
,,,,,,,,,,,,,,,5cb34fdb9a26a300017302d8,2021-10-22_17h16.47.854,arrow_simon_punish,2021.1.2,Win32,60.12867537,,,,,,,,,,,,,,,,,,,,,,,,,space,9.9624,5,1,1,3,1,1,5,,,,,
,,,,,,,,,,,right.png,,p,left,5cb34fdb9a26a300017302d8,2021-10-22_17h16.47.854,arrow_simon_punish,2021.1.2,Win32,60.12867537,,,,,,,,,,,,,,p,1,1.0671,1.61859392,1,1,0,0,0,0,1,,,,,,,,,,,,,,
,,,,,,,,,,,left.png,,w,left,5cb34fdb9a26a300017302d8,2021-10-22_17h16.47.854,arrow_simon_punish,2021.1.2,Win32,60.12867537,,,,,,,,,,,,,,w,1,0.9314,1.537284124,1,1,0,1,1,2,1,,,,,,,,,,,,,,
,,,,,,,,,,,right.png,,p,left,5cb34fdb9a26a300017302d8,2021-10-22_17h16.47.854,arrow_simon_punish,2021.1.2,Win32,60.12867537,,,,,,,,,,,,,,w,0,1.8311,2.434198761,1,1,0,2,2,0,1,,,,,,,,,,,,,,
,,,,,,,,,,,right.png,,p,right,5cb34fdb9a26a300017302d8,2021-10-22_17h16.47.854,arrow_simon_punish,2021.1.2,Win32,60.12867537,,,,,,,,,,,,,,p,1,1.536,2.042796102,0,1,0,3,3,1,1,,,,,,,,,,,,,,
,,,,,,,,,,,left.png,,w,left,5cb34fdb9a26a300017302d8,2021-10-22_17h16.47.854,arrow_simon_punish,2021.1.2,Win32,60.12867537,,,,,,,,,,,,,,w,1,0.9853,1.611688471,1,1,1,0,4,2,1,,,,,,,,,,,,,,
,,,,,,,,,,,left.png,,w,right,5cb34fdb9a26a300017302d8,2021-10-22_17h16.47.854,arrow_simon_punish,2021.1.2,Win32,60.12867537,,,,,,,,,,,,,,p,0,1.8452,2.492017889,1,1,1,1,5,3,1,,,,,,,,,,,,,,
,,,,,,,,,,,left.png,,w,left,5cb34fdb9a26a300017302d8,2021-10-22_17h16.47.854,arrow_simon_punish,2021.1.2,Win32,60.12867537,,,,,,,,,,,,,,w,1,1.7999,2.08895707,1,1,1,2,6,2,1,,,,,,,,,,,,,,
,,,,,,,,,,,right.png,,p,left,5cb34fdb9a26a300017302d8,2021-10-22_17h16.47.854,arrow_simon_punish,2021.1.2,Win32,60.12867537,,,,,,,,,,,,,,p,1,1.8479,2.207004232,1,1,1,3,7,0,1,,,,,,,,,,,,,,
,,,,,,,,,,,left.png,,w,right,5cb34fdb9a26a300017302d8,2021-10-22_17h16.47.854,arrow_simon_punish,2021.1.2,Win32,60.12867537,,,,,,,,,,,,,,w,1,1.9705,2.202865569,1,1,2,0,8,3,1,,,,,,,,,,,,,,
,,,,,,,,,,,left.png,,w,right,5cb34fdb9a26a300017302d8,2021-10-22_17h16.47.854,arrow_simon_punish,2021.1.2,Win32,60.12867537,,,,,,,,,,,,,,p,0,1.8394,2.189690687,1,1,2,1,9,3,1,,,,,,,,,,,,,,
,,,,,,,,,,,right.png,,p,right,5cb34fdb9a26a300017302d8,2021-10-22_17h16.47.854,arrow_simon_punish,2021.1.2,Win32,60.12867537,,,,,,,,,,,,,,p,1,1.8845,2.342091263,1,1,2,2,10,1,1,,,,,,,,,,,,,,
,,,,,,,,,,,left.png,,w,right,5cb34fdb9a26a300017302d8,2021-10-22_17h16.47.854,arrow_simon_punish,2021.1.2,Win32,60.12867537,,,,,,,,,,,,,,w,1,1.7914,2.034777626,1,1,2,3,11,3,1,,,,,,,,,,,,,,
,,,,,,,,,,,right.png,,p,right,5cb34fdb9a26a300017302d8,2021-10-22_17h16.47.854,arrow_simon_punish,2021.1.2,Win32,60.12867537,,,,,,,,,,,,,,w,0,1.8091,2.257162388,1,1,3,0,12,1,1,,,,,,,,,,,,,,
,,,,,,,,,,,right.png,,p,left,5cb34fdb9a26a300017302d8,2021-10-22_17h16.47.854,arrow_simon_punish,2021.1.2,Win32,60.12867537,,,,,,,,,,,,,,p,1,1.8332,1.706761218,1,1,3,1,13,0,1,,,,,,,,,,,,,,
,,,,,,,,,,,left.png,,w,right,5cb34fdb9a26a300017302d8,2021-10-22_17h16.47.854,arrow_simon_punish,2021.1.2,Win32,60.12867537,,,,,,,,,,,,,,w,1,1.927,2.428693276,1,1,3,2,14,3,1,,,,,,,,,,,,,,
,,,,,,,,,,,left.png,,w,right,5cb34fdb9a26a300017302d8,2021-10-22_17h16.47.854,arrow_simon_punish,2021.1.2,Win32,60.12867537,,,,,,,,,,,,,,w,1,1.9224,1.893087393,1,1,3,3,15,3,1,,,,,,,,,,,,,,
,,,,,,,,,,,right.png,,p,left,5cb34fdb9a26a300017302d8,2021-10-22_17h16.47.854,arrow_simon_punish,2021.1.2,Win32,60.12867537,,,,,,,,,,,,,,p,1,1.884,1.927589324,1,1,4,0,16,0,1,,,,,,,,,,,,,,
,,,,,,,,,,,right.png,,p,right,5cb34fdb9a26a300017302d8,2021-10-22_17h16.47.854,arrow_simon_punish,2021.1.2,Win32,60.12867537,,,,,,,,,,,,,,p,1,1.1735,1.707145528,1,1,4,1,17,1,1,,,,,,,,,,,,,,
,,,,,,,,,,,right.png,,p,right,5cb34fdb9a26a300017302d8,2021-10-22_17h16.47.854,arrow_simon_punish,2021.1.2,Win32,60.12867537,,,,,,,,,,,,,,p,1,1.7669,2.317199963,1,1,4,2,18,1,1,,,,,,,,,,,,,,
,,,,,,,,,,,right.png,,p,right,5cb34fdb9a26a300017302d8,2021-10-22_17h16.47.854,arrow_simon_punish,2021.1.2,Win32,60.12867537,,,,,,,,,,,,,,p,1,1.8596,2.423580527,1,1,4,3,19,1,1,,,,,,,,,,,,,,
,,,,,,,,,,,left.png,,w,right,5cb34fdb9a26a300017302d8,2021-10-22_17h16.47.854,arrow_simon_punish,2021.1.2,Win32,60.12867537,,,,,,,,,,,,,,w,1,1.882,1.633848313,1,1,5,0,20,3,1,,,,,,,,,,,,,,
,,,,,,,,,,,right.png,,p,right,5cb34fdb9a26a300017302d8,2021-10-22_17h16.47.854,arrow_simon_punish,2021.1.2,Win32,60.12867537,,,,,,,,,,,,,,p,1,1.834,1.807558142,1,1,5,1,21,1,1,,,,,,,,,,,,,,
,,,,,,,,,,,left.png,,w,left,5cb34fdb9a26a300017302d8,2021-10-22_17h16.47.854,arrow_simon_punish,2021.1.2,Win32,60.12867537,,,,,,,,,,,,,,w,1,1.7932,1.696452988,1,1,5,2,22,2,1,,,,,,,,,,,,,,
,,,,,,,,,,,right.png,,p,left,5cb34fdb9a26a300017302d8,2021-10-22_17h16.47.854,arrow_simon_punish,2021.1.2,Win32,60.12867537,,,,,,,,,,,,,,p,1,2.381,2.464973638,1,1,5,3,23,0,1,,,,,,,,,,,,,,
,,,,,,,,,,,left.png,,w,left,5cb34fdb9a26a300017302d8,2021-10-22_17h16.47.854,arrow_simon_punish,2021.1.2,Win32,60.12867537,,,,,,,,,,,,,,w,1,1.8259,1.805459241,1,1,6,0,24,2,1,,,,,,,,,,,,,,
,,,,,,,,,,,left.png,,w,right,5cb34fdb9a26a300017302d8,2021-10-22_17h16.47.854,arrow_simon_punish,2021.1.2,Win32,60.12867537,,,,,,,,,,,,,,w,1,1.8807,2.318605372,1,1,6,1,25,3,1,,,,,,,,,,,,,,
,,,,,,,,,,,right.png,,p,right,5cb34fdb9a26a300017302d8,2021-10-22_17h16.47.854,arrow_simon_punish,2021.1.2,Win32,60.12867537,,,,,,,,,,,,,,p,1,1.9145,2.270441425,1,1,6,2,26,1,1,,,,,,,,,,,,,,
,,,,,,,,,,,right.png,,p,right,5cb34fdb9a26a300017302d8,2021-10-22_17h16.47.854,arrow_simon_punish,2021.1.2,Win32,60.12867537,,,,,,,,,,,,,,p,1,1.8027,1.67858252,1,1,6,3,27,1,1,,,,,,,,,,,,,,
,,,,,,,,,,,right.png,,p,left,5cb34fdb9a26a300017302d8,2021-10-22_17h16.47.854,arrow_simon_punish,2021.1.2,Win32,60.12867537,,,,,,,,,,,,,,p,1,1.3493,1.795948374,1,1,7,0,28,0,1,,,,,,,,,,,,,,
,,,,,,,,,,,left.png,,w,left,5cb34fdb9a26a300017302d8,2021-10-22_17h16.47.854,arrow_simon_punish,2021.1.2,Win32,60.12867537,,,,,,,,,,,,,,w,1,1.0008,1.550230854,1,1,7,1,29,2,1,,,,,,,,,,,,,,
,,,,,,,,,,,left.png,,w,left,5cb34fdb9a26a300017302d8,2021-10-22_17h16.47.854,arrow_simon_punish,2021.1.2,Win32,60.12867537,,,,,,,,,,,,,,w,1,1.3171,1.891347044,1,1,7,2,30,2,1,,,,,,,,,,,,,,
,,,,,,,,,,,left.png,,w,left,5cb34fdb9a26a300017302d8,2021-10-22_17h16.47.854,arrow_simon_punish,2021.1.2,Win32,60.12867537,,,,,,,,,,,,,,w,1,1.7999,2.374249123,1,1,7,3,31,2,1,,,,,,,,,,,,,,
,,,,,,,,,,,left.png,,w,right,5cb34fdb9a26a300017302d8,2021-10-22_17h16.47.854,arrow_simon_punish,2021.1.2,Win32,60.12867537,,,,,,,,,,,,,,w,1,1.5013,1.628676153,0,1,8,0,32,3,1,,,,,,,,,,,,,,
,,,,,,,,,,,right.png,,p,right,5cb34fdb9a26a300017302d8,2021-10-22_17h16.47.854,arrow_simon_punish,2021.1.2,Win32,60.12867537,,,,,,,,,,,,,,p,1,1.3833,1.88880699,1,1,8,1,33,1,1,,,,,,,,,,,,,,
,,,,,,,,,,,left.png,,w,left,5cb34fdb9a26a300017302d8,2021-10-22_17h16.47.854,arrow_simon_punish,2021.1.2,Win32,60.12867537,,,,,,,,,,,,,,w,1,1.3335,1.858927405,1,1,8,2,34,2,1,,,,,,,,,,,,,,
,,,,,,,,,,,right.png,,p,left,5cb34fdb9a26a300017302d8,2021-10-22_17h16.47.854,arrow_simon_punish,2021.1.2,Win32,60.12867537,,,,,,,,,,,,,,p,1,1.9972,2.225586075,1,1,8,3,35,0,1,,,,,,,,,,,,,,
,,,,,,,,,,,left.png,,w,right,5cb34fdb9a26a300017302d8,2021-10-22_17h16.47.854,arrow_simon_punish,2021.1.2,Win32,60.12867537,,,,,,,,,,,,,,p,0,1.9884,2.307954468,1,1,9,0,36,3,1,,,,,,,,,,,,,,
,,,,,,,,,,,left.png,,w,right,5cb34fdb9a26a300017302d8,2021-10-22_17h16.47.854,arrow_simon_punish,2021.1.2,Win32,60.12867537,,,,,,,,,,,,,,w,1,2.1246,1.879346104,1,1,9,1,37,3,1,,,,,,,,,,,,,,
,,,,,,,,,,,left.png,,w,left,5cb34fdb9a26a300017302d8,2021-10-22_17h16.47.854,arrow_simon_punish,2021.1.2,Win32,60.12867537,,,,,,,,,,,,,,p,0,1.5005,1.718481211,1,1,9,2,38,2,1,,,,,,,,,,,,,,
,,,,,,,,,,,left.png,,w,left,5cb34fdb9a26a300017302d8,2021-10-22_17h16.47.854,arrow_simon_punish,2021.1.2,Win32,60.12867537,,,,,,,,,,,,,,w,1,1.3209,1.688648762,1,1,9,3,39,2,1,,,,,,,,,,,,,,
,,,,,,,,,,,left.png,,w,left,5cb34fdb9a26a300017302d8,2021-10-22_17h16.47.854,arrow_simon_punish,2021.1.2,Win32,60.12867537,,,,,,,,,,,,,,w,1,1.1846,1.735003649,1,1,10,0,40,2,1,,,,,,,,,,,,,,
,,,,,,,,,,,right.png,,p,right,5cb34fdb9a26a300017302d8,2021-10-22_17h16.47.854,arrow_simon_punish,2021.1.2,Win32,60.12867537,,,,,,,,,,,,,,p,1,1.4071,2.066485792,0,1,10,1,41,1,1,,,,,,,,,,,,,,
,,,,,,,,,,,right.png,,p,left,5cb34fdb9a26a300017302d8,2021-10-22_17h16.47.854,arrow_simon_punish,2021.1.2,Win32,60.12867537,,,,,,,,,,,,,,p,1,1.1338,1.629687975,1,1,10,2,42,0,1,,,,,,,,,,,,,,
,,,,,,,,,,,right.png,,p,left,5cb34fdb9a26a300017302d8,2021-10-22_17h16.47.854,arrow_simon_punish,2021.1.2,Win32,60.12867537,,,,,,,,,,,,,,p,1,1.1672,1.740175624,1,1,10,3,43,0,1,,,,,,,,,,,,,,
,,,,,,,,,,,left.png,,w,right,5cb34fdb9a26a300017302d8,2021-10-22_17h16.47.854,arrow_simon_punish,2021.1.2,Win32,60.12867537,,,,,,,,,,,,,,w,1,1.1874,1.572238622,1,1,11,0,44,3,1,,,,,,,,,,,,,,
,,,,,,,,,,,right.png,,p,right,5cb34fdb9a26a300017302d8,2021-10-22_17h16.47.854,arrow_simon_punish,2021.1.2,Win32,60.12867537,,,,,,,,,,,,,,p,1,1.0842,1.580480756,1,1,11,1,45,1,1,,,,,,,,,,,,,,
,,,,,,,,,,,left.png,,w,left,5cb34fdb9a26a300017302d8,2021-10-22_17h16.47.854,arrow_simon_punish,2021.1.2,Win32,60.12867537,,,,,,,,,,,,,,w,1,1.6008,2.147389642,1,1,11,2,46,2,1,,,,,,,,,,,,,,
,,,,,,,,,,,left.png,,w,left,5cb34fdb9a26a300017302d8,2021-10-22_17h16.47.854,arrow_simon_punish,2021.1.2,Win32,60.12867537,,,,,,,,,,,,,,w,1,1.5747,2.155099937,0,1,11,3,47,2,1,,,,,,,,,,,,,,
,,,,,,,,,,,left.png,,w,right,5cb34fdb9a26a300017302d8,2021-10-22_17h16.47.854,arrow_simon_punish,2021.1.2,Win32,60.12867537,,,,,,,,,,,,,,w,1,1.4339,1.756427506,0,1,12,0,48,3,1,,,,,,,,,,,,,,
,,,,,,,,,,,left.png,,w,right,5cb34fdb9a26a300017302d8,2021-10-22_17h16.47.854,arrow_simon_punish,2021.1.2,Win32,60.12867537,,,,,,,,,,,,,,w,1,1.8392,1.915073116,1,1,12,1,49,3,1,,,,,,,,,,,,,,
,,,,,,,,,,,right.png,,p,right,5cb34fdb9a26a300017302d8,2021-10-22_17h16.47.854,arrow_simon_punish,2021.1.2,Win32,60.12867537,,,,,,,,,,,,,,p,1,1.1852,1.574449678,1,1,12,2,50,1,1,,,,,,,,,,,,,,
,,,,,,,,,,,right.png,,p,left,5cb34fdb9a26a300017302d8,2021-10-22_17h16.47.854,arrow_simon_punish,2021.1.2,Win32,60.12867537,,,,,,,,,,,,,,p,1,1.095,1.575296597,1,1,12,3,51,0,1,,,,,,,,,,,,,,
,,,,,,,,,,,right.png,,p,left,5cb34fdb9a26a300017302d8,2021-10-22_17h16.47.854,arrow_simon_punish,2021.1.2,Win32,60.12867537,,,,,,,,,,,,,,p,1,1.6675,2.091189933,1,1,13,0,52,0,1,,,,,,,,,,,,,,
,,,,,,,,,,,right.png,,p,left,5cb34fdb9a26a300017302d8,2021-10-22_17h16.47.854,arrow_simon_punish,2021.1.2,Win32,60.12867537,,,,,,,,,,,,,,p,1,1.8474,2.192978756,1,1,13,1,53,0,1,,,,,,,,,,,,,,
,,,,,,,,,,,right.png,,p,left,5cb34fdb9a26a300017302d8,2021-10-22_17h16.47.854,arrow_simon_punish,2021.1.2,Win32,60.12867537,,,,,,,,,,,,,,p,1,1.2088,1.619352981,1,1,13,2,54,0,1,,,,,,,,,,,,,,
,,,,,,,,,,,left.png,,w,left,5cb34fdb9a26a300017302d8,2021-10-22_17h16.47.854,arrow_simon_punish,2021.1.2,Win32,60.12867537,,,,,,,,,,,,,,w,1,1.4975,2.047657805,0,1,13,3,55,2,1,,,,,,,,,,,,,,
,,,,,,,,,,,right.png,,p,right,5cb34fdb9a26a300017302d8,2021-10-22_17h16.47.854,arrow_simon_punish,2021.1.2,Win32,60.12867537,,,,,,,,,,,,,,p,1,1.0516,1.663338072,1,1,14,0,56,1,1,,,,,,,,,,,,,,
,,,,,,,,,,,right.png,,p,right,5cb34fdb9a26a300017302d8,2021-10-22_17h16.47.854,arrow_simon_punish,2021.1.2,Win32,60.12867537,,,,,,,,,,,,,,p,1,1.0444,1.603097287,1,1,14,1,57,1,1,,,,,,,,,,,,,,
,,,,,,,,,,,left.png,,w,right,5cb34fdb9a26a300017302d8,2021-10-22_17h16.47.854,arrow_simon_punish,2021.1.2,Win32,60.12867537,,,,,,,,,,,,,,w,1,1.8808,2.372163126,1,1,14,2,58,3,1,,,,,,,,,,,,,,
,,,,,,,,,,,right.png,,p,left,5cb34fdb9a26a300017302d8,2021-10-22_17h16.47.854,arrow_simon_punish,2021.1.2,Win32,60.12867537,,,,,,,,,,,,,,p,1,1.1334,1.677596245,1,1,14,3,59,0,1,,,,,,,,,,,,,,
,,,,,,,,,,,,,,,5cb34fdb9a26a300017302d8,2021-10-22_17h16.47.854,arrow_simon_punish,2021.1.2,Win32,60.12867537,,,,,,,,,,,,,,,,,,,,,,,,,space,13.2635,6,2,0,4,0,1,1,,,,,
,,,,,,,,,,,right.png,,p,left,5cb34fdb9a26a300017302d8,2021-10-22_17h16.47.854,arrow_simon_punish,2021.1.2,Win32,60.12867537,,,,,,,,,,,,,,p,1,2.0505,1.843057944,1,5,0,0,0,0,1,,,,,,,,,,,,,,
,,,,,,,,,,,left.png,,w,left,5cb34fdb9a26a300017302d8,2021-10-22_17h16.47.854,arrow_simon_punish,2021.1.2,Win32,60.12867537,,,,,,,,,,,,,,w,1,1.8059,1.961995581,1,5,0,1,1,2,1,,,,,,,,,,,,,,
,,,,,,,,,,,left.png,,w,left,5cb34fdb9a26a300017302d8,2021-10-22_17h16.47.854,arrow_simon_punish,2021.1.2,Win32,60.12867537,,,,,,,,,,,,,,w,1,1.9861,2.420855211,1,5,0,2,2,2,1,,,,,,,,,,,,,,
,,,,,,,,,,,left.png,,w,left,5cb34fdb9a26a300017302d8,2021-10-22_17h16.47.854,arrow_simon_punish,2021.1.2,Win32,60.12867537,,,,,,,,,,,,,,w,1,1.8361,1.529806866,1,5,0,3,3,2,1,,,,,,,,,,,,,,
,,,,,,,,,,,right.png,,p,left,5cb34fdb9a26a300017302d8,2021-10-22_17h16.47.854,arrow_simon_punish,2021.1.2,Win32,60.12867537,,,,,,,,,,,,,,p,1,2.0672,2.492802371,1,5,1,0,4,0,1,,,,,,,,,,,,,,
,,,,,,,,,,,left.png,,w,right,5cb34fdb9a26a300017302d8,2021-10-22_17h16.47.854,arrow_simon_punish,2021.1.2,Win32,60.12867537,,,,,,,,,,,,,,w,1,1.3225,1.744123465,1,5,1,1,5,3,1,,,,,,,,,,,,,,
,,,,,,,,,,,right.png,,p,right,5cb34fdb9a26a300017302d8,2021-10-22_17h16.47.854,arrow_simon_punish,2021.1.2,Win32,60.12867537,,,,,,,,,,,,,,p,1,1.8836,2.408314243,1,5,1,2,6,1,1,,,,,,,,,,,,,,
,,,,,,,,,,,right.png,,p,left,5cb34fdb9a26a300017302d8,2021-10-22_17h16.47.854,arrow_simon_punish,2021.1.2,Win32,60.12867537,,,,,,,,,,,,,,p,1,1.952,2.418822887,1,5,1,3,7,0,1,,,,,,,,,,,,,,
,,,,,,,,,,,left.png,,w,right,5cb34fdb9a26a300017302d8,2021-10-22_17h16.47.854,arrow_simon_punish,2021.1.2,Win32,60.12867537,,,,,,,,,,,,,,w,1,1.9303,1.959479475,1,5,2,0,8,3,1,,,,,,,,,,,,,,
,,,,,,,,,,,left.png,,w,left,5cb34fdb9a26a300017302d8,2021-10-22_17h16.47.854,arrow_simon_punish,2021.1.2,Win32,60.12867537,,,,,,,,,,,,,,w,1,1.8835,1.790089246,1,5,2,1,9,2,1,,,,,,,,,,,,,,
,,,,,,,,,,,right.png,,p,left,5cb34fdb9a26a300017302d8,2021-10-22_17h16.47.854,arrow_simon_punish,2021.1.2,Win32,60.12867537,,,,,,,,,,,,,,p,1,1.8544,2.084321107,1,5,2,2,10,0,1,,,,,,,,,,,,,,
,,,,,,,,,,,right.png,,p,left,5cb34fdb9a26a300017302d8,2021-10-22_17h16.47.854,arrow_simon_punish,2021.1.2,Win32,60.12867537,,,,,,,,,,,,,,p,1,2.0074,2.339876707,1,5,2,3,11,0,1,,,,,,,,,,,,,,
,,,,,,,,,,,left.png,,w,left,5cb34fdb9a26a300017302d8,2021-10-22_17h16.47.854,arrow_simon_punish,2021.1.2,Win32,60.12867537,,,,,,,,,,,,,,w,1,1.9195,2.294546851,1,5,3,0,12,2,1,,,,,,,,,,,,,,
,,,,,,,,,,,left.png,,w,right,5cb34fdb9a26a300017302d8,2021-10-22_17h16.47.854,arrow_simon_punish,2021.1.2,Win32,60.12867537,,,,,,,,,,,,,,p,0,1.8675,2.428648486,1,5,3,1,13,3,1,,,,,,,,,,,,,,
,,,,,,,,,,,right.png,,p,right,5cb34fdb9a26a300017302d8,2021-10-22_17h16.47.854,arrow_simon_punish,2021.1.2,Win32,60.12867537,,,,,,,,,,,,,,p,1,1.5251,2.12421902,0,5,3,2,14,1,1,,,,,,,,,,,,,,
,,,,,,,,,,,left.png,,w,left,5cb34fdb9a26a300017302d8,2021-10-22_17h16.47.854,arrow_simon_punish,2021.1.2,Win32,60.12867537,,,,,,,,,,,,,,w,1,1.1013,1.534206168,1,5,3,3,15,2,1,,,,,,,,,,,,,,
,,,,,,,,,,,left.png,,w,right,5cb34fdb9a26a300017302d8,2021-10-22_17h16.47.854,arrow_simon_punish,2021.1.2,Win32,60.12867537,,,,,,,,,,,,,,w,1,1.9606,1.777352343,1,5,4,0,16,3,1,,,,,,,,,,,,,,
,,,,,,,,,,,right.png,,p,right,5cb34fdb9a26a300017302d8,2021-10-22_17h16.47.854,arrow_simon_punish,2021.1.2,Win32,60.12867537,,,,,,,,,,,,,,p,1,1.8201,2.059569456,1,5,4,1,17,1,1,,,,,,,,,,,,,,
,,,,,,,,,,,right.png,,p,right,5cb34fdb9a26a300017302d8,2021-10-22_17h16.47.854,arrow_simon_punish,2021.1.2,Win32,60.12867537,,,,,,,,,,,,,,p,1,1.8005,1.996132816,1,5,4,2,18,1,1,,,,,,,,,,,,,,
,,,,,,,,,,,left.png,,w,right,5cb34fdb9a26a300017302d8,2021-10-22_17h16.47.854,arrow_simon_punish,2021.1.2,Win32,60.12867537,,,,,,,,,,,,,,w,1,1.9746,2.455045462,1,5,4,3,19,3,1,,,,,,,,,,,,,,
,,,,,,,,,,,left.png,,w,right,5cb34fdb9a26a300017302d8,2021-10-22_17h16.47.854,arrow_simon_punish,2021.1.2,Win32,60.12867537,,,,,,,,,,,,,,w,1,2.2074,2.410118129,1,5,5,0,20,3,1,,,,,,,,,,,,,,
,,,,,,,,,,,left.png,,w,right,5cb34fdb9a26a300017302d8,2021-10-22_17h16.47.854,arrow_simon_punish,2021.1.2,Win32,60.12867537,,,,,,,,,,,,,,w,1,1.8735,2.194787996,1,5,5,1,21,3,1,,,,,,,,,,,,,,
,,,,,,,,,,,left.png,,w,left,5cb34fdb9a26a300017302d8,2021-10-22_17h16.47.854,arrow_simon_punish,2021.1.2,Win32,60.12867537,,,,,,,,,,,,,,w,1,1.4287,1.515945746,0,5,5,2,22,2,1,,,,,,,,,,,,,,
,,,,,,,,,,,right.png,,p,right,5cb34fdb9a26a300017302d8,2021-10-22_17h16.47.854,arrow_simon_punish,2021.1.2,Win32,60.12867537,,,,,,,,,,,,,,p,1,1.8729,2.018250149,1,5,5,3,23,1,1,,,,,,,,,,,,,,
,,,,,,,,,,,right.png,,p,right,5cb34fdb9a26a300017302d8,2021-10-22_17h16.47.854,arrow_simon_punish,2021.1.2,Win32,60.12867537,,,,,,,,,,,,,,p,1,1.7704,1.859871717,1,5,6,0,24,1,1,,,,,,,,,,,,,,
,,,,,,,,,,,right.png,,p,right,5cb34fdb9a26a300017302d8,2021-10-22_17h16.47.854,arrow_simon_punish,2021.1.2,Win32,60.12867537,,,,,,,,,,,,,,p,1,1.801,1.833450433,1,5,6,1,25,1,1,,,,,,,,,,,,,,
,,,,,,,,,,,left.png,,w,left,5cb34fdb9a26a300017302d8,2021-10-22_17h16.47.854,arrow_simon_punish,2021.1.2,Win32,60.12867537,,,,,,,,,,,,,,w,1,1.8348,1.754630133,1,5,6,2,26,2,1,,,,,,,,,,,,,,
,,,,,,,,,,,right.png,,p,left,5cb34fdb9a26a300017302d8,2021-10-22_17h16.47.854,arrow_simon_punish,2021.1.2,Win32,60.12867537,,,,,,,,,,,,,,p,1,1.8505,2.008282022,1,5,6,3,27,0,1,,,,,,,,,,,,,,
,,,,,,,,,,,right.png,,p,right,5cb34fdb9a26a300017302d8,2021-10-22_17h16.47.854,arrow_simon_punish,2021.1.2,Win32,60.12867537,,,,,,,,,,,,,,p,1,1.8335,1.55817877,1,5,7,0,28,1,1,,,,,,,,,,,,,,
,,,,,,,,,,,left.png,,w,right,5cb34fdb9a26a300017302d8,2021-10-22_17h16.47.854,arrow_simon_punish,2021.1.2,Win32,60.12867537,,,,,,,,,,,,,,w,1,1.9832,2.296598327,1,5,7,1,29,3,1,,,,,,,,,,,,,,
,,,,,,,,,,,left.png,,w,left,5cb34fdb9a26a300017302d8,2021-10-22_17h16.47.854,arrow_simon_punish,2021.1.2,Win32,60.12867537,,,,,,,,,,,,,,w,1,2.0231,2.48374422,1,5,7,2,30,2,1,,,,,,,,,,,,,,
,,,,,,,,,,,left.png,,w,left,5cb34fdb9a26a300017302d8,2021-10-22_17h16.47.854,arrow_simon_punish,2021.1.2,Win32,60.12867537,,,,,,,,,,,,,,w,1,1.8335,1.795482843,1,5,7,3,31,2,1,,,,,,,,,,,,,,
,,,,,,,,,,,left.png,,w,left,5cb34fdb9a26a300017302d8,2021-10-22_17h16.47.854,arrow_simon_punish,2021.1.2,Win32,60.12867537,,,,,,,,,,,,,,w,1,1.8982,1.829682888,1,5,8,0,32,2,1,,,,,,,,,,,,,,
,,,,,,,,,,,right.png,,p,left,5cb34fdb9a26a300017302d8,2021-10-22_17h16.47.854,arrow_simon_punish,2021.1.2,Win32,60.12867537,,,,,,,,,,,,,,w,0,1.8983,2.432774502,1,5,8,1,33,0,1,,,,,,,,,,,,,,
,,,,,,,,,,,right.png,,p,left,5cb34fdb9a26a300017302d8,2021-10-22_17h16.47.854,arrow_simon_punish,2021.1.2,Win32,60.12867537,,,,,,,,,,,,,,p,1,1.8505,1.854059934,1,5,8,2,34,0,1,,,,,,,,,,,,,,
,,,,,,,,,,,left.png,,w,right,5cb34fdb9a26a300017302d8,2021-10-22_17h16.47.854,arrow_simon_punish,2021.1.2,Win32,60.12867537,,,,,,,,,,,,,,w,1,1.8921,2.242742625,1,5,8,3,35,3,1,,,,,,,,,,,,,,
,,,,,,,,,,,left.png,,w,right,5cb34fdb9a26a300017302d8,2021-10-22_17h16.47.854,arrow_simon_punish,2021.1.2,Win32,60.12867537,,,,,,,,,,,,,,w,1,1.7173,1.639309535,1,5,9,0,36,3,1,,,,,,,,,,,,,,
,,,,,,,,,,,right.png,,p,right,5cb34fdb9a26a300017302d8,2021-10-22_17h16.47.854,arrow_simon_punish,2021.1.2,Win32,60.12867537,,,,,,,,,,,,,,p,1,1.8054,1.75190473,1,5,9,1,37,1,1,,,,,,,,,,,,,,
,,,,,,,,,,,left.png,,w,left,5cb34fdb9a26a300017302d8,2021-10-22_17h16.47.854,arrow_simon_punish,2021.1.2,Win32,60.12867537,,,,,,,,,,,,,,w,1,1.7529,1.72924156,1,5,9,2,38,2,1,,,,,,,,,,,,,,
,,,,,,,,,,,left.png,,w,right,5cb34fdb9a26a300017302d8,2021-10-22_17h16.47.854,arrow_simon_punish,2021.1.2,Win32,60.12867537,,,,,,,,,,,,,,w,1,1.8869,1.856643792,1,5,9,3,39,3,1,,,,,,,,,,,,,,
,,,,,,,,,,,left.png,,w,right,5cb34fdb9a26a300017302d8,2021-10-22_17h16.47.854,arrow_simon_punish,2021.1.2,Win32,60.12867537,,,,,,,,,,,,,,p,0,1.8543,2.174386667,1,5,10,0,40,3,1,,,,,,,,,,,,,,
,,,,,,,,,,,left.png,,w,right,5cb34fdb9a26a300017302d8,2021-10-22_17h16.47.854,arrow_simon_punish,2021.1.2,Win32,60.12867537,,,,,,,,,,,,,,w,1,2.2953,2.483820268,1,5,10,1,41,3,1,,,,,,,,,,,,,,
,,,,,,,,,,,right.png,,p,right,5cb34fdb9a26a300017302d8,2021-10-22_17h16.47.854,arrow_simon_punish,2021.1.2,Win32,60.12867537,,,,,,,,,,,,,,p,1,1.9338,2.259523858,1,5,10,2,42,1,1,,,,,,,,,,,,,,
,,,,,,,,,,,right.png,,p,right,5cb34fdb9a26a300017302d8,2021-10-22_17h16.47.854,arrow_simon_punish,2021.1.2,Win32,60.12867537,,,,,,,,,,,,,,p,1,1.7792,1.531432649,1,5,10,3,43,1,1,,,,,,,,,,,,,,
,,,,,,,,,,,left.png,,w,right,5cb34fdb9a26a300017302d8,2021-10-22_17h16.47.854,arrow_simon_punish,2021.1.2,Win32,60.12867537,,,,,,,,,,,,,,w,1,1.9336,2.363659762,1,5,11,0,44,3,1,,,,,,,,,,,,,,
,,,,,,,,,,,right.png,,p,right,5cb34fdb9a26a300017302d8,2021-10-22_17h16.47.854,arrow_simon_punish,2021.1.2,Win32,60.12867537,,,,,,,,,,,,,,p,1,1.8944,2.308197908,1,5,11,1,45,1,1,,,,,,,,,,,,,,
,,,,,,,,,,,right.png,,p,left,5cb34fdb9a26a300017302d8,2021-10-22_17h16.47.854,arrow_simon_punish,2021.1.2,Win32,60.12867537,,,,,,,,,,,,,,p,1,1.8634,1.970163834,1,5,11,2,46,0,1,,,,,,,,,,,,,,
,,,,,,,,,,,right.png,,p,right,5cb34fdb9a26a300017302d8,2021-10-22_17h16.47.854,arrow_simon_punish,2021.1.2,Win32,60.12867537,,,,,,,,,,,,,,p,1,1.8734,2.284620785,1,5,11,3,47,1,1,,,,,,,,,,,,,,
,,,,,,,,,,,right.png,,p,left,5cb34fdb9a26a300017302d8,2021-10-22_17h16.47.854,arrow_simon_punish,2021.1.2,Win32,60.12867537,,,,,,,,,,,,,,p,1,1.8378,2.147528831,1,5,12,0,48,0,1,,,,,,,,,,,,,,
,,,,,,,,,,,left.png,,w,left,5cb34fdb9a26a300017302d8,2021-10-22_17h16.47.854,arrow_simon_punish,2021.1.2,Win32,60.12867537,,,,,,,,,,,,,,w,1,1.8473,2.185043496,1,5,12,1,49,2,1,,,,,,,,,,,,,,
,,,,,,,,,,,right.png,,p,left,5cb34fdb9a26a300017302d8,2021-10-22_17h16.47.854,arrow_simon_punish,2021.1.2,Win32,60.12867537,,,,,,,,,,,,,,p,1,1.7996,1.943192227,1,5,12,2,50,0,1,,,,,,,,,,,,,,
,,,,,,,,,,,right.png,,p,right,5cb34fdb9a26a300017302d8,2021-10-22_17h16.47.854,arrow_simon_punish,2021.1.2,Win32,60.12867537,,,,,,,,,,,,,,p,1,1.8037,1.949908608,1,5,12,3,51,1,1,,,,,,,,,,,,,,
,,,,,,,,,,,left.png,,w,right,5cb34fdb9a26a300017302d8,2021-10-22_17h16.47.854,arrow_simon_punish,2021.1.2,Win32,60.12867537,,,,,,,,,,,,,,w,1,1.8157,1.682798541,1,5,13,0,52,3,1,,,,,,,,,,,,,,
,,,,,,,,,,,right.png,,p,left,5cb34fdb9a26a300017302d8,2021-10-22_17h16.47.854,arrow_simon_punish,2021.1.2,Win32,60.12867537,,,,,,,,,,,,,,p,1,1.7553,1.935508929,1,5,13,1,53,0,1,,,,,,,,,,,,,,
,,,,,,,,,,,right.png,,p,left,5cb34fdb9a26a300017302d8,2021-10-22_17h16.47.854,arrow_simon_punish,2021.1.2,Win32,60.12867537,,,,,,,,,,,,,,p,1,1.8035,1.934957431,1,5,13,2,54,0,1,,,,,,,,,,,,,,
,,,,,,,,,,,left.png,,w,left,5cb34fdb9a26a300017302d8,2021-10-22_17h16.47.854,arrow_simon_punish,2021.1.2,Win32,60.12867537,,,,,,,,,,,,,,w,1,1.6738,2.179081976,1,5,13,3,55,2,1,,,,,,,,,,,,,,
,,,,,,,,,,,right.png,,p,left,5cb34fdb9a26a300017302d8,2021-10-22_17h16.47.854,arrow_simon_punish,2021.1.2,Win32,60.12867537,,,,,,,,,,,,,,p,1,1.7546,2.001020851,1,5,14,0,56,0,1,,,,,,,,,,,,,,
,,,,,,,,,,,right.png,,p,right,5cb34fdb9a26a300017302d8,2021-10-22_17h16.47.854,arrow_simon_punish,2021.1.2,Win32,60.12867537,,,,,,,,,,,,,,p,1,1.5016,2.035901406,0,5,14,1,57,1,1,,,,,,,,,,,,,,
,,,,,,,,,,,right.png,,p,left,5cb34fdb9a26a300017302d8,2021-10-22_17h16.47.854,arrow_simon_punish,2021.1.2,Win32,60.12867537,,,,,,,,,,,,,,p,1,1.7533,1.56454062,1,5,14,2,58,0,1,,,,,,,,,,,,,,
,,,,,,,,,,,left.png,,w,left,5cb34fdb9a26a300017302d8,2021-10-22_17h16.47.854,arrow_simon_punish,2021.1.2,Win32,60.12867537,,,,,,,,,,,,,,w,1,1.2664,1.840969689,1,5,14,3,59,2,1,,,,,,,,,,,,,,
,,,,,,,,,,,,,,,5cb34fdb9a26a300017302d8,2021-10-22_17h16.47.854,arrow_simon_punish,2021.1.2,Win32,60.12867537,,,,,,,,,,,,,,,,,,,,,,,,,space,2.4555,7,2,1,5,1,1,5,,,,,
,,,,,,,,,,,left.png,,w,right,5cb34fdb9a26a300017302d8,2021-10-22_17h16.47.854,arrow_simon_punish,2021.1.2,Win32,60.12867537,,,,,,,,,,,,,,w,1,1.8586,2.087189493,1,1,0,0,0,3,1,,,,,,,,,,,,,,
,,,,,,,,,,,left.png,,w,left,5cb34fdb9a26a300017302d8,2021-10-22_17h16.47.854,arrow_simon_punish,2021.1.2,Win32,60.12867537,,,,,,,,,,,,,,w,1,1.0861,1.578486892,1,1,0,1,1,2,1,,,,,,,,,,,,,,
,,,,,,,,,,,left.png,,w,left,5cb34fdb9a26a300017302d8,2021-10-22_17h16.47.854,arrow_simon_punish,2021.1.2,Win32,60.12867537,,,,,,,,,,,,,,w,1,1.5571,2.067729502,0,1,0,2,2,2,1,,,,,,,,,,,,,,
,,,,,,,,,,,left.png,,w,right,5cb34fdb9a26a300017302d8,2021-10-22_17h16.47.854,arrow_simon_punish,2021.1.2,Win32,60.12867537,,,,,,,,,,,,,,w,1,1.3961,1.517846471,1,1,0,3,3,3,1,,,,,,,,,,,,,,
,,,,,,,,,,,right.png,,p,left,5cb34fdb9a26a300017302d8,2021-10-22_17h16.47.854,arrow_simon_punish,2021.1.2,Win32,60.12867537,,,,,,,,,,,,,,p,1,1.9322,2.143633429,1,1,1,0,4,0,1,,,,,,,,,,,,,,
,,,,,,,,,,,right.png,,p,left,5cb34fdb9a26a300017302d8,2021-10-22_17h16.47.854,arrow_simon_punish,2021.1.2,Win32,60.12867537,,,,,,,,,,,,,,p,1,1.8563,2.297089447,1,1,1,1,5,0,1,,,,,,,,,,,,,,
,,,,,,,,,,,left.png,,w,right,5cb34fdb9a26a300017302d8,2021-10-22_17h16.47.854,arrow_simon_punish,2021.1.2,Win32,60.12867537,,,,,,,,,,,,,,w,1,1.9154,2.185050255,1,1,1,2,6,3,1,,,,,,,,,,,,,,
,,,,,,,,,,,left.png,,w,left,5cb34fdb9a26a300017302d8,2021-10-22_17h16.47.854,arrow_simon_punish,2021.1.2,Win32,60.12867537,,,,,,,,,,,,,,w,1,1.9679,1.826615652,1,1,1,3,7,2,1,,,,,,,,,,,,,,
,,,,,,,,,,,right.png,,p,right,5cb34fdb9a26a300017302d8,2021-10-22_17h16.47.854,arrow_simon_punish,2021.1.2,Win32,60.12867537,,,,,,,,,,,,,,p,1,2.0119,2.37109866,1,1,2,0,8,1,1,,,,,,,,,,,,,,
,,,,,,,,,,,right.png,,p,right,5cb34fdb9a26a300017302d8,2021-10-22_17h16.47.854,arrow_simon_punish,2021.1.2,Win32,60.12867537,,,,,,,,,,,,,,p,1,1.6841,1.742675257,1,1,2,1,9,1,1,,,,,,,,,,,,,,
,,,,,,,,,,,left.png,,w,left,5cb34fdb9a26a300017302d8,2021-10-22_17h16.47.854,arrow_simon_punish,2021.1.2,Win32,60.12867537,,,,,,,,,,,,,,w,1,1.9498,1.985947353,1,1,2,2,10,2,1,,,,,,,,,,,,,,
,,,,,,,,,,,left.png,,w,right,5cb34fdb9a26a300017302d8,2021-10-22_17h16.47.854,arrow_simon_punish,2021.1.2,Win32,60.12867537,,,,,,,,,,,,,,w,1,1.9046,2.0403611,1,1,2,3,11,3,1,,,,,,,,,,,,,,
,,,,,,,,,,,left.png,,w,left,5cb34fdb9a26a300017302d8,2021-10-22_17h16.47.854,arrow_simon_punish,2021.1.2,Win32,60.12867537,,,,,,,,,,,,,,w,1,1.9849,2.171756134,1,1,3,0,12,2,1,,,,,,,,,,,,,,
,,,,,,,,,,,right.png,,p,right,5cb34fdb9a26a300017302d8,2021-10-22_17h16.47.854,arrow_simon_punish,2021.1.2,Win32,60.12867537,,,,,,,,,,,,,,p,1,1.9167,2.249263639,1,1,3,1,13,1,1,,,,,,,,,,,,,,
,,,,,,,,,,,right.png,,p,right,5cb34fdb9a26a300017302d8,2021-10-22_17h16.47.854,arrow_simon_punish,2021.1.2,Win32,60.12867537,,,,,,,,,,,,,,p,1,1.8867,1.62953202,1,1,3,2,14,1,1,,,,,,,,,,,,,,
,,,,,,,,,,,right.png,,p,right,5cb34fdb9a26a300017302d8,2021-10-22_17h16.47.854,arrow_simon_punish,2021.1.2,Win32,60.12867537,,,,,,,,,,,,,,p,1,2.0353,2.385176817,1,1,3,3,15,1,1,,,,,,,,,,,,,,
,,,,,,,,,,,right.png,,p,left,5cb34fdb9a26a300017302d8,2021-10-22_17h16.47.854,arrow_simon_punish,2021.1.2,Win32,60.12867537,,,,,,,,,,,,,,p,1,1.5599,1.531957012,0,1,4,0,16,0,1,,,,,,,,,,,,,,
,,,,,,,,,,,left.png,,w,right,5cb34fdb9a26a300017302d8,2021-10-22_17h16.47.854,arrow_simon_punish,2021.1.2,Win32,60.12867537,,,,,,,,,,,,,,w,1,2.1467,2.409583468,1,1,4,1,17,3,1,,,,,,,,,,,,,,
,,,,,,,,,,,right.png,,p,left,5cb34fdb9a26a300017302d8,2021-10-22_17h16.47.854,arrow_simon_punish,2021.1.2,Win32,60.12867537,,,,,,,,,,,,,,p,1,2.1831,1.879689814,1,1,4,2,18,0,1,,,,,,,,,,,,,,
,,,,,,,,,,,right.png,,p,left,5cb34fdb9a26a300017302d8,2021-10-22_17h16.47.854,arrow_simon_punish,2021.1.2,Win32,60.12867537,,,,,,,,,,,,,,p,1,1.947,2.010596851,1,1,4,3,19,0,1,,,,,,,,,,,,,,
,,,,,,,,,,,right.png,,p,right,5cb34fdb9a26a300017302d8,2021-10-22_17h16.47.854,arrow_simon_punish,2021.1.2,Win32,60.12867537,,,,,,,,,,,,,,p,1,2.0855,2.357364378,1,1,5,0,20,1,1,,,,,,,,,,,,,,
,,,,,,,,,,,right.png,,p,right,5cb34fdb9a26a300017302d8,2021-10-22_17h16.47.854,arrow_simon_punish,2021.1.2,Win32,60.12867537,,,,,,,,,,,,,,p,1,1.6988,2.028120785,1,1,5,1,21,1,1,,,,,,,,,,,,,,
,,,,,,,,,,,left.png,,w,right,5cb34fdb9a26a300017302d8,2021-10-22_17h16.47.854,arrow_simon_punish,2021.1.2,Win32,60.12867537,,,,,,,,,,,,,,w,1,1.8038,1.772229506,1,1,5,2,22,3,1,,,,,,,,,,,,,,
,,,,,,,,,,,left.png,,w,left,5cb34fdb9a26a300017302d8,2021-10-22_17h16.47.854,arrow_simon_punish,2021.1.2,Win32,60.12867537,,,,,,,,,,,,,,w,1,1.8164,1.810803559,1,1,5,3,23,2,1,,,,,,,,,,,,,,
,,,,,,,,,,,right.png,,p,left,5cb34fdb9a26a300017302d8,2021-10-22_17h16.47.854,arrow_simon_punish,2021.1.2,Win32,60.12867537,,,,,,,,,,,,,,p,1,1.89,2.262373211,1,1,6,0,24,0,1,,,,,,,,,,,,,,
,,,,,,,,,,,left.png,,w,right,5cb34fdb9a26a300017302d8,2021-10-22_17h16.47.854,arrow_simon_punish,2021.1.2,Win32,60.12867537,,,,,,,,,,,,,,w,1,1.9495,1.83967308,1,1,6,1,25,3,1,,,,,,,,,,,,,,
,,,,,,,,,,,right.png,,p,left,5cb34fdb9a26a300017302d8,2021-10-22_17h16.47.854,arrow_simon_punish,2021.1.2,Win32,60.12867537,,,,,,,,,,,,,,p,1,1.9064,1.983582684,1,1,6,2,26,0,1,,,,,,,,,,,,,,
,,,,,,,,,,,left.png,,w,right,5cb34fdb9a26a300017302d8,2021-10-22_17h16.47.854,arrow_simon_punish,2021.1.2,Win32,60.12867537,,,,,,,,,,,,,,w,1,2.0309,2.293320409,1,1,6,3,27,3,1,,,,,,,,,,,,,,
,,,,,,,,,,,right.png,,p,right,5cb34fdb9a26a300017302d8,2021-10-22_17h16.47.854,arrow_simon_punish,2021.1.2,Win32,60.12867537,,,,,,,,,,,,,,p,1,1.7834,1.699433667,1,1,7,0,28,1,1,,,,,,,,,,,,,,
,,,,,,,,,,,left.png,,w,right,5cb34fdb9a26a300017302d8,2021-10-22_17h16.47.854,arrow_simon_punish,2021.1.2,Win32,60.12867537,,,,,,,,,,,,,,w,1,2.1205,2.433540302,1,1,7,1,29,3,1,,,,,,,,,,,,,,
,,,,,,,,,,,right.png,,p,right,5cb34fdb9a26a300017302d8,2021-10-22_17h16.47.854,arrow_simon_punish,2021.1.2,Win32,60.12867537,,,,,,,,,,,,,,p,1,3.0026,1.504975544,1,1,7,2,30,1,1,,,,,,,,,,,,,,
,,,,,,,,,,,left.png,,w,left,5cb34fdb9a26a300017302d8,2021-10-22_17h16.47.854,arrow_simon_punish,2021.1.2,Win32,60.12867537,,,,,,,,,,,,,,w,1,1.8141,1.811521727,1,1,7,3,31,2,1,,,,,,,,,,,,,,
,,,,,,,,,,,right.png,,p,right,5cb34fdb9a26a300017302d8,2021-10-22_17h16.47.854,arrow_simon_punish,2021.1.2,Win32,60.12867537,,,,,,,,,,,,,,p,1,2.0968,1.813688974,1,1,8,0,32,1,1,,,,,,,,,,,,,,
,,,,,,,,,,,left.png,,w,right,5cb34fdb9a26a300017302d8,2021-10-22_17h16.47.854,arrow_simon_punish,2021.1.2,Win32,60.12867537,,,,,,,,,,,,,,w,1,1.9145,2.054704225,1,1,8,1,33,3,1,,,,,,,,,,,,,,
,,,,,,,,,,,right.png,,p,left,5cb34fdb9a26a300017302d8,2021-10-22_17h16.47.854,arrow_simon_punish,2021.1.2,Win32,60.12867537,,,,,,,,,,,,,,p,1,2.1475,1.568843779,1,1,8,2,34,0,1,,,,,,,,,,,,,,
,,,,,,,,,,,left.png,,w,left,5cb34fdb9a26a300017302d8,2021-10-22_17h16.47.854,arrow_simon_punish,2021.1.2,Win32,60.12867537,,,,,,,,,,,,,,w,1,2.0583,2.402047278,1,1,8,3,35,2,1,,,,,,,,,,,,,,
,,,,,,,,,,,right.png,,p,left,5cb34fdb9a26a300017302d8,2021-10-22_17h16.47.854,arrow_simon_punish,2021.1.2,Win32,60.12867537,,,,,,,,,,,,,,p,1,1.9645,1.660517682,1,1,9,0,36,0,1,,,,,,,,,,,,,,
,,,,,,,,,,,right.png,,p,right,5cb34fdb9a26a300017302d8,2021-10-22_17h16.47.854,arrow_simon_punish,2021.1.2,Win32,60.12867537,,,,,,,,,,,,,,p,1,1.8027,1.748424397,1,1,9,1,37,1,1,,,,,,,,,,,,,,
,,,,,,,,,,,left.png,,w,right,5cb34fdb9a26a300017302d8,2021-10-22_17h16.47.854,arrow_simon_punish,2021.1.2,Win32,60.12867537,,,,,,,,,,,,,,w,1,1.8893,1.56229739,1,1,9,2,38,3,1,,,,,,,,,,,,,,
,,,,,,,,,,,right.png,,p,left,5cb34fdb9a26a300017302d8,2021-10-22_17h16.47.854,arrow_simon_punish,2021.1.2,Win32,60.12867537,,,,,,,,,,,,,,p,1,2.0854,2.233015318,1,1,9,3,39,0,1,,,,,,,,,,,,,,
,,,,,,,,,,,left.png,,w,left,5cb34fdb9a26a300017302d8,2021-10-22_17h16.47.854,arrow_simon_punish,2021.1.2,Win32,60.12867537,,,,,,,,,,,,,,w,1,2.2879,2.349161264,1,1,10,0,40,2,1,,,,,,,,,,,,,,
,,,,,,,,,,,left.png,,w,left,5cb34fdb9a26a300017302d8,2021-10-22_17h16.47.854,arrow_simon_punish,2021.1.2,Win32,60.12867537,,,,,,,,,,,,,,w,1,2.1547,2.420959233,1,1,10,1,41,2,1,,,,,,,,,,,,,,
,,,,,,,,,,,left.png,,w,right,5cb34fdb9a26a300017302d8,2021-10-22_17h16.47.854,arrow_simon_punish,2021.1.2,Win32,60.12867537,,,,,,,,,,,,,,w,1,2.1206,2.378779103,1,1,10,2,42,3,1,,,,,,,,,,,,,,
,,,,,,,,,,,left.png,,w,left,5cb34fdb9a26a300017302d8,2021-10-22_17h16.47.854,arrow_simon_punish,2021.1.2,Win32,60.12867537,,,,,,,,,,,,,,w,1,2.5159,1.976584286,1,1,10,3,43,2,1,,,,,,,,,,,,,,
,,,,,,,,,,,left.png,,w,left,5cb34fdb9a26a300017302d8,2021-10-22_17h16.47.854,arrow_simon_punish,2021.1.2,Win32,60.12867537,,,,,,,,,,,,,,w,1,2.0122,2.452343316,1,1,11,0,44,2,1,,,,,,,,,,,,,,
,,,,,,,,,,,left.png,,w,left,5cb34fdb9a26a300017302d8,2021-10-22_17h16.47.854,arrow_simon_punish,2021.1.2,Win32,60.12867537,,,,,,,,,,,,,,w,1,1.8642,2.096613891,1,1,11,1,45,2,1,,,,,,,,,,,,,,
,,,,,,,,,,,left.png,,w,right,5cb34fdb9a26a300017302d8,2021-10-22_17h16.47.854,arrow_simon_punish,2021.1.2,Win32,60.12867537,,,,,,,,,,,,,,p,0,1.0269,1.593585373,1,1,11,2,46,3,1,,,,,,,,,,,,,,
,,,,,,,,,,,right.png,,p,right,5cb34fdb9a26a300017302d8,2021-10-22_17h16.47.854,arrow_simon_punish,2021.1.2,Win32,60.12867537,,,,,,,,,,,,,,p,1,1.9259,2.456110047,1,1,11,3,47,1,1,,,,,,,,,,,,,,
,,,,,,,,,,,right.png,,p,left,5cb34fdb9a26a300017302d8,2021-10-22_17h16.47.854,arrow_simon_punish,2021.1.2,Win32,60.12867537,,,,,,,,,,,,,,p,1,2.2669,2.390789515,1,1,12,0,48,0,1,,,,,,,,,,,,,,
,,,,,,,,,,,right.png,,p,left,5cb34fdb9a26a300017302d8,2021-10-22_17h16.47.854,arrow_simon_punish,2021.1.2,Win32,60.12867537,,,,,,,,,,,,,,p,1,1.2908,1.598853758,1,1,12,1,49,0,1,,,,,,,,,,,,,,
,,,,,,,,,,,left.png,,w,left,5cb34fdb9a26a300017302d8,2021-10-22_17h16.47.854,arrow_simon_punish,2021.1.2,Win32,60.12867537,,,,,,,,,,,,,,w,1,1.5182,1.869816379,0,1,12,2,50,2,1,,,,,,,,,,,,,,
,,,,,,,,,,,right.png,,p,left,5cb34fdb9a26a300017302d8,2021-10-22_17h16.47.854,arrow_simon_punish,2021.1.2,Win32,60.12867537,,,,,,,,,,,,,,p,1,1.8801,1.87202578,1,1,12,3,51,0,1,,,,,,,,,,,,,,
,,,,,,,,,,,right.png,,p,left,5cb34fdb9a26a300017302d8,2021-10-22_17h16.47.854,arrow_simon_punish,2021.1.2,Win32,60.12867537,,,,,,,,,,,,,,p,1,1.9086,2.290451282,1,1,13,0,52,0,1,,,,,,,,,,,,,,
,,,,,,,,,,,left.png,,w,right,5cb34fdb9a26a300017302d8,2021-10-22_17h16.47.854,arrow_simon_punish,2021.1.2,Win32,60.12867537,,,,,,,,,,,,,,w,1,1.9532,2.260796911,1,1,13,1,53,3,1,,,,,,,,,,,,,,
,,,,,,,,,,,left.png,,w,left,5cb34fdb9a26a300017302d8,2021-10-22_17h16.47.854,arrow_simon_punish,2021.1.2,Win32,60.12867537,,,,,,,,,,,,,,w,1,1.9454,2.167114345,1,1,13,2,54,2,1,,,,,,,,,,,,,,
,,,,,,,,,,,right.png,,p,right,5cb34fdb9a26a300017302d8,2021-10-22_17h16.47.854,arrow_simon_punish,2021.1.2,Win32,60.12867537,,,,,,,,,,,,,,p,1,1.7075,2.155028309,1,1,13,3,55,1,1,,,,,,,,,,,,,,
,,,,,,,,,,,right.png,,p,left,5cb34fdb9a26a300017302d8,2021-10-22_17h16.47.854,arrow_simon_punish,2021.1.2,Win32,60.12867537,,,,,,,,,,,,,,p,1,1.7863,1.742287938,1,1,14,0,56,0,1,,,,,,,,,,,,,,
,,,,,,,,,,,right.png,,p,right,5cb34fdb9a26a300017302d8,2021-10-22_17h16.47.854,arrow_simon_punish,2021.1.2,Win32,60.12867537,,,,,,,,,,,,,,p,1,1.8847,1.846743161,1,1,14,1,57,1,1,,,,,,,,,,,,,,
,,,,,,,,,,,left.png,,w,right,5cb34fdb9a26a300017302d8,2021-10-22_17h16.47.854,arrow_simon_punish,2021.1.2,Win32,60.12867537,,,,,,,,,,,,,,w,1,1.8669,1.734721764,1,1,14,2,58,3,1,,,,,,,,,,,,,,
,,,,,,,,,,,right.png,,p,right,5cb34fdb9a26a300017302d8,2021-10-22_17h16.47.854,arrow_simon_punish,2021.1.2,Win32,60.12867537,,,,,,,,,,,,,,p,1,1.9466,2.362446638,1,1,14,3,59,1,1,,,,,,,,,,,,,,
,,,,,,,,,,,,,,,5cb34fdb9a26a300017302d8,2021-10-22_17h16.47.854,arrow_simon_punish,2021.1.2,Win32,60.12867537,,,,,,,,,,,,,,,,,,,,,,,,,space,5.486,8,3,0,6,0,1,1,,,,,
,,,,,,,,,,,right.png,,p,right,5cb34fdb9a26a300017302d8,2021-10-22_17h16.47.854,arrow_simon_punish,2021.1.2,Win32,60.12867537,,,,,,,,,,,,,,p,1,1.8741,2.427620674,1,5,0,0,0,1,1,,,,,,,,,,,,,,
,,,,,,,,,,,right.png,,p,left,5cb34fdb9a26a300017302d8,2021-10-22_17h16.47.854,arrow_simon_punish,2021.1.2,Win32,60.12867537,,,,,,,,,,,,,,w,0,2.2541,1.620236593,1,5,0,1,1,0,1,,,,,,,,,,,,,,
,,,,,,,,,,,right.png,,p,right,5cb34fdb9a26a300017302d8,2021-10-22_17h16.47.854,arrow_simon_punish,2021.1.2,Win32,60.12867537,,,,,,,,,,,,,,p,1,2.19,2.41477632,1,5,0,2,2,1,1,,,,,,,,,,,,,,
,,,,,,,,,,,right.png,,p,right,5cb34fdb9a26a300017302d8,2021-10-22_17h16.47.854,arrow_simon_punish,2021.1.2,Win32,60.12867537,,,,,,,,,,,,,,p,1,2.0532,2.327770109,1,5,0,3,3,1,1,,,,,,,,,,,,,,
,,,,,,,,,,,left.png,,w,right,5cb34fdb9a26a300017302d8,2021-10-22_17h16.47.854,arrow_simon_punish,2021.1.2,Win32,60.12867537,,,,,,,,,,,,,,w,1,2.0676,2.464618884,1,5,1,0,4,3,1,,,,,,,,,,,,,,
,,,,,,,,,,,left.png,,w,right,5cb34fdb9a26a300017302d8,2021-10-22_17h16.47.854,arrow_simon_punish,2021.1.2,Win32,60.12867537,,,,,,,,,,,,,,w,1,2.1229,1.61391367,1,5,1,1,5,3,1,,,,,,,,,,,,,,
,,,,,,,,,,,left.png,,w,left,5cb34fdb9a26a300017302d8,2021-10-22_17h16.47.854,arrow_simon_punish,2021.1.2,Win32,60.12867537,,,,,,,,,,,,,,w,1,2.5695,1.696657933,1,5,1,2,6,2,1,,,,,,,,,,,,,,
,,,,,,,,,,,left.png,,w,right,5cb34fdb9a26a300017302d8,2021-10-22_17h16.47.854,arrow_simon_punish,2021.1.2,Win32,60.12867537,,,,,,,,,,,,,,w,1,1.9176,1.950886599,1,5,1,3,7,3,1,,,,,,,,,,,,,,
