instruct_resp_simon.keys,instruct_resp_simon.corr,instruct_resp_simon.rt,trial_resp_simon.keys,trial_resp_simon.corr,trial_resp_simon.rt,trials_train_simon.thisRepN,trials_train_simon.thisTrialN,trials_train_simon.thisN,trials_train_simon.thisIndex,trials_train_simon.ran,target_file,target_pos,target_resp,target_side,participant,date,expName,psychopyVersion,OS,frameRate,instruct_resp_timing.keys,instruct_resp_timing.corr,instruct_resp_timing.rt,trial_resp_timing.keys,trial_resp_timing.rt,trials_train_timing.thisRepN,trials_train_timing.thisTrialN,trials_train_timing.thisN,trials_train_timing.thisIndex,trials_train_timing.ran,instruct_resp.keys,instruct_resp.corr,instruct_resp.rt,trial_resp.keys,trial_resp.corr,trial_resp.rt,target_onset,err,pun,trials.thisRepN,trials.thisTrialN,trials.thisN,trials.thisIndex,trials.ran,block_note_resp.keys,block_note_resp.rt,block_num,blocks.thisRepN,blocks.thisTrialN,blocks.thisN,blocks.thisIndex,blocks.ran,punish,complete_resp.keys,complete_resp.rt,raffle_trial,raffle_err,raffle_rew
space,0,66.6034,w,1,1.6033,0,0,0,3,1,left.png,,w,right,5cba50bf114fa5001aac5570,2021-10-22_16h59.49.576,arrow_simon_punish,2021.1.2,Win32,60.08893162,,,,,,,,,,,,,,,,,,,,,,,,,,,,,,,,,,,,,,
,,,p,1,1.2525,0,1,1,0,1,right.png,,p,left,5cba50bf114fa5001aac5570,2021-10-22_16h59.49.576,arrow_simon_punish,2021.1.2,Win32,60.08893162,,,,,,,,,,,,,,,,,,,,,,,,,,,,,,,,,,,,,,
,,,w,1,1.0507,0,2,2,2,1,left.png,,w,left,5cba50bf114fa5001aac5570,2021-10-22_16h59.49.576,arrow_simon_punish,2021.1.2,Win32,60.08893162,,,,,,,,,,,,,,,,,,,,,,,,,,,,,,,,,,,,,,
,,,p,1,1.194,0,3,3,1,1,right.png,,p,right,5cba50bf114fa5001aac5570,2021-10-22_16h59.49.576,arrow_simon_punish,2021.1.2,Win32,60.08893162,,,,,,,,,,,,,,,,,,,,,,,,,,,,,,,,,,,,,,
,,,p,1,1.5764,1,0,4,1,1,right.png,,p,right,5cba50bf114fa5001aac5570,2021-10-22_16h59.49.576,arrow_simon_punish,2021.1.2,Win32,60.08893162,,,,,,,,,,,,,,,,,,,,,,,,,,,,,,,,,,,,,,
,,,w,1,1.255,1,1,5,2,1,left.png,,w,left,5cba50bf114fa5001aac5570,2021-10-22_16h59.49.576,arrow_simon_punish,2021.1.2,Win32,60.08893162,,,,,,,,,,,,,,,,,,,,,,,,,,,,,,,,,,,,,,
,,,w,1,1.2692,1,2,6,3,1,left.png,,w,right,5cba50bf114fa5001aac5570,2021-10-22_16h59.49.576,arrow_simon_punish,2021.1.2,Win32,60.08893162,,,,,,,,,,,,,,,,,,,,,,,,,,,,,,,,,,,,,,
,,,p,1,0.9947,1,3,7,0,1,right.png,,p,left,5cba50bf114fa5001aac5570,2021-10-22_16h59.49.576,arrow_simon_punish,2021.1.2,Win32,60.08893162,,,,,,,,,,,,,,,,,,,,,,,,,,,,,,,,,,,,,,
,,,p,1,1.2399,2,0,8,0,1,right.png,,p,left,5cba50bf114fa5001aac5570,2021-10-22_16h59.49.576,arrow_simon_punish,2021.1.2,Win32,60.08893162,,,,,,,,,,,,,,,,,,,,,,,,,,,,,,,,,,,,,,
,,,p,1,1.0105,2,1,9,1,1,right.png,,p,right,5cba50bf114fa5001aac5570,2021-10-22_16h59.49.576,arrow_simon_punish,2021.1.2,Win32,60.08893162,,,,,,,,,,,,,,,,,,,,,,,,,,,,,,,,,,,,,,
,,,w,1,1.5227,2,2,10,3,1,left.png,,w,right,5cba50bf114fa5001aac5570,2021-10-22_16h59.49.576,arrow_simon_punish,2021.1.2,Win32,60.08893162,,,,,,,,,,,,,,,,,,,,,,,,,,,,,,,,,,,,,,
,,,w,1,1.8077,2,3,11,2,1,left.png,,w,left,5cba50bf114fa5001aac5570,2021-10-22_16h59.49.576,arrow_simon_punish,2021.1.2,Win32,60.08893162,,,,,,,,,,,,,,,,,,,,,,,,,,,,,,,,,,,,,,
,,,w,1,1.1063,3,0,12,2,1,left.png,,w,left,5cba50bf114fa5001aac5570,2021-10-22_16h59.49.576,arrow_simon_punish,2021.1.2,Win32,60.08893162,,,,,,,,,,,,,,,,,,,,,,,,,,,,,,,,,,,,,,
,,,w,1,0.9374,3,1,13,3,1,left.png,,w,right,5cba50bf114fa5001aac5570,2021-10-22_16h59.49.576,arrow_simon_punish,2021.1.2,Win32,60.08893162,,,,,,,,,,,,,,,,,,,,,,,,,,,,,,,,,,,,,,
,,,p,1,1.46,3,2,14,1,1,right.png,,p,right,5cba50bf114fa5001aac5570,2021-10-22_16h59.49.576,arrow_simon_punish,2021.1.2,Win32,60.08893162,,,,,,,,,,,,,,,,,,,,,,,,,,,,,,,,,,,,,,
,,,p,1,0.9904,3,3,15,0,1,right.png,,p,left,5cba50bf114fa5001aac5570,2021-10-22_16h59.49.576,arrow_simon_punish,2021.1.2,Win32,60.08893162,,,,,,,,,,,,,,,,,,,,,,,,,,,,,,,,,,,,,,
,,,w,1,1.2729,4,0,16,3,1,left.png,,w,right,5cba50bf114fa5001aac5570,2021-10-22_16h59.49.576,arrow_simon_punish,2021.1.2,Win32,60.08893162,,,,,,,,,,,,,,,,,,,,,,,,,,,,,,,,,,,,,,
,,,w,1,0.8337,4,1,17,2,1,left.png,,w,left,5cba50bf114fa5001aac5570,2021-10-22_16h59.49.576,arrow_simon_punish,2021.1.2,Win32,60.08893162,,,,,,,,,,,,,,,,,,,,,,,,,,,,,,,,,,,,,,
,,,p,1,0.8862,4,2,18,1,1,right.png,,p,right,5cba50bf114fa5001aac5570,2021-10-22_16h59.49.576,arrow_simon_punish,2021.1.2,Win32,60.08893162,,,,,,,,,,,,,,,,,,,,,,,,,,,,,,,,,,,,,,
,,,p,1,1.0357,4,3,19,0,1,right.png,,p,left,5cba50bf114fa5001aac5570,2021-10-22_16h59.49.576,arrow_simon_punish,2021.1.2,Win32,60.08893162,,,,,,,,,,,,,,,,,,,,,,,,,,,,,,,,,,,,,,
,,,p,1,1.0994,5,0,20,1,1,right.png,,p,right,5cba50bf114fa5001aac5570,2021-10-22_16h59.49.576,arrow_simon_punish,2021.1.2,Win32,60.08893162,,,,,,,,,,,,,,,,,,,,,,,,,,,,,,,,,,,,,,
,,,w,1,0.9924,5,1,21,3,1,left.png,,w,right,5cba50bf114fa5001aac5570,2021-10-22_16h59.49.576,arrow_simon_punish,2021.1.2,Win32,60.08893162,,,,,,,,,,,,,,,,,,,,,,,,,,,,,,,,,,,,,,
,,,p,1,0.7885,5,2,22,0,1,right.png,,p,left,5cba50bf114fa5001aac5570,2021-10-22_16h59.49.576,arrow_simon_punish,2021.1.2,Win32,60.08893162,,,,,,,,,,,,,,,,,,,,,,,,,,,,,,,,,,,,,,
,,,w,1,0.9667,5,3,23,2,1,left.png,,w,left,5cba50bf114fa5001aac5570,2021-10-22_16h59.49.576,arrow_simon_punish,2021.1.2,Win32,60.08893162,,,,,,,,,,,,,,,,,,,,,,,,,,,,,,,,,,,,,,
,,,p,1,1.0732,6,0,24,0,1,right.png,,p,left,5cba50bf114fa5001aac5570,2021-10-22_16h59.49.576,arrow_simon_punish,2021.1.2,Win32,60.08893162,,,,,,,,,,,,,,,,,,,,,,,,,,,,,,,,,,,,,,
,,,p,1,1.1355,6,1,25,1,1,right.png,,p,right,5cba50bf114fa5001aac5570,2021-10-22_16h59.49.576,arrow_simon_punish,2021.1.2,Win32,60.08893162,,,,,,,,,,,,,,,,,,,,,,,,,,,,,,,,,,,,,,
,,,w,1,1.7899,6,2,26,2,1,left.png,,w,left,5cba50bf114fa5001aac5570,2021-10-22_16h59.49.576,arrow_simon_punish,2021.1.2,Win32,60.08893162,,,,,,,,,,,,,,,,,,,,,,,,,,,,,,,,,,,,,,
,,,w,1,1.5377,6,3,27,3,1,left.png,,w,right,5cba50bf114fa5001aac5570,2021-10-22_16h59.49.576,arrow_simon_punish,2021.1.2,Win32,60.08893162,,,,,,,,,,,,,,,,,,,,,,,,,,,,,,,,,,,,,,
,,,w,1,1.2938,7,0,28,3,1,left.png,,w,right,5cba50bf114fa5001aac5570,2021-10-22_16h59.49.576,arrow_simon_punish,2021.1.2,Win32,60.08893162,,,,,,,,,,,,,,,,,,,,,,,,,,,,,,,,,,,,,,
,,,w,1,0.7641,7,1,29,2,1,left.png,,w,left,5cba50bf114fa5001aac5570,2021-10-22_16h59.49.576,arrow_simon_punish,2021.1.2,Win32,60.08893162,,,,,,,,,,,,,,,,,,,,,,,,,,,,,,,,,,,,,,
,,,p,1,0.9329,7,2,30,0,1,right.png,,p,left,5cba50bf114fa5001aac5570,2021-10-22_16h59.49.576,arrow_simon_punish,2021.1.2,Win32,60.08893162,,,,,,,,,,,,,,,,,,,,,,,,,,,,,,,,,,,,,,
,,,p,1,1.0186,7,3,31,1,1,right.png,,p,right,5cba50bf114fa5001aac5570,2021-10-22_16h59.49.576,arrow_simon_punish,2021.1.2,Win32,60.08893162,,,,,,,,,,,,,,,,,,,,,,,,,,,,,,,,,,,,,,
,,,w,1,1.3576,8,0,32,3,1,left.png,,w,right,5cba50bf114fa5001aac5570,2021-10-22_16h59.49.576,arrow_simon_punish,2021.1.2,Win32,60.08893162,,,,,,,,,,,,,,,,,,,,,,,,,,,,,,,,,,,,,,
,,,w,1,0.8751,8,1,33,2,1,left.png,,w,left,5cba50bf114fa5001aac5570,2021-10-22_16h59.49.576,arrow_simon_punish,2021.1.2,Win32,60.08893162,,,,,,,,,,,,,,,,,,,,,,,,,,,,,,,,,,,,,,
,,,p,1,0.9224,8,2,34,1,1,right.png,,p,right,5cba50bf114fa5001aac5570,2021-10-22_16h59.49.576,arrow_simon_punish,2021.1.2,Win32,60.08893162,,,,,,,,,,,,,,,,,,,,,,,,,,,,,,,,,,,,,,
,,,p,1,1.5588,8,3,35,0,1,right.png,,p,left,5cba50bf114fa5001aac5570,2021-10-22_16h59.49.576,arrow_simon_punish,2021.1.2,Win32,60.08893162,,,,,,,,,,,,,,,,,,,,,,,,,,,,,,,,,,,,,,
,,,p,1,1.7521,9,0,36,1,1,right.png,,p,right,5cba50bf114fa5001aac5570,2021-10-22_16h59.49.576,arrow_simon_punish,2021.1.2,Win32,60.08893162,,,,,,,,,,,,,,,,,,,,,,,,,,,,,,,,,,,,,,
,,,w,1,1.0087,9,1,37,3,1,left.png,,w,right,5cba50bf114fa5001aac5570,2021-10-22_16h59.49.576,arrow_simon_punish,2021.1.2,Win32,60.08893162,,,,,,,,,,,,,,,,,,,,,,,,,,,,,,,,,,,,,,
,,,p,1,1.6056,9,2,38,0,1,right.png,,p,left,5cba50bf114fa5001aac5570,2021-10-22_16h59.49.576,arrow_simon_punish,2021.1.2,Win32,60.08893162,,,,,,,,,,,,,,,,,,,,,,,,,,,,,,,,,,,,,,
,,,w,1,1.0814,9,3,39,2,1,left.png,,w,left,5cba50bf114fa5001aac5570,2021-10-22_16h59.49.576,arrow_simon_punish,2021.1.2,Win32,60.08893162,,,,,,,,,,,,,,,,,,,,,,,,,,,,,,,,,,,,,,
,,,,,,,,,,,,,,,5cba50bf114fa5001aac5570,2021-10-22_16h59.49.576,arrow_simon_punish,2021.1.2,Win32,60.08893162,space,0,33.9555,p,2.9451,0,0,0,0,1,,,,,,,,,,,,,,,,,,,,,,,,,,,,
,,,,,,,,,,,,,,,5cba50bf114fa5001aac5570,2021-10-22_16h59.49.576,arrow_simon_punish,2021.1.2,Win32,60.08893162,,,,p,2.9177,1,0,1,0,1,,,,,,,,,,,,,,,,,,,,,,,,,,,,
,,,,,,,,,,,,,,,5cba50bf114fa5001aac5570,2021-10-22_16h59.49.576,arrow_simon_punish,2021.1.2,Win32,60.08893162,,,,p,2.9047,2,0,2,0,1,,,,,,,,,,,,,,,,,,,,,,,,,,,,
,,,,,,,,,,,,,,,5cba50bf114fa5001aac5570,2021-10-22_16h59.49.576,arrow_simon_punish,2021.1.2,Win32,60.08893162,,,,p,3.0037,3,0,3,0,1,,,,,,,,,,,,,,,,,,,,,,,,,,,,
,,,,,,,,,,,,,,,5cba50bf114fa5001aac5570,2021-10-22_16h59.49.576,arrow_simon_punish,2021.1.2,Win32,60.08893162,,,,p,2.8677,4,0,4,0,1,,,,,,,,,,,,,,,,,,,,,,,,,,,,
,,,,,,,,,,,,,,,5cba50bf114fa5001aac5570,2021-10-22_16h59.49.576,arrow_simon_punish,2021.1.2,Win32,60.08893162,,,,p,2.9242,5,0,5,0,1,,,,,,,,,,,,,,,,,,,,,,,,,,,,
,,,,,,,,,,,,,,,5cba50bf114fa5001aac5570,2021-10-22_16h59.49.576,arrow_simon_punish,2021.1.2,Win32,60.08893162,,,,p,2.9058,6,0,6,0,1,,,,,,,,,,,,,,,,,,,,,,,,,,,,
,,,,,,,,,,,,,,,5cba50bf114fa5001aac5570,2021-10-22_16h59.49.576,arrow_simon_punish,2021.1.2,Win32,60.08893162,,,,p,2.9797,7,0,7,0,1,,,,,,,,,,,,,,,,,,,,,,,,,,,,
,,,,,,,,,,,,,,,5cba50bf114fa5001aac5570,2021-10-22_16h59.49.576,arrow_simon_punish,2021.1.2,Win32,60.08893162,,,,p,2.7936,8,0,8,0,1,,,,,,,,,,,,,,,,,,,,,,,,,,,,
,,,,,,,,,,,,,,,5cba50bf114fa5001aac5570,2021-10-22_16h59.49.576,arrow_simon_punish,2021.1.2,Win32,60.08893162,,,,p,2.6616,9,0,9,0,1,,,,,,,,,,,,,,,,,,,,,,,,,,,,
,,,,,,,,,,,,,,,5cba50bf114fa5001aac5570,2021-10-22_16h59.49.576,arrow_simon_punish,2021.1.2,Win32,60.08893162,,,,p,2.7065,10,0,10,0,1,,,,,,,,,,,,,,,,,,,,,,,,,,,,
,,,,,,,,,,,,,,,5cba50bf114fa5001aac5570,2021-10-22_16h59.49.576,arrow_simon_punish,2021.1.2,Win32,60.08893162,,,,p,3.0247,11,0,11,0,1,,,,,,,,,,,,,,,,,,,,,,,,,,,,
,,,,,,,,,,,,,,,5cba50bf114fa5001aac5570,2021-10-22_16h59.49.576,arrow_simon_punish,2021.1.2,Win32,60.08893162,,,,p,2.9388,12,0,12,0,1,,,,,,,,,,,,,,,,,,,,,,,,,,,,
,,,,,,,,,,,,,,,5cba50bf114fa5001aac5570,2021-10-22_16h59.49.576,arrow_simon_punish,2021.1.2,Win32,60.08893162,,,,p,2.8559,13,0,13,0,1,,,,,,,,,,,,,,,,,,,,,,,,,,,,
,,,,,,,,,,,,,,,5cba50bf114fa5001aac5570,2021-10-22_16h59.49.576,arrow_simon_punish,2021.1.2,Win32,60.08893162,,,,p,2.7574,14,0,14,0,1,,,,,,,,,,,,,,,,,,,,,,,,,,,,
,,,,,,,,,,,,,,,5cba50bf114fa5001aac5570,2021-10-22_16h59.49.576,arrow_simon_punish,2021.1.2,Win32,60.08893162,,,,p,2.6052,15,0,15,0,1,,,,,,,,,,,,,,,,,,,,,,,,,,,,
,,,,,,,,,,,,,,,5cba50bf114fa5001aac5570,2021-10-22_16h59.49.576,arrow_simon_punish,2021.1.2,Win32,60.08893162,,,,p,2.614,16,0,16,0,1,,,,,,,,,,,,,,,,,,,,,,,,,,,,
,,,,,,,,,,,,,,,5cba50bf114fa5001aac5570,2021-10-22_16h59.49.576,arrow_simon_punish,2021.1.2,Win32,60.08893162,,,,p,2.5457,17,0,17,0,1,,,,,,,,,,,,,,,,,,,,,,,,,,,,
,,,,,,,,,,,,,,,5cba50bf114fa5001aac5570,2021-10-22_16h59.49.576,arrow_simon_punish,2021.1.2,Win32,60.08893162,,,,p,2.5231,18,0,18,0,1,,,,,,,,,,,,,,,,,,,,,,,,,,,,
,,,,,,,,,,,,,,,5cba50bf114fa5001aac5570,2021-10-22_16h59.49.576,arrow_simon_punish,2021.1.2,Win32,60.08893162,,,,p,2.5869,19,0,19,0,1,,,,,,,,,,,,,,,,,,,,,,,,,,,,
,,,,,,,,,,,,,,,5cba50bf114fa5001aac5570,2021-10-22_16h59.49.576,arrow_simon_punish,2021.1.2,Win32,60.08893162,,,,p,2.6215,20,0,20,0,1,,,,,,,,,,,,,,,,,,,,,,,,,,,,
,,,,,,,,,,,,,,,5cba50bf114fa5001aac5570,2021-10-22_16h59.49.576,arrow_simon_punish,2021.1.2,Win32,60.08893162,,,,p,2.5937,21,0,21,0,1,,,,,,,,,,,,,,,,,,,,,,,,,,,,
,,,,,,,,,,,,,,,5cba50bf114fa5001aac5570,2021-10-22_16h59.49.576,arrow_simon_punish,2021.1.2,Win32,60.08893162,,,,p,2.6352,22,0,22,0,1,,,,,,,,,,,,,,,,,,,,,,,,,,,,
,,,,,,,,,,,,,,,5cba50bf114fa5001aac5570,2021-10-22_16h59.49.576,arrow_simon_punish,2021.1.2,Win32,60.08893162,,,,p,2.5133,23,0,23,0,1,,,,,,,,,,,,,,,,,,,,,,,,,,,,
,,,,,,,,,,,,,,,5cba50bf114fa5001aac5570,2021-10-22_16h59.49.576,arrow_simon_punish,2021.1.2,Win32,60.08893162,,,,p,2.5006,24,0,24,0,1,,,,,,,,,,,,,,,,,,,,,,,,,,,,
,,,,,,,,,,,,,,,5cba50bf114fa5001aac5570,2021-10-22_16h59.49.576,arrow_simon_punish,2021.1.2,Win32,60.08893162,,,,p,2.4267,25,0,25,0,1,,,,,,,,,,,,,,,,,,,,,,,,,,,,
,,,,,,,,,,,,,,,5cba50bf114fa5001aac5570,2021-10-22_16h59.49.576,arrow_simon_punish,2021.1.2,Win32,60.08893162,,,,p,2.2493,26,0,26,0,1,,,,,,,,,,,,,,,,,,,,,,,,,,,,
,,,,,,,,,,,,,,,5cba50bf114fa5001aac5570,2021-10-22_16h59.49.576,arrow_simon_punish,2021.1.2,Win32,60.08893162,,,,p,2.4962,27,0,27,0,1,,,,,,,,,,,,,,,,,,,,,,,,,,,,
,,,,,,,,,,,,,,,5cba50bf114fa5001aac5570,2021-10-22_16h59.49.576,arrow_simon_punish,2021.1.2,Win32,60.08893162,,,,p,2.5785,28,0,28,0,1,,,,,,,,,,,,,,,,,,,,,,,,,,,,
,,,,,,,,,,,,,,,5cba50bf114fa5001aac5570,2021-10-22_16h59.49.576,arrow_simon_punish,2021.1.2,Win32,60.08893162,,,,p,2.5905,29,0,29,0,1,,,,,,,,,,,,,,,,,,,,,,,,,,,,
,,,,,,,,,,,,,,,5cba50bf114fa5001aac5570,2021-10-22_16h59.49.576,arrow_simon_punish,2021.1.2,Win32,60.08893162,,,,p,2.4674,30,0,30,0,1,,,,,,,,,,,,,,,,,,,,,,,,,,,,
,,,,,,,,,,,,,,,5cba50bf114fa5001aac5570,2021-10-22_16h59.49.576,arrow_simon_punish,2021.1.2,Win32,60.08893162,,,,p,2.4868,31,0,31,0,1,,,,,,,,,,,,,,,,,,,,,,,,,,,,
,,,,,,,,,,,,,,,5cba50bf114fa5001aac5570,2021-10-22_16h59.49.576,arrow_simon_punish,2021.1.2,Win32,60.08893162,,,,p,2.5625,32,0,32,0,1,,,,,,,,,,,,,,,,,,,,,,,,,,,,
,,,,,,,,,,,,,,,5cba50bf114fa5001aac5570,2021-10-22_16h59.49.576,arrow_simon_punish,2021.1.2,Win32,60.08893162,,,,p,2.6258,33,0,33,0,1,,,,,,,,,,,,,,,,,,,,,,,,,,,,
,,,,,,,,,,,,,,,5cba50bf114fa5001aac5570,2021-10-22_16h59.49.576,arrow_simon_punish,2021.1.2,Win32,60.08893162,,,,p,2.4916,34,0,34,0,1,,,,,,,,,,,,,,,,,,,,,,,,,,,,
,,,,,,,,,,,,,,,5cba50bf114fa5001aac5570,2021-10-22_16h59.49.576,arrow_simon_punish,2021.1.2,Win32,60.08893162,,,,p,2.4463,35,0,35,0,1,,,,,,,,,,,,,,,,,,,,,,,,,,,,
,,,,,,,,,,,,,,,5cba50bf114fa5001aac5570,2021-10-22_16h59.49.576,arrow_simon_punish,2021.1.2,Win32,60.08893162,,,,p,2.4266,36,0,36,0,1,,,,,,,,,,,,,,,,,,,,,,,,,,,,
,,,,,,,,,,,,,,,5cba50bf114fa5001aac5570,2021-10-22_16h59.49.576,arrow_simon_punish,2021.1.2,Win32,60.08893162,,,,p,2.4251,37,0,37,0,1,,,,,,,,,,,,,,,,,,,,,,,,,,,,
,,,,,,,,,,,,,,,5cba50bf114fa5001aac5570,2021-10-22_16h59.49.576,arrow_simon_punish,2021.1.2,Win32,60.08893162,,,,p,2.4547,38,0,38,0,1,,,,,,,,,,,,,,,,,,,,,,,,,,,,
,,,,,,,,,,,,,,,5cba50bf114fa5001aac5570,2021-10-22_16h59.49.576,arrow_simon_punish,2021.1.2,Win32,60.08893162,,,,p,2.5509,39,0,39,0,1,,,,,,,,,,,,,,,,,,,,,,,,,,,,
,,,,,,,,,,,,,,,5cba50bf114fa5001aac5570,2021-10-22_16h59.49.576,arrow_simon_punish,2021.1.2,Win32,60.08893162,,,,p,2.5197,40,0,40,0,1,,,,,,,,,,,,,,,,,,,,,,,,,,,,
,,,,,,,,,,,,,,,5cba50bf114fa5001aac5570,2021-10-22_16h59.49.576,arrow_simon_punish,2021.1.2,Win32,60.08893162,,,,p,2.5546,41,0,41,0,1,,,,,,,,,,,,,,,,,,,,,,,,,,,,
,,,,,,,,,,,,,,,5cba50bf114fa5001aac5570,2021-10-22_16h59.49.576,arrow_simon_punish,2021.1.2,Win32,60.08893162,,,,p,2.5788,42,0,42,0,1,,,,,,,,,,,,,,,,,,,,,,,,,,,,
,,,,,,,,,,,,,,,5cba50bf114fa5001aac5570,2021-10-22_16h59.49.576,arrow_simon_punish,2021.1.2,Win32,60.08893162,,,,p,2.5925,43,0,43,0,1,,,,,,,,,,,,,,,,,,,,,,,,,,,,
,,,,,,,,,,,,,,,5cba50bf114fa5001aac5570,2021-10-22_16h59.49.576,arrow_simon_punish,2021.1.2,Win32,60.08893162,,,,p,2.4385,44,0,44,0,1,,,,,,,,,,,,,,,,,,,,,,,,,,,,
,,,,,,,,,,,,,,,5cba50bf114fa5001aac5570,2021-10-22_16h59.49.576,arrow_simon_punish,2021.1.2,Win32,60.08893162,,,,p,2.4756,45,0,45,0,1,,,,,,,,,,,,,,,,,,,,,,,,,,,,
,,,,,,,,,,,,,,,5cba50bf114fa5001aac5570,2021-10-22_16h59.49.576,arrow_simon_punish,2021.1.2,Win32,60.08893162,,,,p,2.4597,46,0,46,0,1,,,,,,,,,,,,,,,,,,,,,,,,,,,,
,,,,,,,,,,,,,,,5cba50bf114fa5001aac5570,2021-10-22_16h59.49.576,arrow_simon_punish,2021.1.2,Win32,60.08893162,,,,p,2.4654,47,0,47,0,1,,,,,,,,,,,,,,,,,,,,,,,,,,,,
,,,,,,,,,,,,,,,5cba50bf114fa5001aac5570,2021-10-22_16h59.49.576,arrow_simon_punish,2021.1.2,Win32,60.08893162,,,,p,2.4238,48,0,48,0,1,,,,,,,,,,,,,,,,,,,,,,,,,,,,
,,,,,,,,,,,,,,,5cba50bf114fa5001aac5570,2021-10-22_16h59.49.576,arrow_simon_punish,2021.1.2,Win32,60.08893162,,,,p,2.5158,49,0,49,0,1,,,,,,,,,,,,,,,,,,,,,,,,,,,,
,,,,,,,,,,,,,,,5cba50bf114fa5001aac5570,2021-10-22_16h59.49.576,arrow_simon_punish,2021.1.2,Win32,60.08893162,,,,p,2.5028,50,0,50,0,1,,,,,,,,,,,,,,,,,,,,,,,,,,,,
,,,,,,,,,,,,,,,5cba50bf114fa5001aac5570,2021-10-22_16h59.49.576,arrow_simon_punish,2021.1.2,Win32,60.08893162,,,,p,2.4901,51,0,51,0,1,,,,,,,,,,,,,,,,,,,,,,,,,,,,
,,,,,,,,,,,,,,,5cba50bf114fa5001aac5570,2021-10-22_16h59.49.576,arrow_simon_punish,2021.1.2,Win32,60.08893162,,,,p,2.5965,52,0,52,0,1,,,,,,,,,,,,,,,,,,,,,,,,,,,,
,,,,,,,,,,,,,,,5cba50bf114fa5001aac5570,2021-10-22_16h59.49.576,arrow_simon_punish,2021.1.2,Win32,60.08893162,,,,p,2.4706,53,0,53,0,1,,,,,,,,,,,,,,,,,,,,,,,,,,,,
,,,,,,,,,,,,,,,5cba50bf114fa5001aac5570,2021-10-22_16h59.49.576,arrow_simon_punish,2021.1.2,Win32,60.08893162,,,,p,2.6075,54,0,54,0,1,,,,,,,,,,,,,,,,,,,,,,,,,,,,
,,,,,,,,,,,,,,,5cba50bf114fa5001aac5570,2021-10-22_16h59.49.576,arrow_simon_punish,2021.1.2,Win32,60.08893162,,,,p,2.4548,55,0,55,0,1,,,,,,,,,,,,,,,,,,,,,,,,,,,,
,,,,,,,,,,,,,,,5cba50bf114fa5001aac5570,2021-10-22_16h59.49.576,arrow_simon_punish,2021.1.2,Win32,60.08893162,,,,p,2.5351,56,0,56,0,1,,,,,,,,,,,,,,,,,,,,,,,,,,,,
,,,,,,,,,,,,,,,5cba50bf114fa5001aac5570,2021-10-22_16h59.49.576,arrow_simon_punish,2021.1.2,Win32,60.08893162,,,,p,2.5566,57,0,57,0,1,,,,,,,,,,,,,,,,,,,,,,,,,,,,
,,,,,,,,,,,,,,,5cba50bf114fa5001aac5570,2021-10-22_16h59.49.576,arrow_simon_punish,2021.1.2,Win32,60.08893162,,,,p,2.2548,58,0,58,0,1,,,,,,,,,,,,,,,,,,,,,,,,,,,,
,,,,,,,,,,,,,,,5cba50bf114fa5001aac5570,2021-10-22_16h59.49.576,arrow_simon_punish,2021.1.2,Win32,60.08893162,,,,p,2.4506,59,0,59,0,1,,,,,,,,,,,,,,,,,,,,,,,,,,,,
,,,,,,,,,,,right.png,,p,right,5cba50bf114fa5001aac5570,2021-10-22_16h59.49.576,arrow_simon_punish,2021.1.2,Win32,60.08893162,,,,,,,,,,,space,0,72.4214,p,1,1.7844,1.88172492,1,1,0,0,0,1,1,,,,,,,,,,,,,,
,,,,,,,,,,,left.png,,w,right,5cba50bf114fa5001aac5570,2021-10-22_16h59.49.576,arrow_simon_punish,2021.1.2,Win32,60.08893162,,,,,,,,,,,,,,w,1,1.7232,1.870092616,1,1,0,1,1,3,1,,,,,,,,,,,,,,
,,,,,,,,,,,right.png,,p,left,5cba50bf114fa5001aac5570,2021-10-22_16h59.49.576,arrow_simon_punish,2021.1.2,Win32,60.08893162,,,,,,,,,,,,,,p,1,1.6855,2.0399052,1,1,0,2,2,0,1,,,,,,,,,,,,,,
,,,,,,,,,,,right.png,,p,right,5cba50bf114fa5001aac5570,2021-10-22_16h59.49.576,arrow_simon_punish,2021.1.2,Win32,60.08893162,,,,,,,,,,,,,,p,1,1.4925,1.939838157,0,1,0,3,3,1,1,,,,,,,,,,,,,,
,,,,,,,,,,,left.png,,w,right,5cba50bf114fa5001aac5570,2021-10-22_16h59.49.576,arrow_simon_punish,2021.1.2,Win32,60.08893162,,,,,,,,,,,,,,w,1,1.4752,1.898536842,0,1,1,0,4,3,1,,,,,,,,,,,,,,
,,,,,,,,,,,left.png,,w,left,5cba50bf114fa5001aac5570,2021-10-22_16h59.49.576,arrow_simon_punish,2021.1.2,Win32,60.08893162,,,,,,,,,,,,,,w,1,1.7384,1.655930386,1,1,1,1,5,2,1,,,,,,,,,,,,,,
,,,,,,,,,,,right.png,,p,right,5cba50bf114fa5001aac5570,2021-10-22_16h59.49.576,arrow_simon_punish,2021.1.2,Win32,60.08893162,,,,,,,,,,,,,,p,1,1.7807,2.357220485,1,1,1,2,6,1,1,,,,,,,,,,,,,,
,,,,,,,,,,,right.png,,p,right,5cba50bf114fa5001aac5570,2021-10-22_16h59.49.576,arrow_simon_punish,2021.1.2,Win32,60.08893162,,,,,,,,,,,,,,p,1,1.5554,2.109183765,0,1,1,3,7,1,1,,,,,,,,,,,,,,
,,,,,,,,,,,left.png,,w,right,5cba50bf114fa5001aac5570,2021-10-22_16h59.49.576,arrow_simon_punish,2021.1.2,Win32,60.08893162,,,,,,,,,,,,,,p,0,1.6804,2.238949797,1,1,2,0,8,3,1,,,,,,,,,,,,,,
,,,,,,,,,,,right.png,,p,left,5cba50bf114fa5001aac5570,2021-10-22_16h59.49.576,arrow_simon_punish,2021.1.2,Win32,60.08893162,,,,,,,,,,,,,,p,1,1.498,1.915400618,0,1,2,1,9,0,1,,,,,,,,,,,,,,
,,,,,,,,,,,right.png,,p,right,5cba50bf114fa5001aac5570,2021-10-22_16h59.49.576,arrow_simon_punish,2021.1.2,Win32,60.08893162,,,,,,,,,,,,,,w,0,1.4961,1.99326056,1,1,2,2,10,1,1,,,,,,,,,,,,,,
,,,,,,,,,,,left.png,,w,right,5cba50bf114fa5001aac5570,2021-10-22_16h59.49.576,arrow_simon_punish,2021.1.2,Win32,60.08893162,,,,,,,,,,,,,,p,0,1.6639,2.215943266,1,1,2,3,11,3,1,,,,,,,,,,,,,,
,,,,,,,,,,,left.png,,w,left,5cba50bf114fa5001aac5570,2021-10-22_16h59.49.576,arrow_simon_punish,2021.1.2,Win32,60.08893162,,,,,,,,,,,,,,w,1,1.5491,1.912060499,0,1,3,0,12,2,1,,,,,,,,,,,,,,
,,,,,,,,,,,left.png,,w,left,5cba50bf114fa5001aac5570,2021-10-22_16h59.49.576,arrow_simon_punish,2021.1.2,Win32,60.08893162,,,,,,,,,,,,,,w,1,1.5608,1.819351212,0,1,3,1,13,2,1,,,,,,,,,,,,,,
,,,,,,,,,,,right.png,,p,right,5cba50bf114fa5001aac5570,2021-10-22_16h59.49.576,arrow_simon_punish,2021.1.2,Win32,60.08893162,,,,,,,,,,,,,,p,1,1.5182,1.758204761,0,1,3,2,14,1,1,,,,,,,,,,,,,,
,,,,,,,,,,,left.png,,w,left,5cba50bf114fa5001aac5570,2021-10-22_16h59.49.576,arrow_simon_punish,2021.1.2,Win32,60.08893162,,,,,,,,,,,,,,w,1,1.8652,2.455888353,1,1,3,3,15,2,1,,,,,,,,,,,,,,
,,,,,,,,,,,right.png,,p,left,5cba50bf114fa5001aac5570,2021-10-22_16h59.49.576,arrow_simon_punish,2021.1.2,Win32,60.08893162,,,,,,,,,,,,,,p,1,1.6974,1.976934633,1,1,4,0,16,0,1,,,,,,,,,,,,,,
,,,,,,,,,,,left.png,,w,right,5cba50bf114fa5001aac5570,2021-10-22_16h59.49.576,arrow_simon_punish,2021.1.2,Win32,60.08893162,,,,,,,,,,,,,,p,0,1.8776,2.456040021,1,1,4,1,17,3,1,,,,,,,,,,,,,,
,,,,,,,,,,,right.png,,p,right,5cba50bf114fa5001aac5570,2021-10-22_16h59.49.576,arrow_simon_punish,2021.1.2,Win32,60.08893162,,,,,,,,,,,,,,p,1,1.7813,2.311772763,1,1,4,2,18,1,1,,,,,,,,,,,,,,
,,,,,,,,,,,right.png,,p,left,5cba50bf114fa5001aac5570,2021-10-22_16h59.49.576,arrow_simon_punish,2021.1.2,Win32,60.08893162,,,,,,,,,,,,,,p,1,1.6182,1.802937991,1,1,4,3,19,0,1,,,,,,,,,,,,,,
,,,,,,,,,,,left.png,,w,left,5cba50bf114fa5001aac5570,2021-10-22_16h59.49.576,arrow_simon_punish,2021.1.2,Win32,60.08893162,,,,,,,,,,,,,,w,1,1.669,1.957700059,1,1,5,0,20,2,1,,,,,,,,,,,,,,
,,,,,,,,,,,left.png,,w,left,5cba50bf114fa5001aac5570,2021-10-22_16h59.49.576,arrow_simon_punish,2021.1.2,Win32,60.08893162,,,,,,,,,,,,,,w,1,1.6481,1.806882032,1,1,5,1,21,2,1,,,,,,,,,,,,,,
,,,,,,,,,,,right.png,,p,left,5cba50bf114fa5001aac5570,2021-10-22_16h59.49.576,arrow_simon_punish,2021.1.2,Win32,60.08893162,,,,,,,,,,,,,,w,0,1.4855,2.119368671,1,1,5,2,22,0,1,,,,,,,,,,,,,,
,,,,,,,,,,,right.png,,p,left,5cba50bf114fa5001aac5570,2021-10-22_16h59.49.576,arrow_simon_punish,2021.1.2,Win32,60.08893162,,,,,,,,,,,,,,p,1,1.7861,2.369826647,1,1,5,3,23,0,1,,,,,,,,,,,,,,
,,,,,,,,,,,left.png,,w,right,5cba50bf114fa5001aac5570,2021-10-22_16h59.49.576,arrow_simon_punish,2021.1.2,Win32,60.08893162,,,,,,,,,,,,,,p,0,1.5586,2.086512274,1,1,6,0,24,3,1,,,,,,,,,,,,,,
,,,,,,,,,,,left.png,,w,left,5cba50bf114fa5001aac5570,2021-10-22_16h59.49.576,arrow_simon_punish,2021.1.2,Win32,60.08893162,,,,,,,,,,,,,,w,1,1.3772,1.954733066,1,1,6,1,25,2,1,,,,,,,,,,,,,,
,,,,,,,,,,,left.png,,w,right,5cba50bf114fa5001aac5570,2021-10-22_16h59.49.576,arrow_simon_punish,2021.1.2,Win32,60.08893162,,,,,,,,,,,,,,w,1,1.387,1.670157293,1,1,6,2,26,3,1,,,,,,,,,,,,,,
,,,,,,,,,,,left.png,,w,right,5cba50bf114fa5001aac5570,2021-10-22_16h59.49.576,arrow_simon_punish,2021.1.2,Win32,60.08893162,,,,,,,,,,,,,,w,1,1.4256,1.774035027,0,1,6,3,27,3,1,,,,,,,,,,,,,,
,,,,,,,,,,,left.png,,w,left,5cba50bf114fa5001aac5570,2021-10-22_16h59.49.576,arrow_simon_punish,2021.1.2,Win32,60.08893162,,,,,,,,,,,,,,w,1,1.7049,1.901247286,1,1,7,0,28,2,1,,,,,,,,,,,,,,
,,,,,,,,,,,left.png,,w,left,5cba50bf114fa5001aac5570,2021-10-22_16h59.49.576,arrow_simon_punish,2021.1.2,Win32,60.08893162,,,,,,,,,,,,,,w,1,1.8928,2.444265657,1,1,7,1,29,2,1,,,,,,,,,,,,,,
,,,,,,,,,,,left.png,,w,left,5cba50bf114fa5001aac5570,2021-10-22_16h59.49.576,arrow_simon_punish,2021.1.2,Win32,60.08893162,,,,,,,,,,,,,,w,1,1.7873,2.351818014,1,1,7,2,30,2,1,,,,,,,,,,,,,,
,,,,,,,,,,,left.png,,w,right,5cba50bf114fa5001aac5570,2021-10-22_16h59.49.576,arrow_simon_punish,2021.1.2,Win32,60.08893162,,,,,,,,,,,,,,w,1,1.8732,2.335456689,1,1,7,3,31,3,1,,,,,,,,,,,,,,
,,,,,,,,,,,left.png,,w,right,5cba50bf114fa5001aac5570,2021-10-22_16h59.49.576,arrow_simon_punish,2021.1.2,Win32,60.08893162,,,,,,,,,,,,,,p,0,1.7916,2.275177033,1,1,8,0,32,3,1,,,,,,,,,,,,,,
,,,,,,,,,,,left.png,,w,right,5cba50bf114fa5001aac5570,2021-10-22_16h59.49.576,arrow_simon_punish,2021.1.2,Win32,60.08893162,,,,,,,,,,,,,,w,1,2.0661,2.364793409,1,1,8,1,33,3,1,,,,,,,,,,,,,,
,,,,,,,,,,,right.png,,p,right,5cba50bf114fa5001aac5570,2021-10-22_16h59.49.576,arrow_simon_punish,2021.1.2,Win32,60.08893162,,,,,,,,,,,,,,p,1,1.5976,1.70207676,0,1,8,2,34,1,1,,,,,,,,,,,,,,
,,,,,,,,,,,right.png,,p,left,5cba50bf114fa5001aac5570,2021-10-22_16h59.49.576,arrow_simon_punish,2021.1.2,Win32,60.08893162,,,,,,,,,,,,,,p,1,1.4629,1.512479396,0,1,8,3,35,0,1,,,,,,,,,,,,,,
,,,,,,,,,,,right.png,,p,right,5cba50bf114fa5001aac5570,2021-10-22_16h59.49.576,arrow_simon_punish,2021.1.2,Win32,60.08893162,,,,,,,,,,,,,,p,1,2.0677,2.497915303,1,1,9,0,36,1,1,,,,,,,,,,,,,,
,,,,,,,,,,,right.png,,p,right,5cba50bf114fa5001aac5570,2021-10-22_16h59.49.576,arrow_simon_punish,2021.1.2,Win32,60.08893162,,,,,,,,,,,,,,p,1,1.7593,2.284415773,1,1,9,1,37,1,1,,,,,,,,,,,,,,
,,,,,,,,,,,right.png,,p,right,5cba50bf114fa5001aac5570,2021-10-22_16h59.49.576,arrow_simon_punish,2021.1.2,Win32,60.08893162,,,,,,,,,,,,,,p,1,1.4894,1.882346152,0,1,9,2,38,1,1,,,,,,,,,,,,,,
,,,,,,,,,,,left.png,,w,left,5cba50bf114fa5001aac5570,2021-10-22_16h59.49.576,arrow_simon_punish,2021.1.2,Win32,60.08893162,,,,,,,,,,,,,,w,1,1.4428,1.9920522,0,1,9,3,39,2,1,,,,,,,,,,,,,,
,,,,,,,,,,,right.png,,p,right,5cba50bf114fa5001aac5570,2021-10-22_16h59.49.576,arrow_simon_punish,2021.1.2,Win32,60.08893162,,,,,,,,,,,,,,p,1,1.1809,1.567031953,1,1,10,0,40,1,1,,,,,,,,,,,,,,
,,,,,,,,,,,right.png,,p,left,5cba50bf114fa5001aac5570,2021-10-22_16h59.49.576,arrow_simon_punish,2021.1.2,Win32,60.08893162,,,,,,,,,,,,,,w,0,1.3335,1.870379454,1,1,10,1,41,0,1,,,,,,,,,,,,,,
,,,,,,,,,,,right.png,,p,left,5cba50bf114fa5001aac5570,2021-10-22_16h59.49.576,arrow_simon_punish,2021.1.2,Win32,60.08893162,,,,,,,,,,,,,,w,0,1.4042,1.913035726,1,1,10,2,42,0,1,,,,,,,,,,,,,,
,,,,,,,,,,,left.png,,w,left,5cba50bf114fa5001aac5570,2021-10-22_16h59.49.576,arrow_simon_punish,2021.1.2,Win32,60.08893162,,,,,,,,,,,,,,w,1,1.4368,1.988118053,0,1,10,3,43,2,1,,,,,,,,,,,,,,
,,,,,,,,,,,right.png,,p,left,5cba50bf114fa5001aac5570,2021-10-22_16h59.49.576,arrow_simon_punish,2021.1.2,Win32,60.08893162,,,,,,,,,,,,,,w,0,1.2984,1.845748911,1,1,11,0,44,0,1,,,,,,,,,,,,,,
,,,,,,,,,,,left.png,,w,left,5cba50bf114fa5001aac5570,2021-10-22_16h59.49.576,arrow_simon_punish,2021.1.2,Win32,60.08893162,,,,,,,,,,,,,,w,1,1.2236,1.648686184,1,1,11,1,45,2,1,,,,,,,,,,,,,,
,,,,,,,,,,,right.png,,p,left,5cba50bf114fa5001aac5570,2021-10-22_16h59.49.576,arrow_simon_punish,2021.1.2,Win32,60.08893162,,,,,,,,,,,,,,p,1,1.4984,1.815641114,0,1,11,2,46,0,1,,,,,,,,,,,,,,
,,,,,,,,,,,left.png,,w,left,5cba50bf114fa5001aac5570,2021-10-22_16h59.49.576,arrow_simon_punish,2021.1.2,Win32,60.08893162,,,,,,,,,,,,,,w,1,1.4285,1.880048976,0,1,11,3,47,2,1,,,,,,,,,,,,,,
,,,,,,,,,,,left.png,,w,left,5cba50bf114fa5001aac5570,2021-10-22_16h59.49.576,arrow_simon_punish,2021.1.2,Win32,60.08893162,,,,,,,,,,,,,,w,1,1.8738,2.403504847,1,1,12,0,48,2,1,,,,,,,,,,,,,,
,,,,,,,,,,,right.png,,p,right,5cba50bf114fa5001aac5570,2021-10-22_16h59.49.576,arrow_simon_punish,2021.1.2,Win32,60.08893162,,,,,,,,,,,,,,p,1,1.4037,1.51971394,0,1,12,1,49,1,1,,,,,,,,,,,,,,
,,,,,,,,,,,right.png,,p,left,5cba50bf114fa5001aac5570,2021-10-22_16h59.49.576,arrow_simon_punish,2021.1.2,Win32,60.08893162,,,,,,,,,,,,,,w,0,1.5132,2.091740542,1,1,12,2,50,0,1,,,,,,,,,,,,,,
,,,,,,,,,,,right.png,,p,left,5cba50bf114fa5001aac5570,2021-10-22_16h59.49.576,arrow_simon_punish,2021.1.2,Win32,60.08893162,,,,,,,,,,,,,,w,0,1.7634,2.365962226,1,1,12,3,51,0,1,,,,,,,,,,,,,,
,,,,,,,,,,,left.png,,w,right,5cba50bf114fa5001aac5570,2021-10-22_16h59.49.576,arrow_simon_punish,2021.1.2,Win32,60.08893162,,,,,,,,,,,,,,w,1,1.6274,2.00842922,1,1,13,0,52,3,1,,,,,,,,,,,,,,
,,,,,,,,,,,left.png,,w,right,5cba50bf114fa5001aac5570,2021-10-22_16h59.49.576,arrow_simon_punish,2021.1.2,Win32,60.08893162,,,,,,,,,,,,,,p,0,1.2312,1.7835876,1,1,13,1,53,3,1,,,,,,,,,,,,,,
,,,,,,,,,,,right.png,,p,left,5cba50bf114fa5001aac5570,2021-10-22_16h59.49.576,arrow_simon_punish,2021.1.2,Win32,60.08893162,,,,,,,,,,,,,,p,1,2.028,2.422375127,1,1,13,2,54,0,1,,,,,,,,,,,,,,
,,,,,,,,,,,right.png,,p,right,5cba50bf114fa5001aac5570,2021-10-22_16h59.49.576,arrow_simon_punish,2021.1.2,Win32,60.08893162,,,,,,,,,,,,,,p,1,1.6914,2.090005993,1,1,13,3,55,1,1,,,,,,,,,,,,,,
,,,,,,,,,,,right.png,,p,left,5cba50bf114fa5001aac5570,2021-10-22_16h59.49.576,arrow_simon_punish,2021.1.2,Win32,60.08893162,,,,,,,,,,,,,,p,1,1.4757,1.619363841,0,1,14,0,56,0,1,,,,,,,,,,,,,,
,,,,,,,,,,,left.png,,w,right,5cba50bf114fa5001aac5570,2021-10-22_16h59.49.576,arrow_simon_punish,2021.1.2,Win32,60.08893162,,,,,,,,,,,,,,w,1,1.4905,1.975342483,0,1,14,1,57,3,1,,,,,,,,,,,,,,
,,,,,,,,,,,right.png,,p,right,5cba50bf114fa5001aac5570,2021-10-22_16h59.49.576,arrow_simon_punish,2021.1.2,Win32,60.08893162,,,,,,,,,,,,,,p,1,1.8473,2.21069203,1,1,14,2,58,1,1,,,,,,,,,,,,,,
,,,,,,,,,,,left.png,,w,right,5cba50bf114fa5001aac5570,2021-10-22_16h59.49.576,arrow_simon_punish,2021.1.2,Win32,60.08893162,,,,,,,,,,,,,,w,1,2.0198,2.32278593,1,1,14,3,59,3,1,,,,,,,,,,,,,,
,,,,,,,,,,,,,,,5cba50bf114fa5001aac5570,2021-10-22_16h59.49.576,arrow_simon_punish,2021.1.2,Win32,60.08893162,,,,,,,,,,,,,,,,,,,,,,,,,space,8.57,2,0,0,0,0,1,1,,,,,
,,,,,,,,,,,right.png,,p,left,5cba50bf114fa5001aac5570,2021-10-22_16h59.49.576,arrow_simon_punish,2021.1.2,Win32,60.08893162,,,,,,,,,,,,,,w,0,1.335,1.592944714,1,5,0,0,0,0,1,,,,,,,,,,,,,,
,,,,,,,,,,,left.png,,w,right,5cba50bf114fa5001aac5570,2021-10-22_16h59.49.576,arrow_simon_punish,2021.1.2,Win32,60.08893162,,,,,,,,,,,,,,w,1,2.0188,2.421691818,1,5,0,1,1,3,1,,,,,,,,,,,,,,
,,,,,,,,,,,right.png,,p,right,5cba50bf114fa5001aac5570,2021-10-22_16h59.49.576,arrow_simon_punish,2021.1.2,Win32,60.08893162,,,,,,,,,,,,,,p,1,1.4149,1.850051793,0,5,0,2,2,1,1,,,,,,,,,,,,,,
,,,,,,,,,,,left.png,,w,left,5cba50bf114fa5001aac5570,2021-10-22_16h59.49.576,arrow_simon_punish,2021.1.2,Win32,60.08893162,,,,,,,,,,,,,,w,1,1.3751,2.252662216,1,5,0,3,3,2,1,,,,,,,,,,,,,,
,,,,,,,,,,,left.png,,w,left,5cba50bf114fa5001aac5570,2021-10-22_16h59.49.576,arrow_simon_punish,2021.1.2,Win32,60.08893162,,,,,,,,,,,,,,w,1,1.5332,2.164864309,0,5,1,0,4,2,1,,,,,,,,,,,,,,
,,,,,,,,,,,right.png,,p,left,5cba50bf114fa5001aac5570,2021-10-22_16h59.49.576,arrow_simon_punish,2021.1.2,Win32,60.08893162,,,,,,,,,,,,,,w,0,1.7488,1.914808051,1,5,1,1,5,0,1,,,,,,,,,,,,,,
,,,,,,,,,,,right.png,,p,left,5cba50bf114fa5001aac5570,2021-10-22_16h59.49.576,arrow_simon_punish,2021.1.2,Win32,60.08893162,,,,,,,,,,,,,,p,1,1.5089,2.054297252,0,5,1,2,6,0,1,,,,,,,,,,,,,,
,,,,,,,,,,,left.png,,w,right,5cba50bf114fa5001aac5570,2021-10-22_16h59.49.576,arrow_simon_punish,2021.1.2,Win32,60.08893162,,,,,,,,,,,,,,w,1,1.353,2.332952583,1,5,1,3,7,3,1,,,,,,,,,,,,,,
,,,,,,,,,,,right.png,,p,right,5cba50bf114fa5001aac5570,2021-10-22_16h59.49.576,arrow_simon_punish,2021.1.2,Win32,60.08893162,,,,,,,,,,,,,,p,1,1.5561,1.611824316,0,5,2,0,8,1,1,,,,,,,,,,,,,,
,,,,,,,,,,,left.png,,w,right,5cba50bf114fa5001aac5570,2021-10-22_16h59.49.576,arrow_simon_punish,2021.1.2,Win32,60.08893162,,,,,,,,,,,,,,w,1,1.3211,2.398073026,1,5,2,1,9,3,1,,,,,,,,,,,,,,
,,,,,,,,,,,right.png,,p,right,5cba50bf114fa5001aac5570,2021-10-22_16h59.49.576,arrow_simon_punish,2021.1.2,Win32,60.08893162,,,,,,,,,,,,,,p,1,1.4503,2.479809335,0,5,2,2,10,1,1,,,,,,,,,,,,,,
,,,,,,,,,,,right.png,,p,right,5cba50bf114fa5001aac5570,2021-10-22_16h59.49.576,arrow_simon_punish,2021.1.2,Win32,60.08893162,,,,,,,,,,,,,,p,1,1.6232,1.770841563,1,5,2,3,11,1,1,,,,,,,,,,,,,,
,,,,,,,,,,,left.png,,w,right,5cba50bf114fa5001aac5570,2021-10-22_16h59.49.576,arrow_simon_punish,2021.1.2,Win32,60.08893162,,,,,,,,,,,,,,w,1,1.1203,2.228926883,1,5,3,0,12,3,1,,,,,,,,,,,,,,
,,,,,,,,,,,right.png,,p,right,5cba50bf114fa5001aac5570,2021-10-22_16h59.49.576,arrow_simon_punish,2021.1.2,Win32,60.08893162,,,,,,,,,,,,,,p,1,1.4145,1.750502559,0,5,3,1,13,1,1,,,,,,,,,,,,,,
,,,,,,,,,,,right.png,,p,right,5cba50bf114fa5001aac5570,2021-10-22_16h59.49.576,arrow_simon_punish,2021.1.2,Win32,60.08893162,,,,,,,,,,,,,,p,1,1.4976,2.017519045,0,5,3,2,14,1,1,,,,,,,,,,,,,,
,,,,,,,,,,,left.png,,w,left,5cba50bf114fa5001aac5570,2021-10-22_16h59.49.576,arrow_simon_punish,2021.1.2,Win32,60.08893162,,,,,,,,,,,,,,p,0,1.2835,2.091115265,1,5,3,3,15,2,1,,,,,,,,,,,,,,
,,,,,,,,,,,right.png,,p,right,5cba50bf114fa5001aac5570,2021-10-22_16h59.49.576,arrow_simon_punish,2021.1.2,Win32,60.08893162,,,,,,,,,,,,,,p,1,1.598,2.296156484,0,5,4,0,16,1,1,,,,,,,,,,,,,,
,,,,,,,,,,,left.png,,w,right,5cba50bf114fa5001aac5570,2021-10-22_16h59.49.576,arrow_simon_punish,2021.1.2,Win32,60.08893162,,,,,,,,,,,,,,w,1,1.5434,1.73996406,0,5,4,1,17,3,1,,,,,,,,,,,,,,
,,,,,,,,,,,left.png,,w,left,5cba50bf114fa5001aac5570,2021-10-22_16h59.49.576,arrow_simon_punish,2021.1.2,Win32,60.08893162,,,,,,,,,,,,,,w,1,1.6005,1.993993775,1,5,4,2,18,2,1,,,,,,,,,,,,,,
,,,,,,,,,,,left.png,,w,right,5cba50bf114fa5001aac5570,2021-10-22_16h59.49.576,arrow_simon_punish,2021.1.2,Win32,60.08893162,,,,,,,,,,,,,,w,1,1.5135,1.590843676,0,5,4,3,19,3,1,,,,,,,,,,,,,,
,,,,,,,,,,,left.png,,w,right,5cba50bf114fa5001aac5570,2021-10-22_16h59.49.576,arrow_simon_punish,2021.1.2,Win32,60.08893162,,,,,,,,,,,,,,w,1,1.5305,2.191855076,0,5,5,0,20,3,1,,,,,,,,,,,,,,
,,,,,,,,,,,right.png,,p,left,5cba50bf114fa5001aac5570,2021-10-22_16h59.49.576,arrow_simon_punish,2021.1.2,Win32,60.08893162,,,,,,,,,,,,,,p,1,1.451,1.611796496,0,5,5,1,21,0,1,,,,,,,,,,,,,,
,,,,,,,,,,,right.png,,p,right,5cba50bf114fa5001aac5570,2021-10-22_16h59.49.576,arrow_simon_punish,2021.1.2,Win32,60.08893162,,,,,,,,,,,,,,p,1,1.6528,2.131917992,1,5,5,2,22,1,1,,,,,,,,,,,,,,
,,,,,,,,,,,left.png,,w,right,5cba50bf114fa5001aac5570,2021-10-22_16h59.49.576,arrow_simon_punish,2021.1.2,Win32,60.08893162,,,,,,,,,,,,,,w,1,1.4323,1.521519508,0,5,5,3,23,3,1,,,,,,,,,,,,,,
,,,,,,,,,,,left.png,,w,right,5cba50bf114fa5001aac5570,2021-10-22_16h59.49.576,arrow_simon_punish,2021.1.2,Win32,60.08893162,,,,,,,,,,,,,,w,1,1.5788,1.934015559,0,5,6,0,24,3,1,,,,,,,,,,,,,,
,,,,,,,,,,,left.png,,w,right,5cba50bf114fa5001aac5570,2021-10-22_16h59.49.576,arrow_simon_punish,2021.1.2,Win32,60.08893162,,,,,,,,,,,,,,p,0,1.4867,2.340643506,1,5,6,1,25,3,1,,,,,,,,,,,,,,
,,,,,,,,,,,right.png,,p,right,5cba50bf114fa5001aac5570,2021-10-22_16h59.49.576,arrow_simon_punish,2021.1.2,Win32,60.08893162,,,,,,,,,,,,,,p,1,1.5591,1.905238808,0,5,6,2,26,1,1,,,,,,,,,,,,,,
,,,,,,,,,,,left.png,,w,left,5cba50bf114fa5001aac5570,2021-10-22_16h59.49.576,arrow_simon_punish,2021.1.2,Win32,60.08893162,,,,,,,,,,,,,,w,1,1.418,1.589067518,0,5,6,3,27,2,1,,,,,,,,,,,,,,
,,,,,,,,,,,left.png,,w,right,5cba50bf114fa5001aac5570,2021-10-22_16h59.49.576,arrow_simon_punish,2021.1.2,Win32,60.08893162,,,,,,,,,,,,,,w,1,1.3404,1.579778161,1,5,7,0,28,3,1,,,,,,,,,,,,,,
,,,,,,,,,,,left.png,,w,left,5cba50bf114fa5001aac5570,2021-10-22_16h59.49.576,arrow_simon_punish,2021.1.2,Win32,60.08893162,,,,,,,,,,,,,,w,1,1.5892,1.519998755,0,5,7,1,29,2,1,,,,,,,,,,,,,,
,,,,,,,,,,,right.png,,p,right,5cba50bf114fa5001aac5570,2021-10-22_16h59.49.576,arrow_simon_punish,2021.1.2,Win32,60.08893162,,,,,,,,,,,,,,w,0,1.5696,2.442863762,1,5,7,2,30,1,1,,,,,,,,,,,,,,
,,,,,,,,,,,left.png,,w,left,5cba50bf114fa5001aac5570,2021-10-22_16h59.49.576,arrow_simon_punish,2021.1.2,Win32,60.08893162,,,,,,,,,,,,,,w,1,1.5688,2.361416737,0,5,7,3,31,2,1,,,,,,,,,,,,,,
,,,,,,,,,,,left.png,,w,left,5cba50bf114fa5001aac5570,2021-10-22_16h59.49.576,arrow_simon_punish,2021.1.2,Win32,60.08893162,,,,,,,,,,,,,,w,1,1.617,2.186278271,1,5,8,0,32,2,1,,,,,,,,,,,,,,
,,,,,,,,,,,left.png,,w,left,5cba50bf114fa5001aac5570,2021-10-22_16h59.49.576,arrow_simon_punish,2021.1.2,Win32,60.08893162,,,,,,,,,,,,,,w,1,1.5566,1.749900116,0,5,8,1,33,2,1,,,,,,,,,,,,,,
,,,,,,,,,,,right.png,,p,left,5cba50bf114fa5001aac5570,2021-10-22_16h59.49.576,arrow_simon_punish,2021.1.2,Win32,60.08893162,,,,,,,,,,,,,,w,0,1.4832,2.322169828,1,5,8,2,34,0,1,,,,,,,,,,,,,,
,,,,,,,,,,,left.png,,w,left,5cba50bf114fa5001aac5570,2021-10-22_16h59.49.576,arrow_simon_punish,2021.1.2,Win32,60.08893162,,,,,,,,,,,,,,w,1,1.4913,2.392754414,0,5,8,3,35,2,1,,,,,,,,,,,,,,
,,,,,,,,,,,left.png,,w,right,5cba50bf114fa5001aac5570,2021-10-22_16h59.49.576,arrow_simon_punish,2021.1.2,Win32,60.08893162,,,,,,,,,,,,,,w,1,1.4327,2.14098989,0,5,9,0,36,3,1,,,,,,,,,,,,,,
,,,,,,,,,,,right.png,,p,left,5cba50bf114fa5001aac5570,2021-10-22_16h59.49.576,arrow_simon_punish,2021.1.2,Win32,60.08893162,,,,,,,,,,,,,,w,0,1.2696,1.895219665,1,5,9,1,37,0,1,,,,,,,,,,,,,,
,,,,,,,,,,,left.png,,w,left,5cba50bf114fa5001aac5570,2021-10-22_16h59.49.576,arrow_simon_punish,2021.1.2,Win32,60.08893162,,,,,,,,,,,,,,w,1,1.4636,1.633274915,0,5,9,2,38,2,1,,,,,,,,,,,,,,
,,,,,,,,,,,left.png,,w,left,5cba50bf114fa5001aac5570,2021-10-22_16h59.49.576,arrow_simon_punish,2021.1.2,Win32,60.08893162,,,,,,,,,,,,,,w,1,1.532,1.511362689,0,5,9,3,39,2,1,,,,,,,,,,,,,,
,,,,,,,,,,,right.png,,p,left,5cba50bf114fa5001aac5570,2021-10-22_16h59.49.576,arrow_simon_punish,2021.1.2,Win32,60.08893162,,,,,,,,,,,,,,p,1,1.5204,1.835651322,0,5,10,0,40,0,1,,,,,,,,,,,,,,
,,,,,,,,,,,right.png,,p,left,5cba50bf114fa5001aac5570,2021-10-22_16h59.49.576,arrow_simon_punish,2021.1.2,Win32,60.08893162,,,,,,,,,,,,,,w,0,1.4287,2.373725502,1,5,10,1,41,0,1,,,,,,,,,,,,,,
,,,,,,,,,,,right.png,,p,right,5cba50bf114fa5001aac5570,2021-10-22_16h59.49.576,arrow_simon_punish,2021.1.2,Win32,60.08893162,,,,,,,,,,,,,,p,1,1.5386,1.734649891,0,5,10,2,42,1,1,,,,,,,,,,,,,,
,,,,,,,,,,,left.png,,w,right,5cba50bf114fa5001aac5570,2021-10-22_16h59.49.576,arrow_simon_punish,2021.1.2,Win32,60.08893162,,,,,,,,,,,,,,p,0,1.6035,2.04889562,1,5,10,3,43,3,1,,,,,,,,,,,,,,
,,,,,,,,,,,left.png,,w,left,5cba50bf114fa5001aac5570,2021-10-22_16h59.49.576,arrow_simon_punish,2021.1.2,Win32,60.08893162,,,,,,,,,,,,,,w,1,1.4611,1.963905031,0,5,11,0,44,2,1,,,,,,,,,,,,,,
,,,,,,,,,,,right.png,,p,left,5cba50bf114fa5001aac5570,2021-10-22_16h59.49.576,arrow_simon_punish,2021.1.2,Win32,60.08893162,,,,,,,,,,,,,,p,1,1.7326,1.94689644,1,5,11,1,45,0,1,,,,,,,,,,,,,,
,,,,,,,,,,,left.png,,w,left,5cba50bf114fa5001aac5570,2021-10-22_16h59.49.576,arrow_simon_punish,2021.1.2,Win32,60.08893162,,,,,,,,,,,,,,w,1,1.67,1.519954176,1,5,11,2,46,2,1,,,,,,,,,,,,,,
,,,,,,,,,,,right.png,,p,right,5cba50bf114fa5001aac5570,2021-10-22_16h59.49.576,arrow_simon_punish,2021.1.2,Win32,60.08893162,,,,,,,,,,,,,,w,0,1.5715,2.266387479,1,5,11,3,47,1,1,,,,,,,,,,,,,,
,,,,,,,,,,,right.png,,p,left,5cba50bf114fa5001aac5570,2021-10-22_16h59.49.576,arrow_simon_punish,2021.1.2,Win32,60.08893162,,,,,,,,,,,,,,w,0,1.497,2.073598571,1,5,12,0,48,0,1,,,,,,,,,,,,,,
,,,,,,,,,,,right.png,,p,left,5cba50bf114fa5001aac5570,2021-10-22_16h59.49.576,arrow_simon_punish,2021.1.2,Win32,60.08893162,,,,,,,,,,,,,,p,1,1.5237,1.886726221,0,5,12,1,49,0,1,,,,,,,,,,,,,,
,,,,,,,,,,,left.png,,w,right,5cba50bf114fa5001aac5570,2021-10-22_16h59.49.576,arrow_simon_punish,2021.1.2,Win32,60.08893162,,,,,,,,,,,,,,p,0,1.5751,2.33624472,1,5,12,2,50,3,1,,,,,,,,,,,,,,
,,,,,,,,,,,right.png,,p,left,5cba50bf114fa5001aac5570,2021-10-22_16h59.49.576,arrow_simon_punish,2021.1.2,Win32,60.08893162,,,,,,,,,,,,,,w,0,1.6357,1.990583073,1,5,12,3,51,0,1,,,,,,,,,,,,,,
,,,,,,,,,,,left.png,,w,right,5cba50bf114fa5001aac5570,2021-10-22_16h59.49.576,arrow_simon_punish,2021.1.2,Win32,60.08893162,,,,,,,,,,,,,,w,1,1.6649,2.367247179,1,5,13,0,52,3,1,,,,,,,,,,,,,,
,,,,,,,,,,,right.png,,p,right,5cba50bf114fa5001aac5570,2021-10-22_16h59.49.576,arrow_simon_punish,2021.1.2,Win32,60.08893162,,,,,,,,,,,,,,w,0,1.5116,2.037511925,1,5,13,1,53,1,1,,,,,,,,,,,,,,
,,,,,,,,,,,right.png,,p,right,5cba50bf114fa5001aac5570,2021-10-22_16h59.49.576,arrow_simon_punish,2021.1.2,Win32,60.08893162,,,,,,,,,,,,,,p,1,1.5104,1.996616824,0,5,13,2,54,1,1,,,,,,,,,,,,,,
,,,,,,,,,,,right.png,,p,left,5cba50bf114fa5001aac5570,2021-10-22_16h59.49.576,arrow_simon_punish,2021.1.2,Win32,60.08893162,,,,,,,,,,,,,,p,1,1.7208,1.662829004,1,5,13,3,55,0,1,,,,,,,,,,,,,,
,,,,,,,,,,,left.png,,w,left,5cba50bf114fa5001aac5570,2021-10-22_16h59.49.576,arrow_simon_punish,2021.1.2,Win32,60.08893162,,,,,,,,,,,,,,p,0,1.4926,2.298853376,1,5,14,0,56,2,1,,,,,,,,,,,,,,
,,,,,,,,,,,right.png,,p,left,5cba50bf114fa5001aac5570,2021-10-22_16h59.49.576,arrow_simon_punish,2021.1.2,Win32,60.08893162,,,,,,,,,,,,,,w,0,1.4586,2.354724947,1,5,14,1,57,0,1,,,,,,,,,,,,,,
,,,,,,,,,,,right.png,,p,right,5cba50bf114fa5001aac5570,2021-10-22_16h59.49.576,arrow_simon_punish,2021.1.2,Win32,60.08893162,,,,,,,,,,,,,,p,1,1.6319,2.132157009,1,5,14,2,58,1,1,,,,,,,,,,,,,,
,,,,,,,,,,,right.png,,p,left,5cba50bf114fa5001aac5570,2021-10-22_16h59.49.576,arrow_simon_punish,2021.1.2,Win32,60.08893162,,,,,,,,,,,,,,p,1,1.4937,2.327931181,0,5,14,3,59,0,1,,,,,,,,,,,,,,
,,,,,,,,,,,,,,,5cba50bf114fa5001aac5570,2021-10-22_16h59.49.576,arrow_simon_punish,2021.1.2,Win32,60.08893162,,,,,,,,,,,,,,,,,,,,,,,,,space,3.6782,3,0,1,1,1,1,5,,,,,
,,,,,,,,,,,left.png,,w,left,5cba50bf114fa5001aac5570,2021-10-22_16h59.49.576,arrow_simon_punish,2021.1.2,Win32,60.08893162,,,,,,,,,,,,,,w,1,1.4521,1.738029641,0,1,0,0,0,2,1,,,,,,,,,,,,,,
,,,,,,,,,,,left.png,,w,left,5cba50bf114fa5001aac5570,2021-10-22_16h59.49.576,arrow_simon_punish,2021.1.2,Win32,60.08893162,,,,,,,,,,,,,,w,1,1.6342,2.213674571,1,1,0,1,1,2,1,,,,,,,,,,,,,,
,,,,,,,,,,,right.png,,p,right,5cba50bf114fa5001aac5570,2021-10-22_16h59.49.576,arrow_simon_punish,2021.1.2,Win32,60.08893162,,,,,,,,,,,,,,w,0,1.6459,1.905766602,1,1,0,2,2,1,1,,,,,,,,,,,,,,
,,,,,,,,,,,right.png,,p,right,5cba50bf114fa5001aac5570,2021-10-22_16h59.49.576,arrow_simon_punish,2021.1.2,Win32,60.08893162,,,,,,,,,,,,,,p,1,1.482,1.580136575,0,1,0,3,3,1,1,,,,,,,,,,,,,,
,,,,,,,,,,,right.png,,p,right,5cba50bf114fa5001aac5570,2021-10-22_16h59.49.576,arrow_simon_punish,2021.1.2,Win32,60.08893162,,,,,,,,,,,,,,p,1,1.4158,1.645493428,0,1,1,0,4,1,1,,,,,,,,,,,,,,
,,,,,,,,,,,left.png,,w,left,5cba50bf114fa5001aac5570,2021-10-22_16h59.49.576,arrow_simon_punish,2021.1.2,Win32,60.08893162,,,,,,,,,,,,,,p,0,1.3717,1.961459598,1,1,1,1,5,2,1,,,,,,,,,,,,,,
,,,,,,,,,,,right.png,,p,right,5cba50bf114fa5001aac5570,2021-10-22_16h59.49.576,arrow_simon_punish,2021.1.2,Win32,60.08893162,,,,,,,,,,,,,,w,0,1.697,2.340545499,1,1,1,2,6,1,1,,,,,,,,,,,,,,
,,,,,,,,,,,right.png,,p,left,5cba50bf114fa5001aac5570,2021-10-22_16h59.49.576,arrow_simon_punish,2021.1.2,Win32,60.08893162,,,,,,,,,,,,,,p,1,1.5781,2.201229355,0,1,1,3,7,0,1,,,,,,,,,,,,,,
,,,,,,,,,,,right.png,,p,left,5cba50bf114fa5001aac5570,2021-10-22_16h59.49.576,arrow_simon_punish,2021.1.2,Win32,60.08893162,,,,,,,,,,,,,,w,0,1.3662,2.011126739,1,1,2,0,8,0,1,,,,,,,,,,,,,,
,,,,,,,,,,,right.png,,p,left,5cba50bf114fa5001aac5570,2021-10-22_16h59.49.576,arrow_simon_punish,2021.1.2,Win32,60.08893162,,,,,,,,,,,,,,p,1,1.4867,1.846254493,0,1,2,1,9,0,1,,,,,,,,,,,,,,
,,,,,,,,,,,right.png,,p,right,5cba50bf114fa5001aac5570,2021-10-22_16h59.49.576,arrow_simon_punish,2021.1.2,Win32,60.08893162,,,,,,,,,,,,,,p,1,1.5065,1.791733654,0,1,2,2,10,1,1,,,,,,,,,,,,,,
,,,,,,,,,,,left.png,,w,left,5cba50bf114fa5001aac5570,2021-10-22_16h59.49.576,arrow_simon_punish,2021.1.2,Win32,60.08893162,,,,,,,,,,,,,,w,1,1.6371,2.240427382,1,1,2,3,11,2,1,,,,,,,,,,,,,,
,,,,,,,,,,,left.png,,w,right,5cba50bf114fa5001aac5570,2021-10-22_16h59.49.576,arrow_simon_punish,2021.1.2,Win32,60.08893162,,,,,,,,,,,,,,w,1,1.5186,2.050343802,0,1,3,0,12,3,1,,,,,,,,,,,,,,
,,,,,,,,,,,right.png,,p,right,5cba50bf114fa5001aac5570,2021-10-22_16h59.49.576,arrow_simon_punish,2021.1.2,Win32,60.08893162,,,,,,,,,,,,,,w,0,1.2418,2.485666362,1,1,3,1,13,1,1,,,,,,,,,,,,,,
,,,,,,,,,,,left.png,,w,left,5cba50bf114fa5001aac5570,2021-10-22_16h59.49.576,arrow_simon_punish,2021.1.2,Win32,60.08893162,,,,,,,,,,,,,,w,1,1.4645,2.237286661,0,1,3,2,14,2,1,,,,,,,,,,,,,,
,,,,,,,,,,,left.png,,w,right,5cba50bf114fa5001aac5570,2021-10-22_16h59.49.576,arrow_simon_punish,2021.1.2,Win32,60.08893162,,,,,,,,,,,,,,w,1,1.5131,1.923409667,0,1,3,3,15,3,1,,,,,,,,,,,,,,
,,,,,,,,,,,left.png,,w,right,5cba50bf114fa5001aac5570,2021-10-22_16h59.49.576,arrow_simon_punish,2021.1.2,Win32,60.08893162,,,,,,,,,,,,,,w,1,1.2918,1.888280397,1,1,4,0,16,3,1,,,,,,,,,,,,,,
,,,,,,,,,,,left.png,,w,right,5cba50bf114fa5001aac5570,2021-10-22_16h59.49.576,arrow_simon_punish,2021.1.2,Win32,60.08893162,,,,,,,,,,,,,,w,1,1.722,2.071082631,1,1,4,1,17,3,1,,,,,,,,,,,,,,
,,,,,,,,,,,right.png,,p,left,5cba50bf114fa5001aac5570,2021-10-22_16h59.49.576,arrow_simon_punish,2021.1.2,Win32,60.08893162,,,,,,,,,,,,,,w,0,1.4878,1.725215217,1,1,4,2,18,0,1,,,,,,,,,,,,,,
,,,,,,,,,,,right.png,,p,left,5cba50bf114fa5001aac5570,2021-10-22_16h59.49.576,arrow_simon_punish,2021.1.2,Win32,60.08893162,,,,,,,,,,,,,,w,0,1.5425,1.615012262,1,1,4,3,19,0,1,,,,,,,,,,,,,,
,,,,,,,,,,,right.png,,p,left,5cba50bf114fa5001aac5570,2021-10-22_16h59.49.576,arrow_simon_punish,2021.1.2,Win32,60.08893162,,,,,,,,,,,,,,w,0,1.5317,2.37765418,1,1,5,0,20,0,1,,,,,,,,,,,,,,
,,,,,,,,,,,left.png,,w,left,5cba50bf114fa5001aac5570,2021-10-22_16h59.49.576,arrow_simon_punish,2021.1.2,Win32,60.08893162,,,,,,,,,,,,,,w,1,1.2046,1.796450828,1,1,5,1,21,2,1,,,,,,,,,,,,,,
,,,,,,,,,,,left.png,,w,left,5cba50bf114fa5001aac5570,2021-10-22_16h59.49.576,arrow_simon_punish,2021.1.2,Win32,60.08893162,,,,,,,,,,,,,,w,1,1.5318,2.391013324,0,1,5,2,22,2,1,,,,,,,,,,,,,,
,,,,,,,,,,,left.png,,w,left,5cba50bf114fa5001aac5570,2021-10-22_16h59.49.576,arrow_simon_punish,2021.1.2,Win32,60.08893162,,,,,,,,,,,,,,w,1,1.3446,1.906799456,1,1,5,3,23,2,1,,,,,,,,,,,,,,
,,,,,,,,,,,right.png,,p,left,5cba50bf114fa5001aac5570,2021-10-22_16h59.49.576,arrow_simon_punish,2021.1.2,Win32,60.08893162,,,,,,,,,,,,,,w,0,1.4448,1.511705354,1,1,6,0,24,0,1,,,,,,,,,,,,,,
,,,,,,,,,,,left.png,,w,right,5cba50bf114fa5001aac5570,2021-10-22_16h59.49.576,arrow_simon_punish,2021.1.2,Win32,60.08893162,,,,,,,,,,,,,,w,1,1.5862,2.253995202,0,1,6,1,25,3,1,,,,,,,,,,,,,,
,,,,,,,,,,,right.png,,p,left,5cba50bf114fa5001aac5570,2021-10-22_16h59.49.576,arrow_simon_punish,2021.1.2,Win32,60.08893162,,,,,,,,,,,,,,w,0,1.5513,2.131999862,1,1,6,2,26,0,1,,,,,,,,,,,,,,
,,,,,,,,,,,right.png,,p,right,5cba50bf114fa5001aac5570,2021-10-22_16h59.49.576,arrow_simon_punish,2021.1.2,Win32,60.08893162,,,,,,,,,,,,,,w,0,0.9461,1.971149736,1,1,6,3,27,1,1,,,,,,,,,,,,,,
,,,,,,,,,,,right.png,,p,left,5cba50bf114fa5001aac5570,2021-10-22_16h59.49.576,arrow_simon_punish,2021.1.2,Win32,60.08893162,,,,,,,,,,,,,,p,1,1.693,1.581540832,1,1,7,0,28,0,1,,,,,,,,,,,,,,
,,,,,,,,,,,left.png,,w,right,5cba50bf114fa5001aac5570,2021-10-22_16h59.49.576,arrow_simon_punish,2021.1.2,Win32,60.08893162,,,,,,,,,,,,,,p,0,1.5343,1.774514754,1,1,7,1,29,3,1,,,,,,,,,,,,,,
,,,,,,,,,,,left.png,,w,left,5cba50bf114fa5001aac5570,2021-10-22_16h59.49.576,arrow_simon_punish,2021.1.2,Win32,60.08893162,,,,,,,,,,,,,,w,1,1.386,1.738298887,1,1,7,2,30,2,1,,,,,,,,,,,,,,
,,,,,,,,,,,right.png,,p,right,5cba50bf114fa5001aac5570,2021-10-22_16h59.49.576,arrow_simon_punish,2021.1.2,Win32,60.08893162,,,,,,,,,,,,,,w,0,1.4596,2.050850649,1,1,7,3,31,1,1,,,,,,,,,,,,,,
,,,,,,,,,,,left.png,,w,right,5cba50bf114fa5001aac5570,2021-10-22_16h59.49.576,arrow_simon_punish,2021.1.2,Win32,60.08893162,,,,,,,,,,,,,,p,0,1.5194,2.456112031,1,1,8,0,32,3,1,,,,,,,,,,,,,,
,,,,,,,,,,,left.png,,w,right,5cba50bf114fa5001aac5570,2021-10-22_16h59.49.576,arrow_simon_punish,2021.1.2,Win32,60.08893162,,,,,,,,,,,,,,w,1,1.5148,1.818127852,0,1,8,1,33,3,1,,,,,,,,,,,,,,
,,,,,,,,,,,right.png,,p,left,5cba50bf114fa5001aac5570,2021-10-22_16h59.49.576,arrow_simon_punish,2021.1.2,Win32,60.08893162,,,,,,,,,,,,,,w,0,1.5352,2.244193452,1,1,8,2,34,0,1,,,,,,,,,,,,,,
,,,,,,,,,,,right.png,,p,left,5cba50bf114fa5001aac5570,2021-10-22_16h59.49.576,arrow_simon_punish,2021.1.2,Win32,60.08893162,,,,,,,,,,,,,,w,0,1.5021,2.111434387,1,1,8,3,35,0,1,,,,,,,,,,,,,,
,,,,,,,,,,,right.png,,p,right,5cba50bf114fa5001aac5570,2021-10-22_16h59.49.576,arrow_simon_punish,2021.1.2,Win32,60.08893162,,,,,,,,,,,,,,p,1,1.4983,1.919748395,0,1,9,0,36,1,1,,,,,,,,,,,,,,
,,,,,,,,,,,left.png,,w,left,5cba50bf114fa5001aac5570,2021-10-22_16h59.49.576,arrow_simon_punish,2021.1.2,Win32,60.08893162,,,,,,,,,,,,,,w,1,1.51,2.12897419,0,1,9,1,37,2,1,,,,,,,,,,,,,,
,,,,,,,,,,,left.png,,w,left,5cba50bf114fa5001aac5570,2021-10-22_16h59.49.576,arrow_simon_punish,2021.1.2,Win32,60.08893162,,,,,,,,,,,,,,p,0,1.5811,2.033391886,1,1,9,2,38,2,1,,,,,,,,,,,,,,
,,,,,,,,,,,right.png,,p,right,5cba50bf114fa5001aac5570,2021-10-22_16h59.49.576,arrow_simon_punish,2021.1.2,Win32,60.08893162,,,,,,,,,,,,,,w,0,1.517,2.386415278,1,1,9,3,39,1,1,,,,,,,,,,,,,,
,,,,,,,,,,,left.png,,w,left,5cba50bf114fa5001aac5570,2021-10-22_16h59.49.576,arrow_simon_punish,2021.1.2,Win32,60.08893162,,,,,,,,,,,,,,w,1,1.5858,2.302288832,0,1,10,0,40,2,1,,,,,,,,,,,,,,
,,,,,,,,,,,right.png,,p,right,5cba50bf114fa5001aac5570,2021-10-22_16h59.49.576,arrow_simon_punish,2021.1.2,Win32,60.08893162,,,,,,,,,,,,,,p,1,1.6745,1.910210425,1,1,10,1,41,1,1,,,,,,,,,,,,,,
,,,,,,,,,,,left.png,,w,right,5cba50bf114fa5001aac5570,2021-10-22_16h59.49.576,arrow_simon_punish,2021.1.2,Win32,60.08893162,,,,,,,,,,,,,,p,0,1.5151,1.990403296,1,1,10,2,42,3,1,,,,,,,,,,,,,,
,,,,,,,,,,,right.png,,p,left,5cba50bf114fa5001aac5570,2021-10-22_16h59.49.576,arrow_simon_punish,2021.1.2,Win32,60.08893162,,,,,,,,,,,,,,w,0,1.4499,1.720945371,1,1,10,3,43,0,1,,,,,,,,,,,,,,
,,,,,,,,,,,left.png,,w,right,5cba50bf114fa5001aac5570,2021-10-22_16h59.49.576,arrow_simon_punish,2021.1.2,Win32,60.08893162,,,,,,,,,,,,,,p,0,1.4385,2.27923316,1,1,11,0,44,3,1,,,,,,,,,,,,,,
,,,,,,,,,,,left.png,,w,right,5cba50bf114fa5001aac5570,2021-10-22_16h59.49.576,arrow_simon_punish,2021.1.2,Win32,60.08893162,,,,,,,,,,,,,,w,1,1.3287,2.188208467,1,1,11,1,45,3,1,,,,,,,,,,,,,,
,,,,,,,,,,,left.png,,w,left,5cba50bf114fa5001aac5570,2021-10-22_16h59.49.576,arrow_simon_punish,2021.1.2,Win32,60.08893162,,,,,,,,,,,,,,w,1,1.4642,2.445457985,0,1,11,2,46,2,1,,,,,,,,,,,,,,
,,,,,,,,,,,right.png,,p,right,5cba50bf114fa5001aac5570,2021-10-22_16h59.49.576,arrow_simon_punish,2021.1.2,Win32,60.08893162,,,,,,,,,,,,,,w,0,1.4746,1.782198917,1,1,11,3,47,1,1,,,,,,,,,,,,,,
,,,,,,,,,,,right.png,,p,left,5cba50bf114fa5001aac5570,2021-10-22_16h59.49.576,arrow_simon_punish,2021.1.2,Win32,60.08893162,,,,,,,,,,,,,,w,0,1.5234,2.367634345,1,1,12,0,48,0,1,,,,,,,,,,,,,,
,,,,,,,,,,,right.png,,p,right,5cba50bf114fa5001aac5570,2021-10-22_16h59.49.576,arrow_simon_punish,2021.1.2,Win32,60.08893162,,,,,,,,,,,,,,p,1,1.5084,1.771182931,0,1,12,1,49,1,1,,,,,,,,,,,,,,
,,,,,,,,,,,left.png,,w,right,5cba50bf114fa5001aac5570,2021-10-22_16h59.49.576,arrow_simon_punish,2021.1.2,Win32,60.08893162,,,,,,,,,,,,,,p,0,1.5684,2.434438363,1,1,12,2,50,3,1,,,,,,,,,,,,,,
,,,,,,,,,,,left.png,,w,right,5cba50bf114fa5001aac5570,2021-10-22_16h59.49.576,arrow_simon_punish,2021.1.2,Win32,60.08893162,,,,,,,,,,,,,,w,1,1.5195,2.128306024,0,1,12,3,51,3,1,,,,,,,,,,,,,,
,,,,,,,,,,,left.png,,w,left,5cba50bf114fa5001aac5570,2021-10-22_16h59.49.576,arrow_simon_punish,2021.1.2,Win32,60.08893162,,,,,,,,,,,,,,w,1,1.6268,2.003006297,1,1,13,0,52,2,1,,,,,,,,,,,,,,
,,,,,,,,,,,left.png,,w,right,5cba50bf114fa5001aac5570,2021-10-22_16h59.49.576,arrow_simon_punish,2021.1.2,Win32,60.08893162,,,,,,,,,,,,,,w,1,1.4206,1.664238953,0,1,13,1,53,3,1,,,,,,,,,,,,,,
,,,,,,,,,,,right.png,,p,left,5cba50bf114fa5001aac5570,2021-10-22_16h59.49.576,arrow_simon_punish,2021.1.2,Win32,60.08893162,,,,,,,,,,,,,,w,0,1.4394,2.356201098,1,1,13,2,54,0,1,,,,,,,,,,,,,,
,,,,,,,,,,,right.png,,p,left,5cba50bf114fa5001aac5570,2021-10-22_16h59.49.576,arrow_simon_punish,2021.1.2,Win32,60.08893162,,,,,,,,,,,,,,p,1,1.5612,1.746895741,0,1,13,3,55,0,1,,,,,,,,,,,,,,
,,,,,,,,,,,right.png,,p,right,5cba50bf114fa5001aac5570,2021-10-22_16h59.49.576,arrow_simon_punish,2021.1.2,Win32,60.08893162,,,,,,,,,,,,,,p,1,1.6606,1.684347442,1,1,14,0,56,1,1,,,,,,,,,,,,,,
,,,,,,,,,,,right.png,,p,right,5cba50bf114fa5001aac5570,2021-10-22_16h59.49.576,arrow_simon_punish,2021.1.2,Win32,60.08893162,,,,,,,,,,,,,,w,0,1.5982,2.347266281,1,1,14,1,57,1,1,,,,,,,,,,,,,,
,,,,,,,,,,,left.png,,w,right,5cba50bf114fa5001aac5570,2021-10-22_16h59.49.576,arrow_simon_punish,2021.1.2,Win32,60.08893162,,,,,,,,,,,,,,p,0,1.3956,1.966342506,1,1,14,2,58,3,1,,,,,,,,,,,,,,
,,,,,,,,,,,left.png,,w,left,5cba50bf114fa5001aac5570,2021-10-22_16h59.49.576,arrow_simon_punish,2021.1.2,Win32,60.08893162,,,,,,,,,,,,,,w,1,1.5875,2.271176831,0,1,14,3,59,2,1,,,,,,,,,,,,,,
,,,,,,,,,,,,,,,5cba50bf114fa5001aac5570,2021-10-22_16h59.49.576,arrow_simon_punish,2021.1.2,Win32,60.08893162,,,,,,,,,,,,,,,,,,,,,,,,,space,2.0657,4,1,0,2,0,1,1,,,,,
,,,,,,,,,,,left.png,,w,right,5cba50bf114fa5001aac5570,2021-10-22_16h59.49.576,arrow_simon_punish,2021.1.2,Win32,60.08893162,,,,,,,,,,,,,,w,1,1.5084,2.005863932,0,5,0,0,0,3,1,,,,,,,,,,,,,,
,,,,,,,,,,,left.png,,w,left,5cba50bf114fa5001aac5570,2021-10-22_16h59.49.576,arrow_simon_punish,2021.1.2,Win32,60.08893162,,,,,,,,,,,,,,w,1,1.4723,1.915188467,0,5,0,1,1,2,1,,,,,,,,,,,,,,
,,,,,,,,,,,left.png,,w,left,5cba50bf114fa5001aac5570,2021-10-22_16h59.49.576,arrow_simon_punish,2021.1.2,Win32,60.08893162,,,,,,,,,,,,,,w,1,1.5864,1.94509598,0,5,0,2,2,2,1,,,,,,,,,,,,,,
,,,,,,,,,,,left.png,,w,right,5cba50bf114fa5001aac5570,2021-10-22_16h59.49.576,arrow_simon_punish,2021.1.2,Win32,60.08893162,,,,,,,,,,,,,,w,1,1.4441,2.48764062,0,5,0,3,3,3,1,,,,,,,,,,,,,,
,,,,,,,,,,,right.png,,p,left,5cba50bf114fa5001aac5570,2021-10-22_16h59.49.576,arrow_simon_punish,2021.1.2,Win32,60.08893162,,,,,,,,,,,,,,p,1,1.452,1.64633932,0,5,1,0,4,0,1,,,,,,,,,,,,,,
,,,,,,,,,,,right.png,,p,right,5cba50bf114fa5001aac5570,2021-10-22_16h59.49.576,arrow_simon_punish,2021.1.2,Win32,60.08893162,,,,,,,,,,,,,,p,1,1.4043,1.998149554,0,5,1,1,5,1,1,,,,,,,,,,,,,,
,,,,,,,,,,,right.png,,p,right,5cba50bf114fa5001aac5570,2021-10-22_16h59.49.576,arrow_simon_punish,2021.1.2,Win32,60.08893162,,,,,,,,,,,,,,p,1,1.5342,2.100219176,0,5,1,2,6,1,1,,,,,,,,,,,,,,
,,,,,,,,,,,right.png,,p,left,5cba50bf114fa5001aac5570,2021-10-22_16h59.49.576,arrow_simon_punish,2021.1.2,Win32,60.08893162,,,,,,,,,,,,,,p,1,1.4515,2.110021551,0,5,1,3,7,0,1,,,,,,,,,,,,,,
,,,,,,,,,,,left.png,,w,left,5cba50bf114fa5001aac5570,2021-10-22_16h59.49.576,arrow_simon_punish,2021.1.2,Win32,60.08893162,,,,,,,,,,,,,,w,1,1.6226,1.926082004,1,5,2,0,8,2,1,,,,,,,,,,,,,,
,,,,,,,,,,,left.png,,w,right,5cba50bf114fa5001aac5570,2021-10-22_16h59.49.576,arrow_simon_punish,2021.1.2,Win32,60.08893162,,,,,,,,,,,,,,w,1,1.3267,1.650718495,1,5,2,1,9,3,1,,,,,,,,,,,,,,
,,,,,,,,,,,right.png,,p,right,5cba50bf114fa5001aac5570,2021-10-22_16h59.49.576,arrow_simon_punish,2021.1.2,Win32,60.08893162,,,,,,,,,,,,,,w,0,1.5836,2.232164817,1,5,2,2,10,1,1,,,,,,,,,,,,,,
,,,,,,,,,,,left.png,,w,right,5cba50bf114fa5001aac5570,2021-10-22_16h59.49.576,arrow_simon_punish,2021.1.2,Win32,60.08893162,,,,,,,,,,,,,,p,0,1.5119,2.132012906,1,5,2,3,11,3,1,,,,,,,,,,,,,,
,,,,,,,,,,,left.png,,w,right,5cba50bf114fa5001aac5570,2021-10-22_16h59.49.576,arrow_simon_punish,2021.1.2,Win32,60.08893162,,,,,,,,,,,,,,w,1,1.5215,2.34602101,0,5,3,0,12,3,1,,,,,,,,,,,,,,
,,,,,,,,,,,left.png,,w,left,5cba50bf114fa5001aac5570,2021-10-22_16h59.49.576,arrow_simon_punish,2021.1.2,Win32,60.08893162,,,,,,,,,,,,,,w,1,1.502,1.793905368,0,5,3,1,13,2,1,,,,,,,,,,,,,,
,,,,,,,,,,,left.png,,w,right,5cba50bf114fa5001aac5570,2021-10-22_16h59.49.576,arrow_simon_punish,2021.1.2,Win32,60.08893162,,,,,,,,,,,,,,w,1,1.5923,1.656485746,0,5,3,2,14,3,1,,,,,,,,,,,,,,
,,,,,,,,,,,right.png,,p,right,5cba50bf114fa5001aac5570,2021-10-22_16h59.49.576,arrow_simon_punish,2021.1.2,Win32,60.08893162,,,,,,,,,,,,,,p,1,1.4287,1.642924341,0,5,3,3,15,1,1,,,,,,,,,,,,,,
,,,,,,,,,,,right.png,,p,left,5cba50bf114fa5001aac5570,2021-10-22_16h59.49.576,arrow_simon_punish,2021.1.2,Win32,60.08893162,,,,,,,,,,,,,,w,0,1.5652,1.883708709,1,5,4,0,16,0,1,,,,,,,,,,,,,,
,,,,,,,,,,,right.png,,p,right,5cba50bf114fa5001aac5570,2021-10-22_16h59.49.576,arrow_simon_punish,2021.1.2,Win32,60.08893162,,,,,,,,,,,,,,p,1,1.5905,1.781507075,0,5,4,1,17,1,1,,,,,,,,,,,,,,
,,,,,,,,,,,left.png,,w,left,5cba50bf114fa5001aac5570,2021-10-22_16h59.49.576,arrow_simon_punish,2021.1.2,Win32,60.08893162,,,,,,,,,,,,,,w,1,1.5367,2.094944557,0,5,4,2,18,2,1,,,,,,,,,,,,,,
,,,,,,,,,,,left.png,,w,left,5cba50bf114fa5001aac5570,2021-10-22_16h59.49.576,arrow_simon_punish,2021.1.2,Win32,60.08893162,,,,,,,,,,,,,,w,1,1.611,2.201755365,1,5,4,3,19,2,1,,,,,,,,,,,,,,
,,,,,,,,,,,left.png,,w,right,5cba50bf114fa5001aac5570,2021-10-22_16h59.49.576,arrow_simon_punish,2021.1.2,Win32,60.08893162,,,,,,,,,,,,,,w,1,1.5055,1.532104981,0,5,5,0,20,3,1,,,,,,,,,,,,,,
,,,,,,,,,,,left.png,,w,right,5cba50bf114fa5001aac5570,2021-10-22_16h59.49.576,arrow_simon_punish,2021.1.2,Win32,60.08893162,,,,,,,,,,,,,,w,1,1.3738,1.988880728,1,5,5,1,21,3,1,,,,,,,,,,,,,,
,,,,,,,,,,,left.png,,w,left,5cba50bf114fa5001aac5570,2021-10-22_16h59.49.576,arrow_simon_punish,2021.1.2,Win32,60.08893162,,,,,,,,,,,,,,w,1,1.4742,2.282662406,0,5,5,2,22,2,1,,,,,,,,,,,,,,
,,,,,,,,,,,right.png,,p,right,5cba50bf114fa5001aac5570,2021-10-22_16h59.49.576,arrow_simon_punish,2021.1.2,Win32,60.08893162,,,,,,,,,,,,,,p,1,1.4954,1.563613442,0,5,5,3,23,1,1,,,,,,,,,,,,,,
,,,,,,,,,,,right.png,,p,left,5cba50bf114fa5001aac5570,2021-10-22_16h59.49.576,arrow_simon_punish,2021.1.2,Win32,60.08893162,,,,,,,,,,,,,,p,1,1.5475,1.659465766,0,5,6,0,24,0,1,,,,,,,,,,,,,,
,,,,,,,,,,,left.png,,w,left,5cba50bf114fa5001aac5570,2021-10-22_16h59.49.576,arrow_simon_punish,2021.1.2,Win32,60.08893162,,,,,,,,,,,,,,w,1,1.4593,1.631344278,0,5,6,1,25,2,1,,,,,,,,,,,,,,
,,,,,,,,,,,right.png,,p,right,5cba50bf114fa5001aac5570,2021-10-22_16h59.49.576,arrow_simon_punish,2021.1.2,Win32,60.08893162,,,,,,,,,,,,,,w,0,1.7384,2.492623693,1,5,6,2,26,1,1,,,,,,,,,,,,,,
,,,,,,,,,,,left.png,,w,left,5cba50bf114fa5001aac5570,2021-10-22_16h59.49.576,arrow_simon_punish,2021.1.2,Win32,60.08893162,,,,,,,,,,,,,,w,1,1.6381,1.879417226,1,5,6,3,27,2,1,,,,,,,,,,,,,,
,,,,,,,,,,,left.png,,w,left,5cba50bf114fa5001aac5570,2021-10-22_16h59.49.576,arrow_simon_punish,2021.1.2,Win32,60.08893162,,,,,,,,,,,,,,w,1,1.4224,1.838028687,0,5,7,0,28,2,1,,,,,,,,,,,,,,
,,,,,,,,,,,left.png,,w,right,5cba50bf114fa5001aac5570,2021-10-22_16h59.49.576,arrow_simon_punish,2021.1.2,Win32,60.08893162,,,,,,,,,,,,,,w,1,1.4055,2.406382129,0,5,7,1,29,3,1,,,,,,,,,,,,,,
,,,,,,,,,,,left.png,,w,right,5cba50bf114fa5001aac5570,2021-10-22_16h59.49.576,arrow_simon_punish,2021.1.2,Win32,60.08893162,,,,,,,,,,,,,,w,1,1.4314,1.598012838,0,5,7,2,30,3,1,,,,,,,,,,,,,,
,,,,,,,,,,,right.png,,p,left,5cba50bf114fa5001aac5570,2021-10-22_16h59.49.576,arrow_simon_punish,2021.1.2,Win32,60.08893162,,,,,,,,,,,,,,w,0,1.4676,1.919852641,1,5,7,3,31,0,1,,,,,,,,,,,,,,
,,,,,,,,,,,right.png,,p,left,5cba50bf114fa5001aac5570,2021-10-22_16h59.49.576,arrow_simon_punish,2021.1.2,Win32,60.08893162,,,,,,,,,,,,,,w,0,1.4328,2.035067135,1,5,8,0,32,0,1,,,,,,,,,,,,,,
,,,,,,,,,,,right.png,,p,right,5cba50bf114fa5001aac5570,2021-10-22_16h59.49.576,arrow_simon_punish,2021.1.2,Win32,60.08893162,,,,,,,,,,,,,,p,1,1.6351,1.951623013,1,5,8,1,33,1,1,,,,,,,,,,,,,,
,,,,,,,,,,,left.png,,w,left,5cba50bf114fa5001aac5570,2021-10-22_16h59.49.576,arrow_simon_punish,2021.1.2,Win32,60.08893162,,,,,,,,,,,,,,w,1,1.3516,2.211346327,1,5,8,2,34,2,1,,,,,,,,,,,,,,
,,,,,,,,,,,left.png,,w,right,5cba50bf114fa5001aac5570,2021-10-22_16h59.49.576,arrow_simon_punish,2021.1.2,Win32,60.08893162,,,,,,,,,,,,,,p,0,1.4263,2.282161125,1,5,8,3,35,3,1,,,,,,,,,,,,,,
,,,,,,,,,,,right.png,,p,left,5cba50bf114fa5001aac5570,2021-10-22_16h59.49.576,arrow_simon_punish,2021.1.2,Win32,60.08893162,,,,,,,,,,,,,,w,0,1.5652,2.342452341,1,5,9,0,36,0,1,,,,,,,,,,,,,,
,,,,,,,,,,,left.png,,w,left,5cba50bf114fa5001aac5570,2021-10-22_16h59.49.576,arrow_simon_punish,2021.1.2,Win32,60.08893162,,,,,,,,,,,,,,w,1,1.4403,1.557448497,0,5,9,1,37,2,1,,,,,,,,,,,,,,
,,,,,,,,,,,right.png,,p,right,5cba50bf114fa5001aac5570,2021-10-22_16h59.49.576,arrow_simon_punish,2021.1.2,Win32,60.08893162,,,,,,,,,,,,,,p,1,1.5688,1.816018688,0,5,9,2,38,1,1,,,,,,,,,,,,,,
,,,,,,,,,,,right.png,,p,right,5cba50bf114fa5001aac5570,2021-10-22_16h59.49.576,arrow_simon_punish,2021.1.2,Win32,60.08893162,,,,,,,,,,,,,,p,1,1.5957,2.4069166,0,5,9,3,39,1,1,,,,,,,,,,,,,,
,,,,,,,,,,,right.png,,p,right,5cba50bf114fa5001aac5570,2021-10-22_16h59.49.576,arrow_simon_punish,2021.1.2,Win32,60.08893162,,,,,,,,,,,,,,p,1,1.5099,2.441233984,0,5,10,0,40,1,1,,,,,,,,,,,,,,
,,,,,,,,,,,right.png,,p,right,5cba50bf114fa5001aac5570,2021-10-22_16h59.49.576,arrow_simon_punish,2021.1.2,Win32,60.08893162,,,,,,,,,,,,,,p,1,1.5468,1.824983546,0,5,10,1,41,1,1,,,,,,,,,,,,,,
,,,,,,,,,,,right.png,,p,left,5cba50bf114fa5001aac5570,2021-10-22_16h59.49.576,arrow_simon_punish,2021.1.2,Win32,60.08893162,,,,,,,,,,,,,,p,1,1.3989,1.573777479,1,5,10,2,42,0,1,,,,,,,,,,,,,,
,,,,,,,,,,,right.png,,p,right,5cba50bf114fa5001aac5570,2021-10-22_16h59.49.576,arrow_simon_punish,2021.1.2,Win32,60.08893162,,,,,,,,,,,,,,p,1,0.7556,1.599017687,1,5,10,3,43,1,1,,,,,,,,,,,,,,
,,,,,,,,,,,right.png,,p,left,5cba50bf114fa5001aac5570,2021-10-22_16h59.49.576,arrow_simon_punish,2021.1.2,Win32,60.08893162,,,,,,,,,,,,,,p,1,1.5062,1.670678535,0,5,11,0,44,0,1,,,,,,,,,,,,,,
,,,,,,,,,,,left.png,,w,left,5cba50bf114fa5001aac5570,2021-10-22_16h59.49.576,arrow_simon_punish,2021.1.2,Win32,60.08893162,,,,,,,,,,,,,,w,1,1.5334,1.573663031,0,5,11,1,45,2,1,,,,,,,,,,,,,,
,,,,,,,,,,,right.png,,p,left,5cba50bf114fa5001aac5570,2021-10-22_16h59.49.576,arrow_simon_punish,2021.1.2,Win32,60.08893162,,,,,,,,,,,,,,p,1,1.5266,2.441763025,0,5,11,2,46,0,1,,,,,,,,,,,,,,
,,,,,,,,,,,left.png,,w,left,5cba50bf114fa5001aac5570,2021-10-22_16h59.49.576,arrow_simon_punish,2021.1.2,Win32,60.08893162,,,,,,,,,,,,,,w,1,1.5312,2.067713511,0,5,11,3,47,2,1,,,,,,,,,,,,,,
,,,,,,,,,,,left.png,,w,right,5cba50bf114fa5001aac5570,2021-10-22_16h59.49.576,arrow_simon_punish,2021.1.2,Win32,60.08893162,,,,,,,,,,,,,,p,0,1.4182,2.13444984,1,5,12,0,48,3,1,,,,,,,,,,,,,,
,,,,,,,,,,,right.png,,p,left,5cba50bf114fa5001aac5570,2021-10-22_16h59.49.576,arrow_simon_punish,2021.1.2,Win32,60.08893162,,,,,,,,,,,,,,w,0,1.5232,2.095467527,1,5,12,1,49,0,1,,,,,,,,,,,,,,
,,,,,,,,,,,left.png,,w,left,5cba50bf114fa5001aac5570,2021-10-22_16h59.49.576,arrow_simon_punish,2021.1.2,Win32,60.08893162,,,,,,,,,,,,,,w,1,1.454,1.699215474,0,5,12,2,50,2,1,,,,,,,,,,,,,,
,,,,,,,,,,,left.png,,w,right,5cba50bf114fa5001aac5570,2021-10-22_16h59.49.576,arrow_simon_punish,2021.1.2,Win32,60.08893162,,,,,,,,,,,,,,w,1,1.4717,1.853161115,0,5,12,3,51,3,1,,,,,,,,,,,,,,
,,,,,,,,,,,right.png,,p,left,5cba50bf114fa5001aac5570,2021-10-22_16h59.49.576,arrow_simon_punish,2021.1.2,Win32,60.08893162,,,,,,,,,,,,,,p,1,1.5584,1.912603295,0,5,13,0,52,0,1,,,,,,,,,,,,,,
,,,,,,,,,,,right.png,,p,left,5cba50bf114fa5001aac5570,2021-10-22_16h59.49.576,arrow_simon_punish,2021.1.2,Win32,60.08893162,,,,,,,,,,,,,,w,0,1.3693,2.045605002,1,5,13,1,53,0,1,,,,,,,,,,,,,,
,,,,,,,,,,,left.png,,w,right,5cba50bf114fa5001aac5570,2021-10-22_16h59.49.576,arrow_simon_punish,2021.1.2,Win32,60.08893162,,,,,,,,,,,,,,w,1,1.4672,1.760778718,0,5,13,2,54,3,1,,,,,,,,,,,,,,
,,,,,,,,,,,right.png,,p,right,5cba50bf114fa5001aac5570,2021-10-22_16h59.49.576,arrow_simon_punish,2021.1.2,Win32,60.08893162,,,,,,,,,,,,,,p,1,1.5084,1.796279606,0,5,13,3,55,1,1,,,,,,,,,,,,,,
,,,,,,,,,,,right.png,,p,right,5cba50bf114fa5001aac5570,2021-10-22_16h59.49.576,arrow_simon_punish,2021.1.2,Win32,60.08893162,,,,,,,,,,,,,,p,1,1.5231,1.845781968,0,5,14,0,56,1,1,,,,,,,,,,,,,,
,,,,,,,,,,,right.png,,p,left,5cba50bf114fa5001aac5570,2021-10-22_16h59.49.576,arrow_simon_punish,2021.1.2,Win32,60.08893162,,,,,,,,,,,,,,p,1,1.5833,1.670113242,0,5,14,1,57,0,1,,,,,,,,,,,,,,
,,,,,,,,,,,right.png,,p,left,5cba50bf114fa5001aac5570,2021-10-22_16h59.49.576,arrow_simon_punish,2021.1.2,Win32,60.08893162,,,,,,,,,,,,,,p,1,1.466,1.560886748,0,5,14,2,58,0,1,,,,,,,,,,,,,,
,,,,,,,,,,,left.png,,w,right,5cba50bf114fa5001aac5570,2021-10-22_16h59.49.576,arrow_simon_punish,2021.1.2,Win32,60.08893162,,,,,,,,,,,,,,w,1,1.5491,1.884056411,0,5,14,3,59,3,1,,,,,,,,,,,,,,
,,,,,,,,,,,,,,,5cba50bf114fa5001aac5570,2021-10-22_16h59.49.576,arrow_simon_punish,2021.1.2,Win32,60.08893162,,,,,,,,,,,,,,,,,,,,,,,,,space,1.7536,5,1,1,3,1,1,5,,,,,
,,,,,,,,,,,left.png,,w,left,5cba50bf114fa5001aac5570,2021-10-22_16h59.49.576,arrow_simon_punish,2021.1.2,Win32,60.08893162,,,,,,,,,,,,,,w,1,1.5475,1.820312424,0,1,0,0,0,2,1,,,,,,,,,,,,,,
,,,,,,,,,,,left.png,,w,right,5cba50bf114fa5001aac5570,2021-10-22_16h59.49.576,arrow_simon_punish,2021.1.2,Win32,60.08893162,,,,,,,,,,,,,,w,1,1.3187,1.551795099,1,1,0,1,1,3,1,,,,,,,,,,,,,,
,,,,,,,,,,,left.png,,w,left,5cba50bf114fa5001aac5570,2021-10-22_16h59.49.576,arrow_simon_punish,2021.1.2,Win32,60.08893162,,,,,,,,,,,,,,w,1,1.5938,1.680551436,0,1,0,2,2,2,1,,,,,,,,,,,,,,
,,,,,,,,,,,right.png,,p,right,5cba50bf114fa5001aac5570,2021-10-22_16h59.49.576,arrow_simon_punish,2021.1.2,Win32,60.08893162,,,,,,,,,,,,,,p,1,1.5747,1.954443151,0,1,0,3,3,1,1,,,,,,,,,,,,,,
,,,,,,,,,,,right.png,,p,right,5cba50bf114fa5001aac5570,2021-10-22_16h59.49.576,arrow_simon_punish,2021.1.2,Win32,60.08893162,,,,,,,,,,,,,,p,1,1.5756,2.041188951,0,1,1,0,4,1,1,,,,,,,,,,,,,,
,,,,,,,,,,,right.png,,p,right,5cba50bf114fa5001aac5570,2021-10-22_16h59.49.576,arrow_simon_punish,2021.1.2,Win32,60.08893162,,,,,,,,,,,,,,p,1,1.4729,1.621555301,0,1,1,1,5,1,1,,,,,,,,,,,,,,
,,,,,,,,,,,right.png,,p,left,5cba50bf114fa5001aac5570,2021-10-22_16h59.49.576,arrow_simon_punish,2021.1.2,Win32,60.08893162,,,,,,,,,,,,,,w,0,1.3642,1.511392827,1,1,1,2,6,0,1,,,,,,,,,,,,,,
,,,,,,,,,,,right.png,,p,left,5cba50bf114fa5001aac5570,2021-10-22_16h59.49.576,arrow_simon_punish,2021.1.2,Win32,60.08893162,,,,,,,,,,,,,,p,1,1.5691,2.301142423,0,1,1,3,7,0,1,,,,,,,,,,,,,,
,,,,,,,,,,,right.png,,p,left,5cba50bf114fa5001aac5570,2021-10-22_16h59.49.576,arrow_simon_punish,2021.1.2,Win32,60.08893162,,,,,,,,,,,,,,p,1,1.5466,1.796070772,0,1,2,0,8,0,1,,,,,,,,,,,,,,
,,,,,,,,,,,right.png,,p,right,5cba50bf114fa5001aac5570,2021-10-22_16h59.49.576,arrow_simon_punish,2021.1.2,Win32,60.08893162,,,,,,,,,,,,,,p,1,1.5519,1.858812799,0,1,2,1,9,1,1,,,,,,,,,,,,,,
,,,,,,,,,,,right.png,,p,right,5cba50bf114fa5001aac5570,2021-10-22_16h59.49.576,arrow_simon_punish,2021.1.2,Win32,60.08893162,,,,,,,,,,,,,,p,1,1.3061,1.538098199,1,1,2,2,10,1,1,,,,,,,,,,,,,,
,,,,,,,,,,,left.png,,w,left,5cba50bf114fa5001aac5570,2021-10-22_16h59.49.576,arrow_simon_punish,2021.1.2,Win32,60.08893162,,,,,,,,,,,,,,w,1,1.4782,1.889001427,0,1,2,3,11,2,1,,,,,,,,,,,,,,
,,,,,,,,,,,right.png,,p,right,5cba50bf114fa5001aac5570,2021-10-22_16h59.49.576,arrow_simon_punish,2021.1.2,Win32,60.08893162,,,,,,,,,,,,,,p,1,1.5032,1.535321449,0,1,3,0,12,1,1,,,,,,,,,,,,,,
,,,,,,,,,,,right.png,,p,right,5cba50bf114fa5001aac5570,2021-10-22_16h59.49.576,arrow_simon_punish,2021.1.2,Win32,60.08893162,,,,,,,,,,,,,,p,1,1.4922,1.507519847,0,1,3,1,13,1,1,,,,,,,,,,,,,,
,,,,,,,,,,,left.png,,w,left,5cba50bf114fa5001aac5570,2021-10-22_16h59.49.576,arrow_simon_punish,2021.1.2,Win32,60.08893162,,,,,,,,,,,,,,w,1,1.6414,1.953403605,1,1,3,2,14,2,1,,,,,,,,,,,,,,
,,,,,,,,,,,right.png,,p,right,5cba50bf114fa5001aac5570,2021-10-22_16h59.49.576,arrow_simon_punish,2021.1.2,Win32,60.08893162,,,,,,,,,,,,,,w,0,1.5592,2.27518893,1,1,3,3,15,1,1,,,,,,,,,,,,,,
,,,,,,,,,,,left.png,,w,right,5cba50bf114fa5001aac5570,2021-10-22_16h59.49.576,arrow_simon_punish,2021.1.2,Win32,60.08893162,,,,,,,,,,,,,,p,0,1.4112,2.162086236,1,1,4,0,16,3,1,,,,,,,,,,,,,,
,,,,,,,,,,,left.png,,w,left,5cba50bf114fa5001aac5570,2021-10-22_16h59.49.576,arrow_simon_punish,2021.1.2,Win32,60.08893162,,,,,,,,,,,,,,w,1,1.6941,2.430808193,1,1,4,1,17,2,1,,,,,,,,,,,,,,
,,,,,,,,,,,left.png,,w,left,5cba50bf114fa5001aac5570,2021-10-22_16h59.49.576,arrow_simon_punish,2021.1.2,Win32,60.08893162,,,,,,,,,,,,,,w,1,1.424,2.064451592,0,1,4,2,18,2,1,,,,,,,,,,,,,,
,,,,,,,,,,,left.png,,w,right,5cba50bf114fa5001aac5570,2021-10-22_16h59.49.576,arrow_simon_punish,2021.1.2,Win32,60.08893162,,,,,,,,,,,,,,w,1,1.3797,1.588435175,1,1,4,3,19,3,1,,,,,,,,,,,,,,
,,,,,,,,,,,right.png,,p,right,5cba50bf114fa5001aac5570,2021-10-22_16h59.49.576,arrow_simon_punish,2021.1.2,Win32,60.08893162,,,,,,,,,,,,,,w,0,1.4347,2.287170499,1,1,5,0,20,1,1,,,,,,,,,,,,,,
,,,,,,,,,,,left.png,,w,right,5cba50bf114fa5001aac5570,2021-10-22_16h59.49.576,arrow_simon_punish,2021.1.2,Win32,60.08893162,,,,,,,,,,,,,,w,1,1.3743,1.939027699,1,1,5,1,21,3,1,,,,,,,,,,,,,,
,,,,,,,,,,,right.png,,p,left,5cba50bf114fa5001aac5570,2021-10-22_16h59.49.576,arrow_simon_punish,2021.1.2,Win32,60.08893162,,,,,,,,,,,,,,w,0,1.4147,2.136143593,1,1,5,2,22,0,1,,,,,,,,,,,,,,
,,,,,,,,,,,right.png,,p,left,5cba50bf114fa5001aac5570,2021-10-22_16h59.49.576,arrow_simon_punish,2021.1.2,Win32,60.08893162,,,,,,,,,,,,,,p,1,1.6077,2.458248225,1,1,5,3,23,0,1,,,,,,,,,,,,,,
,,,,,,,,,,,left.png,,w,left,5cba50bf114fa5001aac5570,2021-10-22_16h59.49.576,arrow_simon_punish,2021.1.2,Win32,60.08893162,,,,,,,,,,,,,,w,1,1.5047,1.824268447,0,1,6,0,24,2,1,,,,,,,,,,,,,,
,,,,,,,,,,,left.png,,w,right,5cba50bf114fa5001aac5570,2021-10-22_16h59.49.576,arrow_simon_punish,2021.1.2,Win32,60.08893162,,,,,,,,,,,,,,w,1,1.4689,1.821361851,0,1,6,1,25,3,1,,,,,,,,,,,,,,
,,,,,,,,,,,left.png,,w,left,5cba50bf114fa5001aac5570,2021-10-22_16h59.49.576,arrow_simon_punish,2021.1.2,Win32,60.08893162,,,,,,,,,,,,,,w,1,1.504,2.156197566,0,1,6,2,26,2,1,,,,,,,,,,,,,,
,,,,,,,,,,,right.png,,p,left,5cba50bf114fa5001aac5570,2021-10-22_16h59.49.576,arrow_simon_punish,2021.1.2,Win32,60.08893162,,,,,,,,,,,,,,w,0,1.5097,1.951879577,1,1,6,3,27,0,1,,,,,,,,,,,,,,
,,,,,,,,,,,left.png,,w,left,5cba50bf114fa5001aac5570,2021-10-22_16h59.49.576,arrow_simon_punish,2021.1.2,Win32,60.08893162,,,,,,,,,,,,,,w,1,1.4494,2.442170351,0,1,7,0,28,2,1,,,,,,,,,,,,,,
,,,,,,,,,,,left.png,,w,right,5cba50bf114fa5001aac5570,2021-10-22_16h59.49.576,arrow_simon_punish,2021.1.2,Win32,60.08893162,,,,,,,,,,,,,,w,1,1.4562,1.865513501,0,1,7,1,29,3,1,,,,,,,,,,,,,,
,,,,,,,,,,,left.png,,w,right,5cba50bf114fa5001aac5570,2021-10-22_16h59.49.576,arrow_simon_punish,2021.1.2,Win32,60.08893162,,,,,,,,,,,,,,w,1,1.5739,1.721074737,0,1,7,2,30,3,1,,,,,,,,,,,,,,
,,,,,,,,,,,right.png,,p,right,5cba50bf114fa5001aac5570,2021-10-22_16h59.49.576,arrow_simon_punish,2021.1.2,Win32,60.08893162,,,,,,,,,,,,,,w,0,1.5335,2.357696025,1,1,7,3,31,1,1,,,,,,,,,,,,,,
,,,,,,,,,,,left.png,,w,left,5cba50bf114fa5001aac5570,2021-10-22_16h59.49.576,arrow_simon_punish,2021.1.2,Win32,60.08893162,,,,,,,,,,,,,,w,1,1.3179,1.504510083,1,1,8,0,32,2,1,,,,,,,,,,,,,,
,,,,,,,,,,,right.png,,p,right,5cba50bf114fa5001aac5570,2021-10-22_16h59.49.576,arrow_simon_punish,2021.1.2,Win32,60.08893162,,,,,,,,,,,,,,p,1,1.613,1.856641362,1,1,8,1,33,1,1,,,,,,,,,,,,,,
,,,,,,,,,,,left.png,,w,left,5cba50bf114fa5001aac5570,2021-10-22_16h59.49.576,arrow_simon_punish,2021.1.2,Win32,60.08893162,,,,,,,,,,,,,,p,0,1.4642,2.107756143,1,1,8,2,34,2,1,,,,,,,,,,,,,,
,,,,,,,,,,,left.png,,w,left,5cba50bf114fa5001aac5570,2021-10-22_16h59.49.576,arrow_simon_punish,2021.1.2,Win32,60.08893162,,,,,,,,,,,,,,w,1,1.4273,2.225105283,0,1,8,3,35,2,1,,,,,,,,,,,,,,
,,,,,,,,,,,right.png,,p,right,5cba50bf114fa5001aac5570,2021-10-22_16h59.49.576,arrow_simon_punish,2021.1.2,Win32,60.08893162,,,,,,,,,,,,,,p,1,1.5165,1.794593767,0,1,9,0,36,1,1,,,,,,,,,,,,,,
,,,,,,,,,,,left.png,,w,right,5cba50bf114fa5001aac5570,2021-10-22_16h59.49.576,arrow_simon_punish,2021.1.2,Win32,60.08893162,,,,,,,,,,,,,,w,1,1.4169,1.514099305,0,1,9,1,37,3,1,,,,,,,,,,,,,,
,,,,,,,,,,,left.png,,w,right,5cba50bf114fa5001aac5570,2021-10-22_16h59.49.576,arrow_simon_punish,2021.1.2,Win32,60.08893162,,,,,,,,,,,,,,w,1,1.6123,2.157999796,1,1,9,2,38,3,1,,,,,,,,,,,,,,
,,,,,,,,,,,right.png,,p,left,5cba50bf114fa5001aac5570,2021-10-22_16h59.49.576,arrow_simon_punish,2021.1.2,Win32,60.08893162,,,,,,,,,,,,,,w,0,1.39,2.100531744,1,1,9,3,39,0,1,,,,,,,,,,,,,,
,,,,,,,,,,,right.png,,p,left,5cba50bf114fa5001aac5570,2021-10-22_16h59.49.576,arrow_simon_punish,2021.1.2,Win32,60.08893162,,,,,,,,,,,,,,p,1,1.4215,1.665933343,0,1,10,0,40,0,1,,,,,,,,,,,,,,
,,,,,,,,,,,right.png,,p,left,5cba50bf114fa5001aac5570,2021-10-22_16h59.49.576,arrow_simon_punish,2021.1.2,Win32,60.08893162,,,,,,,,,,,,,,p,1,1.6577,2.320925957,1,1,10,1,41,0,1,,,,,,,,,,,,,,
,,,,,,,,,,,right.png,,p,left,5cba50bf114fa5001aac5570,2021-10-22_16h59.49.576,arrow_simon_punish,2021.1.2,Win32,60.08893162,,,,,,,,,,,,,,p,1,1.4587,2.31983291,0,1,10,2,42,0,1,,,,,,,,,,,,,,
,,,,,,,,,,,left.png,,w,right,5cba50bf114fa5001aac5570,2021-10-22_16h59.49.576,arrow_simon_punish,2021.1.2,Win32,60.08893162,,,,,,,,,,,,,,p,0,1.3993,2.405999942,1,1,10,3,43,3,1,,,,,,,,,,,,,,
,,,,,,,,,,,right.png,,p,left,5cba50bf114fa5001aac5570,2021-10-22_16h59.49.576,arrow_simon_punish,2021.1.2,Win32,60.08893162,,,,,,,,,,,,,,p,1,1.5359,1.999430665,0,1,11,0,44,0,1,,,,,,,,,,,,,,
,,,,,,,,,,,left.png,,w,right,5cba50bf114fa5001aac5570,2021-10-22_16h59.49.576,arrow_simon_punish,2021.1.2,Win32,60.08893162,,,,,,,,,,,,,,p,0,1.5352,1.974828784,1,1,11,1,45,3,1,,,,,,,,,,,,,,
,,,,,,,,,,,left.png,,w,right,5cba50bf114fa5001aac5570,2021-10-22_16h59.49.576,arrow_simon_punish,2021.1.2,Win32,60.08893162,,,,,,,,,,,,,,p,0,1.4355,2.455919127,1,1,11,2,46,3,1,,,,,,,,,,,,,,
,,,,,,,,,,,left.png,,w,left,5cba50bf114fa5001aac5570,2021-10-22_16h59.49.576,arrow_simon_punish,2021.1.2,Win32,60.08893162,,,,,,,,,,,,,,p,0,1.5856,2.490342286,1,1,11,3,47,2,1,,,,,,,,,,,,,,
,,,,,,,,,,,right.png,,p,left,5cba50bf114fa5001aac5570,2021-10-22_16h59.49.576,arrow_simon_punish,2021.1.2,Win32,60.08893162,,,,,,,,,,,,,,w,0,1.46,2.065054058,1,1,12,0,48,0,1,,,,,,,,,,,,,,
,,,,,,,,,,,right.png,,p,left,5cba50bf114fa5001aac5570,2021-10-22_16h59.49.576,arrow_simon_punish,2021.1.2,Win32,60.08893162,,,,,,,,,,,,,,p,1,1.2857,1.56543597,1,1,12,1,49,0,1,,,,,,,,,,,,,,
,,,,,,,,,,,right.png,,p,right,5cba50bf114fa5001aac5570,2021-10-22_16h59.49.576,arrow_simon_punish,2021.1.2,Win32,60.08893162,,,,,,,,,,,,,,p,1,1.6701,1.995379468,1,1,12,2,50,1,1,,,,,,,,,,,,,,
,,,,,,,,,,,left.png,,w,left,5cba50bf114fa5001aac5570,2021-10-22_16h59.49.576,arrow_simon_punish,2021.1.2,Win32,60.08893162,,,,,,,,,,,,,,w,1,1.4103,2.176729425,0,1,12,3,51,2,1,,,,,,,,,,,,,,
,,,,,,,,,,,left.png,,w,right,5cba50bf114fa5001aac5570,2021-10-22_16h59.49.576,arrow_simon_punish,2021.1.2,Win32,60.08893162,,,,,,,,,,,,,,w,1,1.3924,2.185121642,1,1,13,0,52,3,1,,,,,,,,,,,,,,
,,,,,,,,,,,left.png,,w,left,5cba50bf114fa5001aac5570,2021-10-22_16h59.49.576,arrow_simon_punish,2021.1.2,Win32,60.08893162,,,,,,,,,,,,,,w,1,1.3921,1.683926076,1,1,13,1,53,2,1,,,,,,,,,,,,,,
,,,,,,,,,,,left.png,,w,right,5cba50bf114fa5001aac5570,2021-10-22_16h59.49.576,arrow_simon_punish,2021.1.2,Win32,60.08893162,,,,,,,,,,,,,,p,0,1.4481,2.472576856,1,1,13,2,54,3,1,,,,,,,,,,,,,,
,,,,,,,,,,,right.png,,p,right,5cba50bf114fa5001aac5570,2021-10-22_16h59.49.576,arrow_simon_punish,2021.1.2,Win32,60.08893162,,,,,,,,,,,,,,p,1,1.5511,2.47677504,0,1,13,3,55,1,1,,,,,,,,,,,,,,
,,,,,,,,,,,right.png,,p,right,5cba50bf114fa5001aac5570,2021-10-22_16h59.49.576,arrow_simon_punish,2021.1.2,Win32,60.08893162,,,,,,,,,,,,,,p,1,1.4776,1.723964336,0,1,14,0,56,1,1,,,,,,,,,,,,,,
,,,,,,,,,,,left.png,,w,right,5cba50bf114fa5001aac5570,2021-10-22_16h59.49.576,arrow_simon_punish,2021.1.2,Win32,60.08893162,,,,,,,,,,,,,,w,1,1.489,1.601019226,0,1,14,1,57,3,1,,,,,,,,,,,,,,
,,,,,,,,,,,right.png,,p,left,5cba50bf114fa5001aac5570,2021-10-22_16h59.49.576,arrow_simon_punish,2021.1.2,Win32,60.08893162,,,,,,,,,,,,,,w,0,1.5388,2.098010337,1,1,14,2,58,0,1,,,,,,,,,,,,,,
,,,,,,,,,,,right.png,,p,left,5cba50bf114fa5001aac5570,2021-10-22_16h59.49.576,arrow_simon_punish,2021.1.2,Win32,60.08893162,,,,,,,,,,,,,,p,1,1.4289,2.216757019,0,1,14,3,59,0,1,,,,,,,,,,,,,,
,,,,,,,,,,,,,,,5cba50bf114fa5001aac5570,2021-10-22_16h59.49.576,arrow_simon_punish,2021.1.2,Win32,60.08893162,,,,,,,,,,,,,,,,,,,,,,,,,space,1.6201,6,2,0,4,0,1,1,,,,,
,,,,,,,,,,,left.png,,w,left,5cba50bf114fa5001aac5570,2021-10-22_16h59.49.576,arrow_simon_punish,2021.1.2,Win32,60.08893162,,,,,,,,,,,,,,w,1,1.4344,1.627933256,0,5,0,0,0,2,1,,,,,,,,,,,,,,
,,,,,,,,,,,right.png,,p,left,5cba50bf114fa5001aac5570,2021-10-22_16h59.49.576,arrow_simon_punish,2021.1.2,Win32,60.08893162,,,,,,,,,,,,,,p,1,1.4109,1.667355129,0,5,0,1,1,0,1,,,,,,,,,,,,,,
,,,,,,,,,,,left.png,,w,left,5cba50bf114fa5001aac5570,2021-10-22_16h59.49.576,arrow_simon_punish,2021.1.2,Win32,60.08893162,,,,,,,,,,,,,,w,1,1.4598,1.670881793,0,5,0,2,2,2,1,,,,,,,,,,,,,,
,,,,,,,,,,,left.png,,w,right,5cba50bf114fa5001aac5570,2021-10-22_16h59.49.576,arrow_simon_punish,2021.1.2,Win32,60.08893162,,,,,,,,,,,,,,w,1,1.3781,1.513994305,1,5,0,3,3,3,1,,,,,,,,,,,,,,
,,,,,,,,,,,left.png,,w,left,5cba50bf114fa5001aac5570,2021-10-22_16h59.49.576,arrow_simon_punish,2021.1.2,Win32,60.08893162,,,,,,,,,,,,,,w,1,1.4481,2.396096296,0,5,1,0,4,2,1,,,,,,,,,,,,,,
,,,,,,,,,,,left.png,,w,right,5cba50bf114fa5001aac5570,2021-10-22_16h59.49.576,arrow_simon_punish,2021.1.2,Win32,60.08893162,,,,,,,,,,,,,,w,1,1.4695,1.591534252,0,5,1,1,5,3,1,,,,,,,,,,,,,,
,,,,,,,,,,,right.png,,p,right,5cba50bf114fa5001aac5570,2021-10-22_16h59.49.576,arrow_simon_punish,2021.1.2,Win32,60.08893162,,,,,,,,,,,,,,w,0,1.3521,1.969923725,1,5,1,2,6,1,1,,,,,,,,,,,,,,
,,,,,,,,,,,right.png,,p,right,5cba50bf114fa5001aac5570,2021-10-22_16h59.49.576,arrow_simon_punish,2021.1.2,Win32,60.08893162,,,,,,,,,,,,,,p,1,1.3971,1.77637076,1,5,1,3,7,1,1,,,,,,,,,,,,,,
,,,,,,,,,,,right.png,,p,right,5cba50bf114fa5001aac5570,2021-10-22_16h59.49.576,arrow_simon_punish,2021.1.2,Win32,60.08893162,,,,,,,,,,,,,,p,1,1.5752,2.496906358,0,5,2,0,8,1,1,,,,,,,,,,,,,,
,,,,,,,,,,,left.png,,w,right,5cba50bf114fa5001aac5570,2021-10-22_16h59.49.576,arrow_simon_punish,2021.1.2,Win32,60.08893162,,,,,,,,,,,,,,p,0,1.4302,2.391042042,1,5,2,1,9,3,1,,,,,,,,,,,,,,
,,,,,,,,,,,right.png,,p,right,5cba50bf114fa5001aac5570,2021-10-22_16h59.49.576,arrow_simon_punish,2021.1.2,Win32,60.08893162,,,,,,,,,,,,,,p,1,1.4697,2.359724758,0,5,2,2,10,1,1,,,,,,,,,,,,,,
,,,,,,,,,,,right.png,,p,left,5cba50bf114fa5001aac5570,2021-10-22_16h59.49.576,arrow_simon_punish,2021.1.2,Win32,60.08893162,,,,,,,,,,,,,,w,0,1.6185,2.370440507,1,5,2,3,11,0,1,,,,,,,,,,,,,,
,,,,,,,,,,,right.png,,p,left,5cba50bf114fa5001aac5570,2021-10-22_16h59.49.576,arrow_simon_punish,2021.1.2,Win32,60.08893162,,,,,,,,,,,,,,p,1,1.4437,2.018685253,0,5,3,0,12,0,1,,,,,,,,,,,,,,
,,,,,,,,,,,left.png,,w,right,5cba50bf114fa5001aac5570,2021-10-22_16h59.49.576,arrow_simon_punish,2021.1.2,Win32,60.08893162,,,,,,,,,,,,,,p,0,1.4187,1.509052846,1,5,3,1,13,3,1,,,,,,,,,,,,,,
,,,,,,,,,,,right.png,,p,right,5cba50bf114fa5001aac5570,2021-10-22_16h59.49.576,arrow_simon_punish,2021.1.2,Win32,60.08893162,,,,,,,,,,,,,,w,0,1.4114,2.076644819,1,5,3,2,14,1,1,,,,,,,,,,,,,,
,,,,,,,,,,,right.png,,p,left,5cba50bf114fa5001aac5570,2021-10-22_16h59.49.576,arrow_simon_punish,2021.1.2,Win32,60.08893162,,,,,,,,,,,,,,p,1,1.3971,2.112591865,1,5,3,3,15,0,1,,,,,,,,,,,,,,
,,,,,,,,,,,right.png,,p,right,5cba50bf114fa5001aac5570,2021-10-22_16h59.49.576,arrow_simon_punish,2021.1.2,Win32,60.08893162,,,,,,,,,,,,,,w,0,1.4814,1.538237078,1,5,4,0,16,1,1,,,,,,,,,,,,,,
,,,,,,,,,,,left.png,,w,right,5cba50bf114fa5001aac5570,2021-10-22_16h59.49.576,arrow_simon_punish,2021.1.2,Win32,60.08893162,,,,,,,,,,,,,,w,1,1.452,1.720846177,0,5,4,1,17,3,1,,,,,,,,,,,,,,
,,,,,,,,,,,right.png,,p,left,5cba50bf114fa5001aac5570,2021-10-22_16h59.49.576,arrow_simon_punish,2021.1.2,Win32,60.08893162,,,,,,,,,,,,,,w,0,1.4997,1.878622555,1,5,4,2,18,0,1,,,,,,,,,,,,,,
,,,,,,,,,,,right.png,,p,left,5cba50bf114fa5001aac5570,2021-10-22_16h59.49.576,arrow_simon_punish,2021.1.2,Win32,60.08893162,,,,,,,,,,,,,,p,1,1.5353,2.34127012,0,5,4,3,19,0,1,,,,,,,,,,,,,,
,,,,,,,,,,,right.png,,p,right,5cba50bf114fa5001aac5570,2021-10-22_16h59.49.576,arrow_simon_punish,2021.1.2,Win32,60.08893162,,,,,,,,,,,,,,p,1,1.4343,1.766152964,0,5,5,0,20,1,1,,,,,,,,,,,,,,
,,,,,,,,,,,right.png,,p,left,5cba50bf114fa5001aac5570,2021-10-22_16h59.49.576,arrow_simon_punish,2021.1.2,Win32,60.08893162,,,,,,,,,,,,,,w,0,1.6253,2.014971802,1,5,5,1,21,0,1,,,,,,,,,,,,,,
,,,,,,,,,,,left.png,,w,right,5cba50bf114fa5001aac5570,2021-10-22_16h59.49.576,arrow_simon_punish,2021.1.2,Win32,60.08893162,,,,,,,,,,,,,,w,1,1.5796,1.712785525,0,5,5,2,22,3,1,,,,,,,,,,,,,,
,,,,,,,,,,,right.png,,p,left,5cba50bf114fa5001aac5570,2021-10-22_16h59.49.576,arrow_simon_punish,2021.1.2,Win32,60.08893162,,,,,,,,,,,,,,w,0,1.4215,2.220022765,1,5,5,3,23,0,1,,,,,,,,,,,,,,
,,,,,,,,,,,left.png,,w,left,5cba50bf114fa5001aac5570,2021-10-22_16h59.49.576,arrow_simon_punish,2021.1.2,Win32,60.08893162,,,,,,,,,,,,,,p,0,1.4714,2.090210904,1,5,6,0,24,2,1,,,,,,,,,,,,,,
,,,,,,,,,,,right.png,,p,right,5cba50bf114fa5001aac5570,2021-10-22_16h59.49.576,arrow_simon_punish,2021.1.2,Win32,60.08893162,,,,,,,,,,,,,,p,1,1.3564,2.185342487,1,5,6,1,25,1,1,,,,,,,,,,,,,,
,,,,,,,,,,,right.png,,p,left,5cba50bf114fa5001aac5570,2021-10-22_16h59.49.576,arrow_simon_punish,2021.1.2,Win32,60.08893162,,,,,,,,,,,,,,w,0,1.332,1.78822807,1,5,6,2,26,0,1,,,,,,,,,,,,,,
,,,,,,,,,,,left.png,,w,left,5cba50bf114fa5001aac5570,2021-10-22_16h59.49.576,arrow_simon_punish,2021.1.2,Win32,60.08893162,,,,,,,,,,,,,,p,0,1.2869,1.852143826,1,5,6,3,27,2,1,,,,,,,,,,,,,,
,,,,,,,,,,,left.png,,w,left,5cba50bf114fa5001aac5570,2021-10-22_16h59.49.576,arrow_simon_punish,2021.1.2,Win32,60.08893162,,,,,,,,,,,,,,w,1,1.4144,1.619936154,0,5,7,0,28,2,1,,,,,,,,,,,,,,
,,,,,,,,,,,left.png,,w,left,5cba50bf114fa5001aac5570,2021-10-22_16h59.49.576,arrow_simon_punish,2021.1.2,Win32,60.08893162,,,,,,,,,,,,,,w,1,1.4473,2.419725799,0,5,7,1,29,2,1,,,,,,,,,,,,,,
,,,,,,,,,,,left.png,,w,right,5cba50bf114fa5001aac5570,2021-10-22_16h59.49.576,arrow_simon_punish,2021.1.2,Win32,60.08893162,,,,,,,,,,,,,,w,1,1.5018,1.696305119,0,5,7,2,30,3,1,,,,,,,,,,,,,,
,,,,,,,,,,,left.png,,w,right,5cba50bf114fa5001aac5570,2021-10-22_16h59.49.576,arrow_simon_punish,2021.1.2,Win32,60.08893162,,,,,,,,,,,,,,w,1,1.5699,2.48202823,0,5,7,3,31,3,1,,,,,,,,,,,,,,
,,,,,,,,,,,right.png,,p,left,5cba50bf114fa5001aac5570,2021-10-22_16h59.49.576,arrow_simon_punish,2021.1.2,Win32,60.08893162,,,,,,,,,,,,,,w,0,1.4981,2.252155139,1,5,8,0,32,0,1,,,,,,,,,,,,,,
,,,,,,,,,,,right.png,,p,right,5cba50bf114fa5001aac5570,2021-10-22_16h59.49.576,arrow_simon_punish,2021.1.2,Win32,60.08893162,,,,,,,,,,,,,,p,1,1.4359,1.572468759,0,5,8,1,33,1,1,,,,,,,,,,,,,,
,,,,,,,,,,,right.png,,p,left,5cba50bf114fa5001aac5570,2021-10-22_16h59.49.576,arrow_simon_punish,2021.1.2,Win32,60.08893162,,,,,,,,,,,,,,w,0,1.4218,1.63073907,1,5,8,2,34,0,1,,,,,,,,,,,,,,
,,,,,,,,,,,left.png,,w,right,5cba50bf114fa5001aac5570,2021-10-22_16h59.49.576,arrow_simon_punish,2021.1.2,Win32,60.08893162,,,,,,,,,,,,,,w,1,1.4821,1.912896446,0,5,8,3,35,3,1,,,,,,,,,,,,,,
,,,,,,,,,,,left.png,,w,left,5cba50bf114fa5001aac5570,2021-10-22_16h59.49.576,arrow_simon_punish,2021.1.2,Win32,60.08893162,,,,,,,,,,,,,,w,1,1.4629,2.442406947,0,5,9,0,36,2,1,,,,,,,,,,,,,,
,,,,,,,,,,,right.png,,p,right,5cba50bf114fa5001aac5570,2021-10-22_16h59.49.576,arrow_simon_punish,2021.1.2,Win32,60.08893162,,,,,,,,,,,,,,p,1,1.4757,1.650529112,0,5,9,1,37,1,1,,,,,,,,,,,,,,
,,,,,,,,,,,left.png,,w,left,5cba50bf114fa5001aac5570,2021-10-22_16h59.49.576,arrow_simon_punish,2021.1.2,Win32,60.08893162,,,,,,,,,,,,,,w,1,1.4177,2.01899524,0,5,9,2,38,2,1,,,,,,,,,,,,,,
,,,,,,,,,,,right.png,,p,left,5cba50bf114fa5001aac5570,2021-10-22_16h59.49.576,arrow_simon_punish,2021.1.2,Win32,60.08893162,,,,,,,,,,,,,,w,0,1.4614,2.491660923,1,5,9,3,39,0,1,,,,,,,,,,,,,,
,,,,,,,,,,,right.png,,p,left,5cba50bf114fa5001aac5570,2021-10-22_16h59.49.576,arrow_simon_punish,2021.1.2,Win32,60.08893162,,,,,,,,,,,,,,p,1,1.5286,1.747850074,0,5,10,0,40,0,1,,,,,,,,,,,,,,
,,,,,,,,,,,right.png,,p,right,5cba50bf114fa5001aac5570,2021-10-22_16h59.49.576,arrow_simon_punish,2021.1.2,Win32,60.08893162,,,,,,,,,,,,,,w,0,1.4392,2.360919486,1,5,10,1,41,1,1,,,,,,,,,,,,,,
,,,,,,,,,,,right.png,,p,right,5cba50bf114fa5001aac5570,2021-10-22_16h59.49.576,arrow_simon_punish,2021.1.2,Win32,60.08893162,,,,,,,,,,,,,,w,0,1.55,2.422429573,1,5,10,2,42,1,1,,,,,,,,,,,,,,
,,,,,,,,,,,left.png,,w,right,5cba50bf114fa5001aac5570,2021-10-22_16h59.49.576,arrow_simon_punish,2021.1.2,Win32,60.08893162,,,,,,,,,,,,,,p,0,1.5153,1.952795875,1,5,10,3,43,3,1,,,,,,,,,,,,,,
,,,,,,,,,,,left.png,,w,left,5cba50bf114fa5001aac5570,2021-10-22_16h59.49.576,arrow_simon_punish,2021.1.2,Win32,60.08893162,,,,,,,,,,,,,,w,1,1.4811,1.716893373,0,5,11,0,44,2,1,,,,,,,,,,,,,,
,,,,,,,,,,,left.png,,w,left,5cba50bf114fa5001aac5570,2021-10-22_16h59.49.576,arrow_simon_punish,2021.1.2,Win32,60.08893162,,,,,,,,,,,,,,w,1,1.3662,1.621225621,1,5,11,1,45,2,1,,,,,,,,,,,,,,
,,,,,,,,,,,right.png,,p,right,5cba50bf114fa5001aac5570,2021-10-22_16h59.49.576,arrow_simon_punish,2021.1.2,Win32,60.08893162,,,,,,,,,,,,,,p,1,1.5469,1.570472868,0,5,11,2,46,1,1,,,,,,,,,,,,,,
,,,,,,,,,,,right.png,,p,left,5cba50bf114fa5001aac5570,2021-10-22_16h59.49.576,arrow_simon_punish,2021.1.2,Win32,60.08893162,,,,,,,,,,,,,,w,0,1.0231,2.392730351,1,5,11,3,47,0,1,,,,,,,,,,,,,,
,,,,,,,,,,,right.png,,p,left,5cba50bf114fa5001aac5570,2021-10-22_16h59.49.576,arrow_simon_punish,2021.1.2,Win32,60.08893162,,,,,,,,,,,,,,p,1,1.5751,1.9191265,0,5,12,0,48,0,1,,,,,,,,,,,,,,
,,,,,,,,,,,left.png,,w,left,5cba50bf114fa5001aac5570,2021-10-22_16h59.49.576,arrow_simon_punish,2021.1.2,Win32,60.08893162,,,,,,,,,,,,,,p,0,1.0133,2.346296643,1,5,12,1,49,2,1,,,,,,,,,,,,,,
,,,,,,,,,,,right.png,,p,right,5cba50bf114fa5001aac5570,2021-10-22_16h59.49.576,arrow_simon_punish,2021.1.2,Win32,60.08893162,,,,,,,,,,,,,,p,1,1.5586,1.856354108,0,5,12,2,50,1,1,,,,,,,,,,,,,,
,,,,,,,,,,,left.png,,w,left,5cba50bf114fa5001aac5570,2021-10-22_16h59.49.576,arrow_simon_punish,2021.1.2,Win32,60.08893162,,,,,,,,,,,,,,w,1,1.6521,1.804481097,1,5,12,3,51,2,1,,,,,,,,,,,,,,
,,,,,,,,,,,left.png,,w,right,5cba50bf114fa5001aac5570,2021-10-22_16h59.49.576,arrow_simon_punish,2021.1.2,Win32,60.08893162,,,,,,,,,,,,,,w,1,1.5554,1.590030802,0,5,13,0,52,3,1,,,,,,,,,,,,,,
,,,,,,,,,,,left.png,,w,left,5cba50bf114fa5001aac5570,2021-10-22_16h59.49.576,arrow_simon_punish,2021.1.2,Win32,60.08893162,,,,,,,,,,,,,,w,1,1.6821,2.496450303,1,5,13,1,53,2,1,,,,,,,,,,,,,,
,,,,,,,,,,,left.png,,w,left,5cba50bf114fa5001aac5570,2021-10-22_16h59.49.576,arrow_simon_punish,2021.1.2,Win32,60.08893162,,,,,,,,,,,,,,w,1,1.4157,1.62990023,0,5,13,2,54,2,1,,,,,,,,,,,,,,
,,,,,,,,,,,right.png,,p,right,5cba50bf114fa5001aac5570,2021-10-22_16h59.49.576,arrow_simon_punish,2021.1.2,Win32,60.08893162,,,,,,,,,,,,,,p,1,1.4487,1.643456484,0,5,13,3,55,1,1,,,,,,,,,,,,,,
,,,,,,,,,,,left.png,,w,right,5cba50bf114fa5001aac5570,2021-10-22_16h59.49.576,arrow_simon_punish,2021.1.2,Win32,60.08893162,,,,,,,,,,,,,,w,1,1.4058,2.091852545,0,5,14,0,56,3,1,,,,,,,,,,,,,,
,,,,,,,,,,,left.png,,w,right,5cba50bf114fa5001aac5570,2021-10-22_16h59.49.576,arrow_simon_punish,2021.1.2,Win32,60.08893162,,,,,,,,,,,,,,w,1,1.3196,2.238779897,1,5,14,1,57,3,1,,,,,,,,,,,,,,
,,,,,,,,,,,left.png,,w,right,5cba50bf114fa5001aac5570,2021-10-22_16h59.49.576,arrow_simon_punish,2021.1.2,Win32,60.08893162,,,,,,,,,,,,,,w,1,1.466,2.368255376,0,5,14,2,58,3,1,,,,,,,,,,,,,,
,,,,,,,,,,,left.png,,w,right,5cba50bf114fa5001aac5570,2021-10-22_16h59.49.576,arrow_simon_punish,2021.1.2,Win32,60.08893162,,,,,,,,,,,,,,w,1,1.4544,2.243811176,0,5,14,3,59,3,1,,,,,,,,,,,,,,
,,,,,,,,,,,,,,,5cba50bf114fa5001aac5570,2021-10-22_16h59.49.576,arrow_simon_punish,2021.1.2,Win32,60.08893162,,,,,,,,,,,,,,,,,,,,,,,,,space,1.5595,7,2,1,5,1,1,5,,,,,
,,,,,,,,,,,right.png,,p,left,5cba50bf114fa5001aac5570,2021-10-22_16h59.49.576,arrow_simon_punish,2021.1.2,Win32,60.08893162,,,,,,,,,,,,,,w,0,1.5587,2.002327256,1,1,0,0,0,0,1,,,,,,,,,,,,,,
,,,,,,,,,,,left.png,,w,right,5cba50bf114fa5001aac5570,2021-10-22_16h59.49.576,arrow_simon_punish,2021.1.2,Win32,60.08893162,,,,,,,,,,,,,,w,1,1.5534,2.234943297,0,1,0,1,1,3,1,,,,,,,,,,,,,,
,,,,,,,,,,,right.png,,p,right,5cba50bf114fa5001aac5570,2021-10-22_16h59.49.576,arrow_simon_punish,2021.1.2,Win32,60.08893162,,,,,,,,,,,,,,p,1,1.5346,1.518006437,0,1,0,2,2,1,1,,,,,,,,,,,,,,
,,,,,,,,,,,left.png,,w,left,5cba50bf114fa5001aac5570,2021-10-22_16h59.49.576,arrow_simon_punish,2021.1.2,Win32,60.08893162,,,,,,,,,,,,,,w,1,1.424,1.676102501,0,1,0,3,3,2,1,,,,,,,,,,,,,,
,,,,,,,,,,,left.png,,w,right,5cba50bf114fa5001aac5570,2021-10-22_16h59.49.576,arrow_simon_punish,2021.1.2,Win32,60.08893162,,,,,,,,,,,,,,p,0,1.4181,2.089193118,1,1,1,0,4,3,1,,,,,,,,,,,,,,
,,,,,,,,,,,left.png,,w,left,5cba50bf114fa5001aac5570,2021-10-22_16h59.49.576,arrow_simon_punish,2021.1.2,Win32,60.08893162,,,,,,,,,,,,,,w,1,1.3886,1.514958914,1,1,1,1,5,2,1,,,,,,,,,,,,,,
,,,,,,,,,,,left.png,,w,left,5cba50bf114fa5001aac5570,2021-10-22_16h59.49.576,arrow_simon_punish,2021.1.2,Win32,60.08893162,,,,,,,,,,,,,,w,1,1.1629,2.439146999,1,1,1,2,6,2,1,,,,,,,,,,,,,,
,,,,,,,,,,,left.png,,w,right,5cba50bf114fa5001aac5570,2021-10-22_16h59.49.576,arrow_simon_punish,2021.1.2,Win32,60.08893162,,,,,,,,,,,,,,w,1,1.4273,2.384267332,0,1,1,3,7,3,1,,,,,,,,,,,,,,
,,,,,,,,,,,right.png,,p,left,5cba50bf114fa5001aac5570,2021-10-22_16h59.49.576,arrow_simon_punish,2021.1.2,Win32,60.08893162,,,,,,,,,,,,,,w,0,1.4361,2.268448658,1,1,2,0,8,0,1,,,,,,,,,,,,,,
,,,,,,,,,,,right.png,,p,right,5cba50bf114fa5001aac5570,2021-10-22_16h59.49.576,arrow_simon_punish,2021.1.2,Win32,60.08893162,,,,,,,,,,,,,,w,0,1.4343,1.995785938,1,1,2,1,9,1,1,,,,,,,,,,,,,,
,,,,,,,,,,,right.png,,p,right,5cba50bf114fa5001aac5570,2021-10-22_16h59.49.576,arrow_simon_punish,2021.1.2,Win32,60.08893162,,,,,,,,,,,,,,w,0,1.4095,2.185540976,1,1,2,2,10,1,1,,,,,,,,,,,,,,
,,,,,,,,,,,left.png,,w,right,5cba50bf114fa5001aac5570,2021-10-22_16h59.49.576,arrow_simon_punish,2021.1.2,Win32,60.08893162,,,,,,,,,,,,,,w,1,1.2738,2.167737932,1,1,2,3,11,3,1,,,,,,,,,,,,,,
,,,,,,,,,,,left.png,,w,left,5cba50bf114fa5001aac5570,2021-10-22_16h59.49.576,arrow_simon_punish,2021.1.2,Win32,60.08893162,,,,,,,,,,,,,,w,1,1.4918,1.743060315,0,1,3,0,12,2,1,,,,,,,,,,,,,,
,,,,,,,,,,,left.png,,w,right,5cba50bf114fa5001aac5570,2021-10-22_16h59.49.576,arrow_simon_punish,2021.1.2,Win32,60.08893162,,,,,,,,,,,,,,w,1,0.9792,2.169461432,1,1,3,1,13,3,1,,,,,,,,,,,,,,
,,,,,,,,,,,right.png,,p,right,5cba50bf114fa5001aac5570,2021-10-22_16h59.49.576,arrow_simon_punish,2021.1.2,Win32,60.08893162,,,,,,,,,,,,,,w,0,1.5935,2.13005797,1,1,3,2,14,1,1,,,,,,,,,,,,,,
,,,,,,,,,,,left.png,,w,left,5cba50bf114fa5001aac5570,2021-10-22_16h59.49.576,arrow_simon_punish,2021.1.2,Win32,60.08893162,,,,,,,,,,,,,,w,1,1.4103,1.519227301,0,1,3,3,15,2,1,,,,,,,,,,,,,,
,,,,,,,,,,,right.png,,p,right,5cba50bf114fa5001aac5570,2021-10-22_16h59.49.576,arrow_simon_punish,2021.1.2,Win32,60.08893162,,,,,,,,,,,,,,w,0,1.4098,2.004886294,1,1,4,0,16,1,1,,,,,,,,,,,,,,
,,,,,,,,,,,left.png,,w,right,5cba50bf114fa5001aac5570,2021-10-22_16h59.49.576,arrow_simon_punish,2021.1.2,Win32,60.08893162,,,,,,,,,,,,,,w,1,0.931,2.191667018,1,1,4,1,17,3,1,,,,,,,,,,,,,,
,,,,,,,,,,,right.png,,p,left,5cba50bf114fa5001aac5570,2021-10-22_16h59.49.576,arrow_simon_punish,2021.1.2,Win32,60.08893162,,,,,,,,,,,,,,w,0,1.515,1.896486807,1,1,4,2,18,0,1,,,,,,,,,,,,,,
,,,,,,,,,,,left.png,,w,right,5cba50bf114fa5001aac5570,2021-10-22_16h59.49.576,arrow_simon_punish,2021.1.2,Win32,60.08893162,,,,,,,,,,,,,,w,1,1.5176,2.393828981,0,1,4,3,19,3,1,,,,,,,,,,,,,,
,,,,,,,,,,,left.png,,w,right,5cba50bf114fa5001aac5570,2021-10-22_16h59.49.576,arrow_simon_punish,2021.1.2,Win32,60.08893162,,,,,,,,,,,,,,w,1,1.4842,1.790388593,0,1,5,0,20,3,1,,,,,,,,,,,,,,
,,,,,,,,,,,left.png,,w,left,5cba50bf114fa5001aac5570,2021-10-22_16h59.49.576,arrow_simon_punish,2021.1.2,Win32,60.08893162,,,,,,,,,,,,,,p,0,1.4106,1.917581995,1,1,5,1,21,2,1,,,,,,,,,,,,,,
,,,,,,,,,,,right.png,,p,left,5cba50bf114fa5001aac5570,2021-10-22_16h59.49.576,arrow_simon_punish,2021.1.2,Win32,60.08893162,,,,,,,,,,,,,,w,0,1.4843,2.416885665,1,1,5,2,22,0,1,,,,,,,,,,,,,,
,,,,,,,,,,,right.png,,p,left,5cba50bf114fa5001aac5570,2021-10-22_16h59.49.576,arrow_simon_punish,2021.1.2,Win32,60.08893162,,,,,,,,,,,,,,w,0,1.4347,2.036500561,1,1,5,3,23,0,1,,,,,,,,,,,,,,
,,,,,,,,,,,right.png,,p,left,5cba50bf114fa5001aac5570,2021-10-22_16h59.49.576,arrow_simon_punish,2021.1.2,Win32,60.08893162,,,,,,,,,,,,,,p,1,1.5521,1.540001921,0,1,6,0,24,0,1,,,,,,,,,,,,,,
,,,,,,,,,,,right.png,,p,left,5cba50bf114fa5001aac5570,2021-10-22_16h59.49.576,arrow_simon_punish,2021.1.2,Win32,60.08893162,,,,,,,,,,,,,,p,1,1.5196,1.65931111,0,1,6,1,25,0,1,,,,,,,,,,,,,,
,,,,,,,,,,,left.png,,w,right,5cba50bf114fa5001aac5570,2021-10-22_16h59.49.576,arrow_simon_punish,2021.1.2,Win32,60.08893162,,,,,,,,,,,,,,w,1,1.5042,1.909373978,0,1,6,2,26,3,1,,,,,,,,,,,,,,
,,,,,,,,,,,left.png,,w,left,5cba50bf114fa5001aac5570,2021-10-22_16h59.49.576,arrow_simon_punish,2021.1.2,Win32,60.08893162,,,,,,,,,,,,,,w,1,1.6952,2.103852021,1,1,6,3,27,2,1,,,,,,,,,,,,,,
,,,,,,,,,,,right.png,,p,left,5cba50bf114fa5001aac5570,2021-10-22_16h59.49.576,arrow_simon_punish,2021.1.2,Win32,60.08893162,,,,,,,,,,,,,,p,1,1.5198,1.667203354,0,1,7,0,28,0,1,,,,,,,,,,,,,,
,,,,,,,,,,,right.png,,p,right,5cba50bf114fa5001aac5570,2021-10-22_16h59.49.576,arrow_simon_punish,2021.1.2,Win32,60.08893162,,,,,,,,,,,,,,p,1,1.4794,1.731756538,0,1,7,1,29,1,1,,,,,,,,,,,,,,
,,,,,,,,,,,left.png,,w,left,5cba50bf114fa5001aac5570,2021-10-22_16h59.49.576,arrow_simon_punish,2021.1.2,Win32,60.08893162,,,,,,,,,,,,,,p,0,1.2898,2.486257411,1,1,7,2,30,2,1,,,,,,,,,,,,,,
,,,,,,,,,,,left.png,,w,left,5cba50bf114fa5001aac5570,2021-10-22_16h59.49.576,arrow_simon_punish,2021.1.2,Win32,60.08893162,,,,,,,,,,,,,,p,0,1.415,2.486710357,1,1,7,3,31,2,1,,,,,,,,,,,,,,
,,,,,,,,,,,left.png,,w,right,5cba50bf114fa5001aac5570,2021-10-22_16h59.49.576,arrow_simon_punish,2021.1.2,Win32,60.08893162,,,,,,,,,,,,,,p,0,1.4917,1.793760813,1,1,8,0,32,3,1,,,,,,,,,,,,,,
,,,,,,,,,,,left.png,,w,left,5cba50bf114fa5001aac5570,2021-10-22_16h59.49.576,arrow_simon_punish,2021.1.2,Win32,60.08893162,,,,,,,,,,,,,,w,1,1.5578,2.356264545,0,1,8,1,33,2,1,,,,,,,,,,,,,,
,,,,,,,,,,,right.png,,p,left,5cba50bf114fa5001aac5570,2021-10-22_16h59.49.576,arrow_simon_punish,2021.1.2,Win32,60.08893162,,,,,,,,,,,,,,w,0,1.5197,1.979720494,1,1,8,2,34,0,1,,,,,,,,,,,,,,
,,,,,,,,,,,left.png,,w,left,5cba50bf114fa5001aac5570,2021-10-22_16h59.49.576,arrow_simon_punish,2021.1.2,Win32,60.08893162,,,,,,,,,,,,,,w,1,1.4439,1.557765291,0,1,8,3,35,2,1,,,,,,,,,,,,,,
,,,,,,,,,,,left.png,,w,left,5cba50bf114fa5001aac5570,2021-10-22_16h59.49.576,arrow_simon_punish,2021.1.2,Win32,60.08893162,,,,,,,,,,,,,,w,1,1.4317,1.512233865,0,1,9,0,36,2,1,,,,,,,,,,,,,,
,,,,,,,,,,,right.png,,p,left,5cba50bf114fa5001aac5570,2021-10-22_16h59.49.576,arrow_simon_punish,2021.1.2,Win32,60.08893162,,,,,,,,,,,,,,w,0,1.438,2.417903175,1,1,9,1,37,0,1,,,,,,,,,,,,,,
,,,,,,,,,,,right.png,,p,right,5cba50bf114fa5001aac5570,2021-10-22_16h59.49.576,arrow_simon_punish,2021.1.2,Win32,60.08893162,,,,,,,,,,,,,,w,0,1.4905,2.267710546,1,1,9,2,38,1,1,,,,,,,,,,,,,,
,,,,,,,,,,,right.png,,p,right,5cba50bf114fa5001aac5570,2021-10-22_16h59.49.576,arrow_simon_punish,2021.1.2,Win32,60.08893162,,,,,,,,,,,,,,p,1,1.5285,1.894879046,0,1,9,3,39,1,1,,,,,,,,,,,,,,
,,,,,,,,,,,right.png,,p,right,5cba50bf114fa5001aac5570,2021-10-22_16h59.49.576,arrow_simon_punish,2021.1.2,Win32,60.08893162,,,,,,,,,,,,,,w,0,1.3664,1.911569346,1,1,10,0,40,1,1,,,,,,,,,,,,,,
,,,,,,,,,,,left.png,,w,right,5cba50bf114fa5001aac5570,2021-10-22_16h59.49.576,arrow_simon_punish,2021.1.2,Win32,60.08893162,,,,,,,,,,,,,,w,1,1.4854,1.564283771,0,1,10,1,41,3,1,,,,,,,,,,,,,,
,,,,,,,,,,,right.png,,p,right,5cba50bf114fa5001aac5570,2021-10-22_16h59.49.576,arrow_simon_punish,2021.1.2,Win32,60.08893162,,,,,,,,,,,,,,w,0,1.5007,2.467038373,1,1,10,2,42,1,1,,,,,,,,,,,,,,
,,,,,,,,,,,right.png,,p,left,5cba50bf114fa5001aac5570,2021-10-22_16h59.49.576,arrow_simon_punish,2021.1.2,Win32,60.08893162,,,,,,,,,,,,,,w,0,1.5668,2.469183507,1,1,10,3,43,0,1,,,,,,,,,,,,,,
,,,,,,,,,,,right.png,,p,left,5cba50bf114fa5001aac5570,2021-10-22_16h59.49.576,arrow_simon_punish,2021.1.2,Win32,60.08893162,,,,,,,,,,,,,,p,1,1.4817,1.606931993,0,1,11,0,44,0,1,,,,,,,,,,,,,,
,,,,,,,,,,,right.png,,p,right,5cba50bf114fa5001aac5570,2021-10-22_16h59.49.576,arrow_simon_punish,2021.1.2,Win32,60.08893162,,,,,,,,,,,,,,p,1,1.4343,1.692451347,0,1,11,1,45,1,1,,,,,,,,,,,,,,
,,,,,,,,,,,right.png,,p,right,5cba50bf114fa5001aac5570,2021-10-22_16h59.49.576,arrow_simon_punish,2021.1.2,Win32,60.08893162,,,,,,,,,,,,,,p,1,1.5568,2.215996741,0,1,11,2,46,1,1,,,,,,,,,,,,,,
,,,,,,,,,,,right.png,,p,right,5cba50bf114fa5001aac5570,2021-10-22_16h59.49.576,arrow_simon_punish,2021.1.2,Win32,60.08893162,,,,,,,,,,,,,,p,1,1.4528,2.22466081,0,1,11,3,47,1,1,,,,,,,,,,,,,,
,,,,,,,,,,,left.png,,w,left,5cba50bf114fa5001aac5570,2021-10-22_16h59.49.576,arrow_simon_punish,2021.1.2,Win32,60.08893162,,,,,,,,,,,,,,p,0,1.4548,2.074128316,1,1,12,0,48,2,1,,,,,,,,,,,,,,
,,,,,,,,,,,right.png,,p,left,5cba50bf114fa5001aac5570,2021-10-22_16h59.49.576,arrow_simon_punish,2021.1.2,Win32,60.08893162,,,,,,,,,,,,,,p,1,1.5036,1.681891574,0,1,12,1,49,0,1,,,,,,,,,,,,,,
,,,,,,,,,,,right.png,,p,left,5cba50bf114fa5001aac5570,2021-10-22_16h59.49.576,arrow_simon_punish,2021.1.2,Win32,60.08893162,,,,,,,,,,,,,,p,1,1.4692,1.779613368,0,1,12,2,50,0,1,,,,,,,,,,,,,,
,,,,,,,,,,,left.png,,w,right,5cba50bf114fa5001aac5570,2021-10-22_16h59.49.576,arrow_simon_punish,2021.1.2,Win32,60.08893162,,,,,,,,,,,,,,w,1,1.5208,1.94999055,0,1,12,3,51,3,1,,,,,,,,,,,,,,
,,,,,,,,,,,left.png,,w,right,5cba50bf114fa5001aac5570,2021-10-22_16h59.49.576,arrow_simon_punish,2021.1.2,Win32,60.08893162,,,,,,,,,,,,,,w,1,1.4687,2.350088199,0,1,13,0,52,3,1,,,,,,,,,,,,,,
,,,,,,,,,,,left.png,,w,left,5cba50bf114fa5001aac5570,2021-10-22_16h59.49.576,arrow_simon_punish,2021.1.2,Win32,60.08893162,,,,,,,,,,,,,,w,1,1.5061,1.976462777,0,1,13,1,53,2,1,,,,,,,,,,,,,,
,,,,,,,,,,,right.png,,p,right,5cba50bf114fa5001aac5570,2021-10-22_16h59.49.576,arrow_simon_punish,2021.1.2,Win32,60.08893162,,,,,,,,,,,,,,p,1,1.4599,1.757776937,0,1,13,2,54,1,1,,,,,,,,,,,,,,
,,,,,,,,,,,right.png,,p,left,5cba50bf114fa5001aac5570,2021-10-22_16h59.49.576,arrow_simon_punish,2021.1.2,Win32,60.08893162,,,,,,,,,,,,,,w,0,1.4309,2.031248355,1,1,13,3,55,0,1,,,,,,,,,,,,,,
,,,,,,,,,,,right.png,,p,right,5cba50bf114fa5001aac5570,2021-10-22_16h59.49.576,arrow_simon_punish,2021.1.2,Win32,60.08893162,,,,,,,,,,,,,,w,0,1.5596,1.882053053,1,1,14,0,56,1,1,,,,,,,,,,,,,,
,,,,,,,,,,,left.png,,w,left,5cba50bf114fa5001aac5570,2021-10-22_16h59.49.576,arrow_simon_punish,2021.1.2,Win32,60.08893162,,,,,,,,,,,,,,w,1,1.482,2.478216002,0,1,14,1,57,2,1,,,,,,,,,,,,,,
,,,,,,,,,,,left.png,,w,right,5cba50bf114fa5001aac5570,2021-10-22_16h59.49.576,arrow_simon_punish,2021.1.2,Win32,60.08893162,,,,,,,,,,,,,,p,0,1.3356,2.458719917,1,1,14,2,58,3,1,,,,,,,,,,,,,,
,,,,,,,,,,,left.png,,w,right,5cba50bf114fa5001aac5570,2021-10-22_16h59.49.576,arrow_simon_punish,2021.1.2,Win32,60.08893162,,,,,,,,,,,,,,w,1,1.5718,1.645771873,0,1,14,3,59,3,1,,,,,,,,,,,,,,
,,,,,,,,,,,,,,,5cba50bf114fa5001aac5570,2021-10-22_16h59.49.576,arrow_simon_punish,2021.1.2,Win32,60.08893162,,,,,,,,,,,,,,,,,,,,,,,,,space,10.3834,8,3,0,6,0,1,1,,,,,
,,,,,,,,,,,right.png,,p,right,5cba50bf114fa5001aac5570,2021-10-22_16h59.49.576,arrow_simon_punish,2021.1.2,Win32,60.08893162,,,,,,,,,,,,,,p,1,1.4725,2.195469043,0,5,0,0,0,1,1,,,,,,,,,,,,,,
,,,,,,,,,,,right.png,,p,left,5cba50bf114fa5001aac5570,2021-10-22_16h59.49.576,arrow_simon_punish,2021.1.2,Win32,60.08893162,,,,,,,,,,,,,,p,1,1.5846,1.639156548,0,5,0,1,1,0,1,,,,,,,,,,,,,,
,,,,,,,,,,,left.png,,w,left,5cba50bf114fa5001aac5570,2021-10-22_16h59.49.576,arrow_simon_punish,2021.1.2,Win32,60.08893162,,,,,,,,,,,,,,p,0,1.4517,2.06008607,1,5,0,2,2,2,1,,,,,,,,,,,,,,
,,,,,,,,,,,left.png,,w,right,5cba50bf114fa5001aac5570,2021-10-22_16h59.49.576,arrow_simon_punish,2021.1.2,Win32,60.08893162,,,,,,,,,,,,,,p,0,1.5087,1.860291262,1,5,0,3,3,3,1,,,,,,,,,,,,,,
,,,,,,,,,,,left.png,,w,right,5cba50bf114fa5001aac5570,2021-10-22_16h59.49.576,arrow_simon_punish,2021.1.2,Win32,60.08893162,,,,,,,,,,,,,,p,0,1.4676,2.271433366,1,5,1,0,4,3,1,,,,,,,,,,,,,,
,,,,,,,,,,,right.png,,p,left,5cba50bf114fa5001aac5570,2021-10-22_16h59.49.576,arrow_simon_punish,2021.1.2,Win32,60.08893162,,,,,,,,,,,,,,p,1,1.4198,1.580026372,0,5,1,1,5,0,1,,,,,,,,,,,,,,
,,,,,,,,,,,right.png,,p,left,5cba50bf114fa5001aac5570,2021-10-22_16h59.49.576,arrow_simon_punish,2021.1.2,Win32,60.08893162,,,,,,,,,,,,,,w,0,1.4473,2.116251176,1,5,1,2,6,0,1,,,,,,,,,,,,,,
,,,,,,,,,,,right.png,,p,right,5cba50bf114fa5001aac5570,2021-10-22_16h59.49.576,arrow_simon_punish,2021.1.2,Win32,60.08893162,,,,,,,,,,,,,,p,1,1.4873,1.615675139,0,5,1,3,7,1,1,,,,,,,,,,,,,,
