instruct_resp_simon.keys,instruct_resp_simon.corr,instruct_resp_simon.rt,trial_resp_simon.keys,trial_resp_simon.corr,trial_resp_simon.rt,trials_train_simon.thisRepN,trials_train_simon.thisTrialN,trials_train_simon.thisN,trials_train_simon.thisIndex,trials_train_simon.ran,target_file,target_pos,target_resp,target_side,participant,date,expName,psychopyVersion,OS,frameRate,instruct_resp_timing.keys,instruct_resp_timing.corr,instruct_resp_timing.rt,trial_resp_timing.keys,trial_resp_timing.rt,trials_train_timing.thisRepN,trials_train_timing.thisTrialN,trials_train_timing.thisN,trials_train_timing.thisIndex,trials_train_timing.ran,instruct_resp.keys,instruct_resp.corr,instruct_resp.rt,trial_resp.keys,trial_resp.corr,trial_resp.rt,target_onset,err,pun,trials.thisRepN,trials.thisTrialN,trials.thisN,trials.thisIndex,trials.ran,block_note_resp.keys,block_note_resp.rt,block_num,blocks.thisRepN,blocks.thisTrialN,blocks.thisN,blocks.thisIndex,blocks.ran,punish,complete_resp.keys,complete_resp.rt,raffle_trial,raffle_err,raffle_rew
space,0,236.586,p,1,1.905,0,0,0,0,1,right.png,,p,left,5d2fbee1fb16450018a7a023,2021-10-27_12h07.12.217,arrow_simon_punish,2021.1.2,Win32,85.00510031,,,,,,,,,,,,,,,,,,,,,,,,,,,,,,,,,,,,,,
,,,p,1,1.58,0,1,1,1,1,right.png,,p,right,5d2fbee1fb16450018a7a023,2021-10-27_12h07.12.217,arrow_simon_punish,2021.1.2,Win32,85.00510031,,,,,,,,,,,,,,,,,,,,,,,,,,,,,,,,,,,,,,
,,,w,1,0.859,0,2,2,3,1,left.png,,w,right,5d2fbee1fb16450018a7a023,2021-10-27_12h07.12.217,arrow_simon_punish,2021.1.2,Win32,85.00510031,,,,,,,,,,,,,,,,,,,,,,,,,,,,,,,,,,,,,,
,,,w,1,0.591,0,3,3,2,1,left.png,,w,left,5d2fbee1fb16450018a7a023,2021-10-27_12h07.12.217,arrow_simon_punish,2021.1.2,Win32,85.00510031,,,,,,,,,,,,,,,,,,,,,,,,,,,,,,,,,,,,,,
,,,p,1,0.972,1,0,4,0,1,right.png,,p,left,5d2fbee1fb16450018a7a023,2021-10-27_12h07.12.217,arrow_simon_punish,2021.1.2,Win32,85.00510031,,,,,,,,,,,,,,,,,,,,,,,,,,,,,,,,,,,,,,
,,,w,1,3.592,1,1,5,3,1,left.png,,w,right,5d2fbee1fb16450018a7a023,2021-10-27_12h07.12.217,arrow_simon_punish,2021.1.2,Win32,85.00510031,,,,,,,,,,,,,,,,,,,,,,,,,,,,,,,,,,,,,,
,,,w,1,1.565,1,2,6,2,1,left.png,,w,left,5d2fbee1fb16450018a7a023,2021-10-27_12h07.12.217,arrow_simon_punish,2021.1.2,Win32,85.00510031,,,,,,,,,,,,,,,,,,,,,,,,,,,,,,,,,,,,,,
,,,p,1,1.253,1,3,7,1,1,right.png,,p,right,5d2fbee1fb16450018a7a023,2021-10-27_12h07.12.217,arrow_simon_punish,2021.1.2,Win32,85.00510031,,,,,,,,,,,,,,,,,,,,,,,,,,,,,,,,,,,,,,
,,,w,0,1.769,2,0,8,0,1,right.png,,p,left,5d2fbee1fb16450018a7a023,2021-10-27_12h07.12.217,arrow_simon_punish,2021.1.2,Win32,85.00510031,,,,,,,,,,,,,,,,,,,,,,,,,,,,,,,,,,,,,,
,,,p,0,1.578,2,1,9,2,1,left.png,,w,left,5d2fbee1fb16450018a7a023,2021-10-27_12h07.12.217,arrow_simon_punish,2021.1.2,Win32,85.00510031,,,,,,,,,,,,,,,,,,,,,,,,,,,,,,,,,,,,,,
,,,w,1,1.404,2,2,10,3,1,left.png,,w,right,5d2fbee1fb16450018a7a023,2021-10-27_12h07.12.217,arrow_simon_punish,2021.1.2,Win32,85.00510031,,,,,,,,,,,,,,,,,,,,,,,,,,,,,,,,,,,,,,
,,,p,1,1.073,2,3,11,1,1,right.png,,p,right,5d2fbee1fb16450018a7a023,2021-10-27_12h07.12.217,arrow_simon_punish,2021.1.2,Win32,85.00510031,,,,,,,,,,,,,,,,,,,,,,,,,,,,,,,,,,,,,,
,,,w,1,1.507,3,0,12,2,1,left.png,,w,left,5d2fbee1fb16450018a7a023,2021-10-27_12h07.12.217,arrow_simon_punish,2021.1.2,Win32,85.00510031,,,,,,,,,,,,,,,,,,,,,,,,,,,,,,,,,,,,,,
,,,p,0,1.769,3,1,13,3,1,left.png,,w,right,5d2fbee1fb16450018a7a023,2021-10-27_12h07.12.217,arrow_simon_punish,2021.1.2,Win32,85.00510031,,,,,,,,,,,,,,,,,,,,,,,,,,,,,,,,,,,,,,
,,,w,0,1.095,3,2,14,0,1,right.png,,p,left,5d2fbee1fb16450018a7a023,2021-10-27_12h07.12.217,arrow_simon_punish,2021.1.2,Win32,85.00510031,,,,,,,,,,,,,,,,,,,,,,,,,,,,,,,,,,,,,,
,,,p,1,1.45,3,3,15,1,1,right.png,,p,right,5d2fbee1fb16450018a7a023,2021-10-27_12h07.12.217,arrow_simon_punish,2021.1.2,Win32,85.00510031,,,,,,,,,,,,,,,,,,,,,,,,,,,,,,,,,,,,,,
,,,p,1,1.753,4,0,16,0,1,right.png,,p,left,5d2fbee1fb16450018a7a023,2021-10-27_12h07.12.217,arrow_simon_punish,2021.1.2,Win32,85.00510031,,,,,,,,,,,,,,,,,,,,,,,,,,,,,,,,,,,,,,
,,,w,1,1.482,4,1,17,2,1,left.png,,w,left,5d2fbee1fb16450018a7a023,2021-10-27_12h07.12.217,arrow_simon_punish,2021.1.2,Win32,85.00510031,,,,,,,,,,,,,,,,,,,,,,,,,,,,,,,,,,,,,,
,,,p,1,1.707,4,2,18,1,1,right.png,,p,right,5d2fbee1fb16450018a7a023,2021-10-27_12h07.12.217,arrow_simon_punish,2021.1.2,Win32,85.00510031,,,,,,,,,,,,,,,,,,,,,,,,,,,,,,,,,,,,,,
,,,w,1,1.012,4,3,19,3,1,left.png,,w,right,5d2fbee1fb16450018a7a023,2021-10-27_12h07.12.217,arrow_simon_punish,2021.1.2,Win32,85.00510031,,,,,,,,,,,,,,,,,,,,,,,,,,,,,,,,,,,,,,
,,,p,1,1.109,5,0,20,1,1,right.png,,p,right,5d2fbee1fb16450018a7a023,2021-10-27_12h07.12.217,arrow_simon_punish,2021.1.2,Win32,85.00510031,,,,,,,,,,,,,,,,,,,,,,,,,,,,,,,,,,,,,,
,,,w,1,1.369,5,1,21,2,1,left.png,,w,left,5d2fbee1fb16450018a7a023,2021-10-27_12h07.12.217,arrow_simon_punish,2021.1.2,Win32,85.00510031,,,,,,,,,,,,,,,,,,,,,,,,,,,,,,,,,,,,,,
,,,w,1,1.895,5,2,22,3,1,left.png,,w,right,5d2fbee1fb16450018a7a023,2021-10-27_12h07.12.217,arrow_simon_punish,2021.1.2,Win32,85.00510031,,,,,,,,,,,,,,,,,,,,,,,,,,,,,,,,,,,,,,
,,,p,1,0.895,5,3,23,0,1,right.png,,p,left,5d2fbee1fb16450018a7a023,2021-10-27_12h07.12.217,arrow_simon_punish,2021.1.2,Win32,85.00510031,,,,,,,,,,,,,,,,,,,,,,,,,,,,,,,,,,,,,,
,,,w,1,2.082,6,0,24,2,1,left.png,,w,left,5d2fbee1fb16450018a7a023,2021-10-27_12h07.12.217,arrow_simon_punish,2021.1.2,Win32,85.00510031,,,,,,,,,,,,,,,,,,,,,,,,,,,,,,,,,,,,,,
,,,w,1,1.519,6,1,25,3,1,left.png,,w,right,5d2fbee1fb16450018a7a023,2021-10-27_12h07.12.217,arrow_simon_punish,2021.1.2,Win32,85.00510031,,,,,,,,,,,,,,,,,,,,,,,,,,,,,,,,,,,,,,
,,,p,1,1.412,6,2,26,0,1,right.png,,p,left,5d2fbee1fb16450018a7a023,2021-10-27_12h07.12.217,arrow_simon_punish,2021.1.2,Win32,85.00510031,,,,,,,,,,,,,,,,,,,,,,,,,,,,,,,,,,,,,,
,,,w,0,1.919,6,3,27,1,1,right.png,,p,right,5d2fbee1fb16450018a7a023,2021-10-27_12h07.12.217,arrow_simon_punish,2021.1.2,Win32,85.00510031,,,,,,,,,,,,,,,,,,,,,,,,,,,,,,,,,,,,,,
,,,w,1,2.201,7,0,28,2,1,left.png,,w,left,5d2fbee1fb16450018a7a023,2021-10-27_12h07.12.217,arrow_simon_punish,2021.1.2,Win32,85.00510031,,,,,,,,,,,,,,,,,,,,,,,,,,,,,,,,,,,,,,
,,,p,1,1.153,7,1,29,1,1,right.png,,p,right,5d2fbee1fb16450018a7a023,2021-10-27_12h07.12.217,arrow_simon_punish,2021.1.2,Win32,85.00510031,,,,,,,,,,,,,,,,,,,,,,,,,,,,,,,,,,,,,,
,,,p,1,2.593,7,2,30,0,1,right.png,,p,left,5d2fbee1fb16450018a7a023,2021-10-27_12h07.12.217,arrow_simon_punish,2021.1.2,Win32,85.00510031,,,,,,,,,,,,,,,,,,,,,,,,,,,,,,,,,,,,,,
,,,w,1,0.758,7,3,31,3,1,left.png,,w,right,5d2fbee1fb16450018a7a023,2021-10-27_12h07.12.217,arrow_simon_punish,2021.1.2,Win32,85.00510031,,,,,,,,,,,,,,,,,,,,,,,,,,,,,,,,,,,,,,
,,,p,0,2.412,8,0,32,2,1,left.png,,w,left,5d2fbee1fb16450018a7a023,2021-10-27_12h07.12.217,arrow_simon_punish,2021.1.2,Win32,85.00510031,,,,,,,,,,,,,,,,,,,,,,,,,,,,,,,,,,,,,,
,,,w,0,2.12,8,1,33,1,1,right.png,,p,right,5d2fbee1fb16450018a7a023,2021-10-27_12h07.12.217,arrow_simon_punish,2021.1.2,Win32,85.00510031,,,,,,,,,,,,,,,,,,,,,,,,,,,,,,,,,,,,,,
,,,p,0,1.683,8,2,34,3,1,left.png,,w,right,5d2fbee1fb16450018a7a023,2021-10-27_12h07.12.217,arrow_simon_punish,2021.1.2,Win32,85.00510031,,,,,,,,,,,,,,,,,,,,,,,,,,,,,,,,,,,,,,
,,,w,0,1.038,8,3,35,0,1,right.png,,p,left,5d2fbee1fb16450018a7a023,2021-10-27_12h07.12.217,arrow_simon_punish,2021.1.2,Win32,85.00510031,,,,,,,,,,,,,,,,,,,,,,,,,,,,,,,,,,,,,,
,,,p,0,1.613,9,0,36,2,1,left.png,,w,left,5d2fbee1fb16450018a7a023,2021-10-27_12h07.12.217,arrow_simon_punish,2021.1.2,Win32,85.00510031,,,,,,,,,,,,,,,,,,,,,,,,,,,,,,,,,,,,,,
,,,w,0,1.306,9,1,37,0,1,right.png,,p,left,5d2fbee1fb16450018a7a023,2021-10-27_12h07.12.217,arrow_simon_punish,2021.1.2,Win32,85.00510031,,,,,,,,,,,,,,,,,,,,,,,,,,,,,,,,,,,,,,
,,,p,0,2.825,9,2,38,3,1,left.png,,w,right,5d2fbee1fb16450018a7a023,2021-10-27_12h07.12.217,arrow_simon_punish,2021.1.2,Win32,85.00510031,,,,,,,,,,,,,,,,,,,,,,,,,,,,,,,,,,,,,,
,,,p,1,1.319,9,3,39,1,1,right.png,,p,right,5d2fbee1fb16450018a7a023,2021-10-27_12h07.12.217,arrow_simon_punish,2021.1.2,Win32,85.00510031,,,,,,,,,,,,,,,,,,,,,,,,,,,,,,,,,,,,,,
,,,,,,,,,,,,,,,5d2fbee1fb16450018a7a023,2021-10-27_12h07.12.217,arrow_simon_punish,2021.1.2,Win32,85.00510031,space,0,13.64,p,5.502,0,0,0,0,1,,,,,,,,,,,,,,,,,,,,,,,,,,,,
,,,,,,,,,,,,,,,5d2fbee1fb16450018a7a023,2021-10-27_12h07.12.217,arrow_simon_punish,2021.1.2,Win32,85.00510031,,,,p,1.095,1,0,1,0,1,,,,,,,,,,,,,,,,,,,,,,,,,,,,
,,,,,,,,,,,,,,,5d2fbee1fb16450018a7a023,2021-10-27_12h07.12.217,arrow_simon_punish,2021.1.2,Win32,85.00510031,,,,w,1.15,2,0,2,0,1,,,,,,,,,,,,,,,,,,,,,,,,,,,,
,,,,,,,,,,,,,,,5d2fbee1fb16450018a7a023,2021-10-27_12h07.12.217,arrow_simon_punish,2021.1.2,Win32,85.00510031,,,,w,1.603,3,0,3,0,1,,,,,,,,,,,,,,,,,,,,,,,,,,,,
,,,,,,,,,,,,,,,5d2fbee1fb16450018a7a023,2021-10-27_12h07.12.217,arrow_simon_punish,2021.1.2,Win32,85.00510031,,,,p,1.46,4,0,4,0,1,,,,,,,,,,,,,,,,,,,,,,,,,,,,
,,,,,,,,,,,,,,,5d2fbee1fb16450018a7a023,2021-10-27_12h07.12.217,arrow_simon_punish,2021.1.2,Win32,85.00510031,,,,w,0.442,5,0,5,0,1,,,,,,,,,,,,,,,,,,,,,,,,,,,,
,,,,,,,,,,,,,,,5d2fbee1fb16450018a7a023,2021-10-27_12h07.12.217,arrow_simon_punish,2021.1.2,Win32,85.00510031,,,,w,0.029,6,0,6,0,1,,,,,,,,,,,,,,,,,,,,,,,,,,,,
,,,,,,,,,,,,,,,5d2fbee1fb16450018a7a023,2021-10-27_12h07.12.217,arrow_simon_punish,2021.1.2,Win32,85.00510031,,,,p,1.785,7,0,7,0,1,,,,,,,,,,,,,,,,,,,,,,,,,,,,
,,,,,,,,,,,,,,,5d2fbee1fb16450018a7a023,2021-10-27_12h07.12.217,arrow_simon_punish,2021.1.2,Win32,85.00510031,,,,p,3.487,8,0,8,0,1,,,,,,,,,,,,,,,,,,,,,,,,,,,,
,,,,,,,,,,,,,,,5d2fbee1fb16450018a7a023,2021-10-27_12h07.12.217,arrow_simon_punish,2021.1.2,Win32,85.00510031,,,,p,2.395,9,0,9,0,1,,,,,,,,,,,,,,,,,,,,,,,,,,,,
,,,,,,,,,,,,,,,5d2fbee1fb16450018a7a023,2021-10-27_12h07.12.217,arrow_simon_punish,2021.1.2,Win32,85.00510031,,,,w,0.473,10,0,10,0,1,,,,,,,,,,,,,,,,,,,,,,,,,,,,
,,,,,,,,,,,,,,,5d2fbee1fb16450018a7a023,2021-10-27_12h07.12.217,arrow_simon_punish,2021.1.2,Win32,85.00510031,,,,p,3.238,11,0,11,0,1,,,,,,,,,,,,,,,,,,,,,,,,,,,,
,,,,,,,,,,,,,,,5d2fbee1fb16450018a7a023,2021-10-27_12h07.12.217,arrow_simon_punish,2021.1.2,Win32,85.00510031,,,,p,1.918,12,0,12,0,1,,,,,,,,,,,,,,,,,,,,,,,,,,,,
,,,,,,,,,,,,,,,5d2fbee1fb16450018a7a023,2021-10-27_12h07.12.217,arrow_simon_punish,2021.1.2,Win32,85.00510031,,,,p,2.836,13,0,13,0,1,,,,,,,,,,,,,,,,,,,,,,,,,,,,
,,,,,,,,,,,,,,,5d2fbee1fb16450018a7a023,2021-10-27_12h07.12.217,arrow_simon_punish,2021.1.2,Win32,85.00510031,,,,p,1.557,14,0,14,0,1,,,,,,,,,,,,,,,,,,,,,,,,,,,,
,,,,,,,,,,,,,,,5d2fbee1fb16450018a7a023,2021-10-27_12h07.12.217,arrow_simon_punish,2021.1.2,Win32,85.00510031,,,,p,1.872,15,0,15,0,1,,,,,,,,,,,,,,,,,,,,,,,,,,,,
,,,,,,,,,,,,,,,5d2fbee1fb16450018a7a023,2021-10-27_12h07.12.217,arrow_simon_punish,2021.1.2,Win32,85.00510031,,,,w,1.903,16,0,16,0,1,,,,,,,,,,,,,,,,,,,,,,,,,,,,
,,,,,,,,,,,,,,,5d2fbee1fb16450018a7a023,2021-10-27_12h07.12.217,arrow_simon_punish,2021.1.2,Win32,85.00510031,,,,p,2.264,17,0,17,0,1,,,,,,,,,,,,,,,,,,,,,,,,,,,,
,,,,,,,,,,,,,,,5d2fbee1fb16450018a7a023,2021-10-27_12h07.12.217,arrow_simon_punish,2021.1.2,Win32,85.00510031,,,,w,2.051,18,0,18,0,1,,,,,,,,,,,,,,,,,,,,,,,,,,,,
,,,,,,,,,,,,,,,5d2fbee1fb16450018a7a023,2021-10-27_12h07.12.217,arrow_simon_punish,2021.1.2,Win32,85.00510031,,,,w,2.145,19,0,19,0,1,,,,,,,,,,,,,,,,,,,,,,,,,,,,
,,,,,,,,,,,,,,,5d2fbee1fb16450018a7a023,2021-10-27_12h07.12.217,arrow_simon_punish,2021.1.2,Win32,85.00510031,,,,p,2.976,20,0,20,0,1,,,,,,,,,,,,,,,,,,,,,,,,,,,,
,,,,,,,,,,,,,,,5d2fbee1fb16450018a7a023,2021-10-27_12h07.12.217,arrow_simon_punish,2021.1.2,Win32,85.00510031,,,,p,2.672,21,0,21,0,1,,,,,,,,,,,,,,,,,,,,,,,,,,,,
,,,,,,,,,,,,,,,5d2fbee1fb16450018a7a023,2021-10-27_12h07.12.217,arrow_simon_punish,2021.1.2,Win32,85.00510031,,,,w,2.772,22,0,22,0,1,,,,,,,,,,,,,,,,,,,,,,,,,,,,
,,,,,,,,,,,,,,,5d2fbee1fb16450018a7a023,2021-10-27_12h07.12.217,arrow_simon_punish,2021.1.2,Win32,85.00510031,,,,w,1.436,23,0,23,0,1,,,,,,,,,,,,,,,,,,,,,,,,,,,,
,,,,,,,,,,,,,,,5d2fbee1fb16450018a7a023,2021-10-27_12h07.12.217,arrow_simon_punish,2021.1.2,Win32,85.00510031,,,,w,2.051,24,0,24,0,1,,,,,,,,,,,,,,,,,,,,,,,,,,,,
,,,,,,,,,,,,,,,5d2fbee1fb16450018a7a023,2021-10-27_12h07.12.217,arrow_simon_punish,2021.1.2,Win32,85.00510031,,,,p,1.764,25,0,25,0,1,,,,,,,,,,,,,,,,,,,,,,,,,,,,
,,,,,,,,,,,,,,,5d2fbee1fb16450018a7a023,2021-10-27_12h07.12.217,arrow_simon_punish,2021.1.2,Win32,85.00510031,,,,p,4.588,26,0,26,0,1,,,,,,,,,,,,,,,,,,,,,,,,,,,,
,,,,,,,,,,,,,,,5d2fbee1fb16450018a7a023,2021-10-27_12h07.12.217,arrow_simon_punish,2021.1.2,Win32,85.00510031,,,,w,0.247,27,0,27,0,1,,,,,,,,,,,,,,,,,,,,,,,,,,,,
,,,,,,,,,,,,,,,5d2fbee1fb16450018a7a023,2021-10-27_12h07.12.217,arrow_simon_punish,2021.1.2,Win32,85.00510031,,,,p,0.443,28,0,28,0,1,,,,,,,,,,,,,,,,,,,,,,,,,,,,
,,,,,,,,,,,,,,,5d2fbee1fb16450018a7a023,2021-10-27_12h07.12.217,arrow_simon_punish,2021.1.2,Win32,85.00510031,,,,p,0.464,29,0,29,0,1,,,,,,,,,,,,,,,,,,,,,,,,,,,,
,,,,,,,,,,,,,,,5d2fbee1fb16450018a7a023,2021-10-27_12h07.12.217,arrow_simon_punish,2021.1.2,Win32,85.00510031,,,,p,0.053,30,0,30,0,1,,,,,,,,,,,,,,,,,,,,,,,,,,,,
,,,,,,,,,,,,,,,5d2fbee1fb16450018a7a023,2021-10-27_12h07.12.217,arrow_simon_punish,2021.1.2,Win32,85.00510031,,,,p,1.402,31,0,31,0,1,,,,,,,,,,,,,,,,,,,,,,,,,,,,
,,,,,,,,,,,,,,,5d2fbee1fb16450018a7a023,2021-10-27_12h07.12.217,arrow_simon_punish,2021.1.2,Win32,85.00510031,,,,p,0.398,32,0,32,0,1,,,,,,,,,,,,,,,,,,,,,,,,,,,,
,,,,,,,,,,,,,,,5d2fbee1fb16450018a7a023,2021-10-27_12h07.12.217,arrow_simon_punish,2021.1.2,Win32,85.00510031,,,,w,2.554,33,0,33,0,1,,,,,,,,,,,,,,,,,,,,,,,,,,,,
,,,,,,,,,,,,,,,5d2fbee1fb16450018a7a023,2021-10-27_12h07.12.217,arrow_simon_punish,2021.1.2,Win32,85.00510031,,,,w,1.076,34,0,34,0,1,,,,,,,,,,,,,,,,,,,,,,,,,,,,
,,,,,,,,,,,,,,,5d2fbee1fb16450018a7a023,2021-10-27_12h07.12.217,arrow_simon_punish,2021.1.2,Win32,85.00510031,,,,p,1.095,35,0,35,0,1,,,,,,,,,,,,,,,,,,,,,,,,,,,,
,,,,,,,,,,,,,,,5d2fbee1fb16450018a7a023,2021-10-27_12h07.12.217,arrow_simon_punish,2021.1.2,Win32,85.00510031,,,,p,0.132,36,0,36,0,1,,,,,,,,,,,,,,,,,,,,,,,,,,,,
,,,,,,,,,,,,,,,5d2fbee1fb16450018a7a023,2021-10-27_12h07.12.217,arrow_simon_punish,2021.1.2,Win32,85.00510031,,,,w,0.339,37,0,37,0,1,,,,,,,,,,,,,,,,,,,,,,,,,,,,
,,,,,,,,,,,,,,,5d2fbee1fb16450018a7a023,2021-10-27_12h07.12.217,arrow_simon_punish,2021.1.2,Win32,85.00510031,,,,w,0.542,38,0,38,0,1,,,,,,,,,,,,,,,,,,,,,,,,,,,,
,,,,,,,,,,,,,,,5d2fbee1fb16450018a7a023,2021-10-27_12h07.12.217,arrow_simon_punish,2021.1.2,Win32,85.00510031,,,,p,0.297,39,0,39,0,1,,,,,,,,,,,,,,,,,,,,,,,,,,,,
,,,,,,,,,,,,,,,5d2fbee1fb16450018a7a023,2021-10-27_12h07.12.217,arrow_simon_punish,2021.1.2,Win32,85.00510031,,,,p,2.828,40,0,40,0,1,,,,,,,,,,,,,,,,,,,,,,,,,,,,
,,,,,,,,,,,,,,,5d2fbee1fb16450018a7a023,2021-10-27_12h07.12.217,arrow_simon_punish,2021.1.2,Win32,85.00510031,,,,p,2.014,41,0,41,0,1,,,,,,,,,,,,,,,,,,,,,,,,,,,,
,,,,,,,,,,,,,,,5d2fbee1fb16450018a7a023,2021-10-27_12h07.12.217,arrow_simon_punish,2021.1.2,Win32,85.00510031,,,,w,0.804,42,0,42,0,1,,,,,,,,,,,,,,,,,,,,,,,,,,,,
,,,,,,,,,,,,,,,5d2fbee1fb16450018a7a023,2021-10-27_12h07.12.217,arrow_simon_punish,2021.1.2,Win32,85.00510031,,,,w,0.346,43,0,43,0,1,,,,,,,,,,,,,,,,,,,,,,,,,,,,
,,,,,,,,,,,,,,,5d2fbee1fb16450018a7a023,2021-10-27_12h07.12.217,arrow_simon_punish,2021.1.2,Win32,85.00510031,,,,p,3.096,44,0,44,0,1,,,,,,,,,,,,,,,,,,,,,,,,,,,,
,,,,,,,,,,,,,,,5d2fbee1fb16450018a7a023,2021-10-27_12h07.12.217,arrow_simon_punish,2021.1.2,Win32,85.00510031,,,,p,2.354,45,0,45,0,1,,,,,,,,,,,,,,,,,,,,,,,,,,,,
,,,,,,,,,,,,,,,5d2fbee1fb16450018a7a023,2021-10-27_12h07.12.217,arrow_simon_punish,2021.1.2,Win32,85.00510031,,,,w,2.261,46,0,46,0,1,,,,,,,,,,,,,,,,,,,,,,,,,,,,
,,,,,,,,,,,,,,,5d2fbee1fb16450018a7a023,2021-10-27_12h07.12.217,arrow_simon_punish,2021.1.2,Win32,85.00510031,,,,p,2.377,47,0,47,0,1,,,,,,,,,,,,,,,,,,,,,,,,,,,,
,,,,,,,,,,,,,,,5d2fbee1fb16450018a7a023,2021-10-27_12h07.12.217,arrow_simon_punish,2021.1.2,Win32,85.00510031,,,,p,3.554,48,0,48,0,1,,,,,,,,,,,,,,,,,,,,,,,,,,,,
,,,,,,,,,,,,,,,5d2fbee1fb16450018a7a023,2021-10-27_12h07.12.217,arrow_simon_punish,2021.1.2,Win32,85.00510031,,,,w,3.157,49,0,49,0,1,,,,,,,,,,,,,,,,,,,,,,,,,,,,
,,,,,,,,,,,,,,,5d2fbee1fb16450018a7a023,2021-10-27_12h07.12.217,arrow_simon_punish,2021.1.2,Win32,85.00510031,,,,p,3.012,50,0,50,0,1,,,,,,,,,,,,,,,,,,,,,,,,,,,,
,,,,,,,,,,,,,,,5d2fbee1fb16450018a7a023,2021-10-27_12h07.12.217,arrow_simon_punish,2021.1.2,Win32,85.00510031,,,,p,1.47,51,0,51,0,1,,,,,,,,,,,,,,,,,,,,,,,,,,,,
,,,,,,,,,,,,,,,5d2fbee1fb16450018a7a023,2021-10-27_12h07.12.217,arrow_simon_punish,2021.1.2,Win32,85.00510031,,,,p,5.426,52,0,52,0,1,,,,,,,,,,,,,,,,,,,,,,,,,,,,
,,,,,,,,,,,,,,,5d2fbee1fb16450018a7a023,2021-10-27_12h07.12.217,arrow_simon_punish,2021.1.2,Win32,85.00510031,,,,p,0.945,53,0,53,0,1,,,,,,,,,,,,,,,,,,,,,,,,,,,,
,,,,,,,,,,,,,,,5d2fbee1fb16450018a7a023,2021-10-27_12h07.12.217,arrow_simon_punish,2021.1.2,Win32,85.00510031,,,,p,0.336,54,0,54,0,1,,,,,,,,,,,,,,,,,,,,,,,,,,,,
,,,,,,,,,,,,,,,5d2fbee1fb16450018a7a023,2021-10-27_12h07.12.217,arrow_simon_punish,2021.1.2,Win32,85.00510031,,,,p,0.38,55,0,55,0,1,,,,,,,,,,,,,,,,,,,,,,,,,,,,
,,,,,,,,,,,,,,,5d2fbee1fb16450018a7a023,2021-10-27_12h07.12.217,arrow_simon_punish,2021.1.2,Win32,85.00510031,,,,p,0.756,56,0,56,0,1,,,,,,,,,,,,,,,,,,,,,,,,,,,,
,,,,,,,,,,,,,,,5d2fbee1fb16450018a7a023,2021-10-27_12h07.12.217,arrow_simon_punish,2021.1.2,Win32,85.00510031,,,,p,5.344,57,0,57,0,1,,,,,,,,,,,,,,,,,,,,,,,,,,,,
,,,,,,,,,,,,,,,5d2fbee1fb16450018a7a023,2021-10-27_12h07.12.217,arrow_simon_punish,2021.1.2,Win32,85.00510031,,,,w,0.402,58,0,58,0,1,,,,,,,,,,,,,,,,,,,,,,,,,,,,
,,,,,,,,,,,,,,,5d2fbee1fb16450018a7a023,2021-10-27_12h07.12.217,arrow_simon_punish,2021.1.2,Win32,85.00510031,,,,p,3.676,59,0,59,0,1,,,,,,,,,,,,,,,,,,,,,,,,,,,,
,,,,,,,,,,,left.png,,w,right,5d2fbee1fb16450018a7a023,2021-10-27_12h07.12.217,arrow_simon_punish,2021.1.2,Win32,85.00510031,,,,,,,,,,,space,0,150.225,w,1,2.312,1.686109934,1,1,0,0,0,3,1,,,,,,,,,,,,,,
,,,,,,,,,,,left.png,,w,left,5d2fbee1fb16450018a7a023,2021-10-27_12h07.12.217,arrow_simon_punish,2021.1.2,Win32,85.00510031,,,,,,,,,,,,,,w,1,1.495,1.960646541,0,1,0,1,1,2,1,,,,,,,,,,,,,,
,,,,,,,,,,,left.png,,w,left,5d2fbee1fb16450018a7a023,2021-10-27_12h07.12.217,arrow_simon_punish,2021.1.2,Win32,85.00510031,,,,,,,,,,,,,,w,1,1.2,1.719936328,1,1,0,2,2,2,1,,,,,,,,,,,,,,
,,,,,,,,,,,left.png,,w,left,5d2fbee1fb16450018a7a023,2021-10-27_12h07.12.217,arrow_simon_punish,2021.1.2,Win32,85.00510031,,,,,,,,,,,,,,w,1,0.861,1.553971903,1,1,0,3,3,2,1,,,,,,,,,,,,,,
,,,,,,,,,,,left.png,,w,right,5d2fbee1fb16450018a7a023,2021-10-27_12h07.12.217,arrow_simon_punish,2021.1.2,Win32,85.00510031,,,,,,,,,,,,,,p,0,0.766,1.506552081,1,1,1,0,4,3,1,,,,,,,,,,,,,,
,,,,,,,,,,,left.png,,w,left,5d2fbee1fb16450018a7a023,2021-10-27_12h07.12.217,arrow_simon_punish,2021.1.2,Win32,85.00510031,,,,,,,,,,,,,,p,0,0.107,2.229626027,1,1,1,1,5,2,1,,,,,,,,,,,,,,
,,,,,,,,,,,right.png,,p,left,5d2fbee1fb16450018a7a023,2021-10-27_12h07.12.217,arrow_simon_punish,2021.1.2,Win32,85.00510031,,,,,,,,,,,,,,w,0,0.39,2.490961178,1,1,1,2,6,0,1,,,,,,,,,,,,,,
,,,,,,,,,,,left.png,,w,right,5d2fbee1fb16450018a7a023,2021-10-27_12h07.12.217,arrow_simon_punish,2021.1.2,Win32,85.00510031,,,,,,,,,,,,,,p,0,1.083,2.09504105,1,1,1,3,7,3,1,,,,,,,,,,,,,,
,,,,,,,,,,,left.png,,w,left,5d2fbee1fb16450018a7a023,2021-10-27_12h07.12.217,arrow_simon_punish,2021.1.2,Win32,85.00510031,,,,,,,,,,,,,,w,1,1.201,1.841516538,1,1,2,0,8,2,1,,,,,,,,,,,,,,
,,,,,,,,,,,right.png,,p,right,5d2fbee1fb16450018a7a023,2021-10-27_12h07.12.217,arrow_simon_punish,2021.1.2,Win32,85.00510031,,,,,,,,,,,,,,p,1,1.754,1.890910341,1,1,2,1,9,1,1,,,,,,,,,,,,,,
,,,,,,,,,,,left.png,,w,left,5d2fbee1fb16450018a7a023,2021-10-27_12h07.12.217,arrow_simon_punish,2021.1.2,Win32,85.00510031,,,,,,,,,,,,,,w,1,0.989,1.684581507,1,1,2,2,10,2,1,,,,,,,,,,,,,,
,,,,,,,,,,,left.png,,w,left,5d2fbee1fb16450018a7a023,2021-10-27_12h07.12.217,arrow_simon_punish,2021.1.2,Win32,85.00510031,,,,,,,,,,,,,,w,1,1.813,1.993835218,1,1,2,3,11,2,1,,,,,,,,,,,,,,
,,,,,,,,,,,right.png,,p,right,5d2fbee1fb16450018a7a023,2021-10-27_12h07.12.217,arrow_simon_punish,2021.1.2,Win32,85.00510031,,,,,,,,,,,,,,w,0,1.206,1.889657579,1,1,3,0,12,1,1,,,,,,,,,,,,,,
,,,,,,,,,,,left.png,,w,right,5d2fbee1fb16450018a7a023,2021-10-27_12h07.12.217,arrow_simon_punish,2021.1.2,Win32,85.00510031,,,,,,,,,,,,,,w,1,1.794,2.200273292,1,1,3,1,13,3,1,,,,,,,,,,,,,,
,,,,,,,,,,,left.png,,w,left,5d2fbee1fb16450018a7a023,2021-10-27_12h07.12.217,arrow_simon_punish,2021.1.2,Win32,85.00510031,,,,,,,,,,,,,,w,1,1.624,2.045549028,1,1,3,2,14,2,1,,,,,,,,,,,,,,
,,,,,,,,,,,right.png,,p,right,5d2fbee1fb16450018a7a023,2021-10-27_12h07.12.217,arrow_simon_punish,2021.1.2,Win32,85.00510031,,,,,,,,,,,,,,w,0,0.811,1.506572034,1,1,3,3,15,1,1,,,,,,,,,,,,,,
,,,,,,,,,,,right.png,,p,left,5d2fbee1fb16450018a7a023,2021-10-27_12h07.12.217,arrow_simon_punish,2021.1.2,Win32,85.00510031,,,,,,,,,,,,,,p,1,0.165,2.35636429,1,1,4,0,16,0,1,,,,,,,,,,,,,,
,,,,,,,,,,,left.png,,w,right,5d2fbee1fb16450018a7a023,2021-10-27_12h07.12.217,arrow_simon_punish,2021.1.2,Win32,85.00510031,,,,,,,,,,,,,,p,0,0.076,1.759620547,1,1,4,1,17,3,1,,,,,,,,,,,,,,
,,,,,,,,,,,left.png,,w,right,5d2fbee1fb16450018a7a023,2021-10-27_12h07.12.217,arrow_simon_punish,2021.1.2,Win32,85.00510031,,,,,,,,,,,,,,p,0,0.06,1.789859355,1,1,4,2,18,3,1,,,,,,,,,,,,,,
,,,,,,,,,,,right.png,,p,right,5d2fbee1fb16450018a7a023,2021-10-27_12h07.12.217,arrow_simon_punish,2021.1.2,Win32,85.00510031,,,,,,,,,,,,,,p,1,0.991,1.57079166,1,1,4,3,19,1,1,,,,,,,,,,,,,,
,,,,,,,,,,,right.png,,p,right,5d2fbee1fb16450018a7a023,2021-10-27_12h07.12.217,arrow_simon_punish,2021.1.2,Win32,85.00510031,,,,,,,,,,,,,,p,1,1.369,2.059017736,1,1,5,0,20,1,1,,,,,,,,,,,,,,
,,,,,,,,,,,right.png,,p,right,5d2fbee1fb16450018a7a023,2021-10-27_12h07.12.217,arrow_simon_punish,2021.1.2,Win32,85.00510031,,,,,,,,,,,,,,p,1,0.736,1.51910223,1,1,5,1,21,1,1,,,,,,,,,,,,,,
,,,,,,,,,,,left.png,,w,left,5d2fbee1fb16450018a7a023,2021-10-27_12h07.12.217,arrow_simon_punish,2021.1.2,Win32,85.00510031,,,,,,,,,,,,,,p,0,0.819,2.179434616,1,1,5,2,22,2,1,,,,,,,,,,,,,,
,,,,,,,,,,,right.png,,p,right,5d2fbee1fb16450018a7a023,2021-10-27_12h07.12.217,arrow_simon_punish,2021.1.2,Win32,85.00510031,,,,,,,,,,,,,,p,1,1.141,1.825761956,1,1,5,3,23,1,1,,,,,,,,,,,,,,
,,,,,,,,,,,right.png,,p,right,5d2fbee1fb16450018a7a023,2021-10-27_12h07.12.217,arrow_simon_punish,2021.1.2,Win32,85.00510031,,,,,,,,,,,,,,p,1,1.641,2.278361682,1,1,6,0,24,1,1,,,,,,,,,,,,,,
,,,,,,,,,,,right.png,,p,right,5d2fbee1fb16450018a7a023,2021-10-27_12h07.12.217,arrow_simon_punish,2021.1.2,Win32,85.00510031,,,,,,,,,,,,,,w,0,0.865,1.558928016,1,1,6,1,25,1,1,,,,,,,,,,,,,,
,,,,,,,,,,,right.png,,p,right,5d2fbee1fb16450018a7a023,2021-10-27_12h07.12.217,arrow_simon_punish,2021.1.2,Win32,85.00510031,,,,,,,,,,,,,,w,0,2.049,2.375942412,1,1,6,2,26,1,1,,,,,,,,,,,,,,
,,,,,,,,,,,right.png,,p,left,5d2fbee1fb16450018a7a023,2021-10-27_12h07.12.217,arrow_simon_punish,2021.1.2,Win32,85.00510031,,,,,,,,,,,,,,w,0,1.182,1.823997829,1,1,6,3,27,0,1,,,,,,,,,,,,,,
,,,,,,,,,,,right.png,,p,right,5d2fbee1fb16450018a7a023,2021-10-27_12h07.12.217,arrow_simon_punish,2021.1.2,Win32,85.00510031,,,,,,,,,,,,,,p,1,1.942,2.471837794,1,1,7,0,28,1,1,,,,,,,,,,,,,,
,,,,,,,,,,,left.png,,w,right,5d2fbee1fb16450018a7a023,2021-10-27_12h07.12.217,arrow_simon_punish,2021.1.2,Win32,85.00510031,,,,,,,,,,,,,,w,1,1.496,1.558697205,0,1,7,1,29,3,1,,,,,,,,,,,,,,
,,,,,,,,,,,left.png,,w,left,5d2fbee1fb16450018a7a023,2021-10-27_12h07.12.217,arrow_simon_punish,2021.1.2,Win32,85.00510031,,,,,,,,,,,,,,w,1,0.978,1.684830283,1,1,7,2,30,2,1,,,,,,,,,,,,,,
,,,,,,,,,,,right.png,,p,left,5d2fbee1fb16450018a7a023,2021-10-27_12h07.12.217,arrow_simon_punish,2021.1.2,Win32,85.00510031,,,,,,,,,,,,,,w,0,0.341,2.312288603,1,1,7,3,31,0,1,,,,,,,,,,,,,,
,,,,,,,,,,,left.png,,w,right,5d2fbee1fb16450018a7a023,2021-10-27_12h07.12.217,arrow_simon_punish,2021.1.2,Win32,85.00510031,,,,,,,,,,,,,,w,1,2.556,1.938762394,1,1,8,0,32,3,1,,,,,,,,,,,,,,
,,,,,,,,,,,right.png,,p,left,5d2fbee1fb16450018a7a023,2021-10-27_12h07.12.217,arrow_simon_punish,2021.1.2,Win32,85.00510031,,,,,,,,,,,,,,p,1,1.959,2.357431468,1,1,8,1,33,0,1,,,,,,,,,,,,,,
,,,,,,,,,,,right.png,,p,left,5d2fbee1fb16450018a7a023,2021-10-27_12h07.12.217,arrow_simon_punish,2021.1.2,Win32,85.00510031,,,,,,,,,,,,,,p,1,0.141,2.408345712,1,1,8,2,34,0,1,,,,,,,,,,,,,,
,,,,,,,,,,,right.png,,p,left,5d2fbee1fb16450018a7a023,2021-10-27_12h07.12.217,arrow_simon_punish,2021.1.2,Win32,85.00510031,,,,,,,,,,,,,,w,0,0.096,2.072385325,1,1,8,3,35,0,1,,,,,,,,,,,,,,
,,,,,,,,,,,left.png,,w,left,5d2fbee1fb16450018a7a023,2021-10-27_12h07.12.217,arrow_simon_punish,2021.1.2,Win32,85.00510031,,,,,,,,,,,,,,p,0,0.182,2.00372033,1,1,9,0,36,2,1,,,,,,,,,,,,,,
,,,,,,,,,,,left.png,,w,right,5d2fbee1fb16450018a7a023,2021-10-27_12h07.12.217,arrow_simon_punish,2021.1.2,Win32,85.00510031,,,,,,,,,,,,,,p,0,0.001,2.465748075,1,1,9,1,37,3,1,,,,,,,,,,,,,,
,,,,,,,,,,,left.png,,w,right,5d2fbee1fb16450018a7a023,2021-10-27_12h07.12.217,arrow_simon_punish,2021.1.2,Win32,85.00510031,,,,,,,,,,,,,,p,0,0.061,2.113922939,1,1,9,2,38,3,1,,,,,,,,,,,,,,
,,,,,,,,,,,right.png,,p,right,5d2fbee1fb16450018a7a023,2021-10-27_12h07.12.217,arrow_simon_punish,2021.1.2,Win32,85.00510031,,,,,,,,,,,,,,w,0,0.088,2.123907077,1,1,9,3,39,1,1,,,,,,,,,,,,,,
,,,,,,,,,,,right.png,,p,left,5d2fbee1fb16450018a7a023,2021-10-27_12h07.12.217,arrow_simon_punish,2021.1.2,Win32,85.00510031,,,,,,,,,,,,,,w,0,0.014,2.255770536,1,1,10,0,40,0,1,,,,,,,,,,,,,,
,,,,,,,,,,,left.png,,w,left,5d2fbee1fb16450018a7a023,2021-10-27_12h07.12.217,arrow_simon_punish,2021.1.2,Win32,85.00510031,,,,,,,,,,,,,,p,0,0.082,1.566990987,1,1,10,1,41,2,1,,,,,,,,,,,,,,
,,,,,,,,,,,right.png,,p,right,5d2fbee1fb16450018a7a023,2021-10-27_12h07.12.217,arrow_simon_punish,2021.1.2,Win32,85.00510031,,,,,,,,,,,,,,p,1,1.541,2.241618919,0,1,10,2,42,1,1,,,,,,,,,,,,,,
,,,,,,,,,,,right.png,,p,right,5d2fbee1fb16450018a7a023,2021-10-27_12h07.12.217,arrow_simon_punish,2021.1.2,Win32,85.00510031,,,,,,,,,,,,,,w,0,1.037,1.580064278,1,1,10,3,43,1,1,,,,,,,,,,,,,,
,,,,,,,,,,,left.png,,w,left,5d2fbee1fb16450018a7a023,2021-10-27_12h07.12.217,arrow_simon_punish,2021.1.2,Win32,85.00510031,,,,,,,,,,,,,,p,0,1.096,1.792432447,1,1,11,0,44,2,1,,,,,,,,,,,,,,
,,,,,,,,,,,left.png,,w,right,5d2fbee1fb16450018a7a023,2021-10-27_12h07.12.217,arrow_simon_punish,2021.1.2,Win32,85.00510031,,,,,,,,,,,,,,w,1,1.203,1.877493159,1,1,11,1,45,3,1,,,,,,,,,,,,,,
,,,,,,,,,,,right.png,,p,left,5d2fbee1fb16450018a7a023,2021-10-27_12h07.12.217,arrow_simon_punish,2021.1.2,Win32,85.00510031,,,,,,,,,,,,,,w,0,1.213,2.065737033,1,1,11,2,46,0,1,,,,,,,,,,,,,,
,,,,,,,,,,,left.png,,w,right,5d2fbee1fb16450018a7a023,2021-10-27_12h07.12.217,arrow_simon_punish,2021.1.2,Win32,85.00510031,,,,,,,,,,,,,,w,1,1.111,1.969023155,1,1,11,3,47,3,1,,,,,,,,,,,,,,
,,,,,,,,,,,right.png,,p,left,5d2fbee1fb16450018a7a023,2021-10-27_12h07.12.217,arrow_simon_punish,2021.1.2,Win32,85.00510031,,,,,,,,,,,,,,p,1,2.024,1.896618705,1,1,12,0,48,0,1,,,,,,,,,,,,,,
,,,,,,,,,,,left.png,,w,right,5d2fbee1fb16450018a7a023,2021-10-27_12h07.12.217,arrow_simon_punish,2021.1.2,Win32,85.00510031,,,,,,,,,,,,,,w,1,5.509,2.202765837,1,1,12,1,49,3,1,,,,,,,,,,,,,,
,,,,,,,,,,,right.png,,p,left,5d2fbee1fb16450018a7a023,2021-10-27_12h07.12.217,arrow_simon_punish,2021.1.2,Win32,85.00510031,,,,,,,,,,,,,,p,1,1.531,1.927875303,0,1,12,2,50,0,1,,,,,,,,,,,,,,
,,,,,,,,,,,right.png,,p,right,5d2fbee1fb16450018a7a023,2021-10-27_12h07.12.217,arrow_simon_punish,2021.1.2,Win32,85.00510031,,,,,,,,,,,,,,w,0,1.697,1.912945724,1,1,12,3,51,1,1,,,,,,,,,,,,,,
,,,,,,,,,,,right.png,,p,left,5d2fbee1fb16450018a7a023,2021-10-27_12h07.12.217,arrow_simon_punish,2021.1.2,Win32,85.00510031,,,,,,,,,,,,,,w,0,1.098,1.785291076,1,1,13,0,52,0,1,,,,,,,,,,,,,,
,,,,,,,,,,,left.png,,w,left,5d2fbee1fb16450018a7a023,2021-10-27_12h07.12.217,arrow_simon_punish,2021.1.2,Win32,85.00510031,,,,,,,,,,,,,,w,1,1.472,1.945276441,0,1,13,1,53,2,1,,,,,,,,,,,,,,
,,,,,,,,,,,left.png,,w,right,5d2fbee1fb16450018a7a023,2021-10-27_12h07.12.217,arrow_simon_punish,2021.1.2,Win32,85.00510031,,,,,,,,,,,,,,p,0,1.545,1.980134486,1,1,13,2,54,3,1,,,,,,,,,,,,,,
,,,,,,,,,,,right.png,,p,left,5d2fbee1fb16450018a7a023,2021-10-27_12h07.12.217,arrow_simon_punish,2021.1.2,Win32,85.00510031,,,,,,,,,,,,,,p,1,1.683,1.56835508,1,1,13,3,55,0,1,,,,,,,,,,,,,,
,,,,,,,,,,,right.png,,p,left,5d2fbee1fb16450018a7a023,2021-10-27_12h07.12.217,arrow_simon_punish,2021.1.2,Win32,85.00510031,,,,,,,,,,,,,,w,0,1.389,1.76876072,1,1,14,0,56,0,1,,,,,,,,,,,,,,
,,,,,,,,,,,left.png,,w,right,5d2fbee1fb16450018a7a023,2021-10-27_12h07.12.217,arrow_simon_punish,2021.1.2,Win32,85.00510031,,,,,,,,,,,,,,p,0,1.459,1.7748866,1,1,14,1,57,3,1,,,,,,,,,,,,,,
,,,,,,,,,,,right.png,,p,left,5d2fbee1fb16450018a7a023,2021-10-27_12h07.12.217,arrow_simon_punish,2021.1.2,Win32,85.00510031,,,,,,,,,,,,,,w,0,1.836,2.050856436,1,1,14,2,58,0,1,,,,,,,,,,,,,,
,,,,,,,,,,,left.png,,w,left,5d2fbee1fb16450018a7a023,2021-10-27_12h07.12.217,arrow_simon_punish,2021.1.2,Win32,85.00510031,,,,,,,,,,,,,,p,0,3.683,2.453131146,1,1,14,3,59,2,1,,,,,,,,,,,,,,
,,,,,,,,,,,,,,,5d2fbee1fb16450018a7a023,2021-10-27_12h07.12.217,arrow_simon_punish,2021.1.2,Win32,85.00510031,,,,,,,,,,,,,,,,,,,,,,,,,space,13.539,2,0,0,0,0,1,1,,,,,
,,,,,,,,,,,left.png,,w,right,5d2fbee1fb16450018a7a023,2021-10-27_12h07.12.217,arrow_simon_punish,2021.1.2,Win32,85.00510031,,,,,,,,,,,,,,p,0,1.719,1.990187253,1,5,0,0,0,3,1,,,,,,,,,,,,,,
,,,,,,,,,,,right.png,,p,right,5d2fbee1fb16450018a7a023,2021-10-27_12h07.12.217,arrow_simon_punish,2021.1.2,Win32,85.00510031,,,,,,,,,,,,,,w,0,0.811,2.004435904,1,5,0,1,1,1,1,,,,,,,,,,,,,,
,,,,,,,,,,,right.png,,p,right,5d2fbee1fb16450018a7a023,2021-10-27_12h07.12.217,arrow_simon_punish,2021.1.2,Win32,85.00510031,,,,,,,,,,,,,,p,1,0.177,2.138410051,1,5,0,2,2,1,1,,,,,,,,,,,,,,
,,,,,,,,,,,right.png,,p,left,5d2fbee1fb16450018a7a023,2021-10-27_12h07.12.217,arrow_simon_punish,2021.1.2,Win32,85.00510031,,,,,,,,,,,,,,w,0,0.189,2.078355513,1,5,0,3,3,0,1,,,,,,,,,,,,,,
,,,,,,,,,,,left.png,,w,right,5d2fbee1fb16450018a7a023,2021-10-27_12h07.12.217,arrow_simon_punish,2021.1.2,Win32,85.00510031,,,,,,,,,,,,,,p,0,0.072,1.662994532,1,5,1,0,4,3,1,,,,,,,,,,,,,,
,,,,,,,,,,,left.png,,w,right,5d2fbee1fb16450018a7a023,2021-10-27_12h07.12.217,arrow_simon_punish,2021.1.2,Win32,85.00510031,,,,,,,,,,,,,,p,0,0.941,1.557972018,1,5,1,1,5,3,1,,,,,,,,,,,,,,
,,,,,,,,,,,left.png,,w,right,5d2fbee1fb16450018a7a023,2021-10-27_12h07.12.217,arrow_simon_punish,2021.1.2,Win32,85.00510031,,,,,,,,,,,,,,w,1,1.177,2.125894058,1,5,1,2,6,3,1,,,,,,,,,,,,,,
,,,,,,,,,,,right.png,,p,left,5d2fbee1fb16450018a7a023,2021-10-27_12h07.12.217,arrow_simon_punish,2021.1.2,Win32,85.00510031,,,,,,,,,,,,,,p,1,0.918,2.215213073,1,5,1,3,7,0,1,,,,,,,,,,,,,,
,,,,,,,,,,,left.png,,w,left,5d2fbee1fb16450018a7a023,2021-10-27_12h07.12.217,arrow_simon_punish,2021.1.2,Win32,85.00510031,,,,,,,,,,,,,,w,1,0.966,1.991563953,1,5,2,0,8,2,1,,,,,,,,,,,,,,
,,,,,,,,,,,right.png,,p,right,5d2fbee1fb16450018a7a023,2021-10-27_12h07.12.217,arrow_simon_punish,2021.1.2,Win32,85.00510031,,,,,,,,,,,,,,p,1,1.576,2.297441545,0,5,2,1,9,1,1,,,,,,,,,,,,,,
,,,,,,,,,,,right.png,,p,left,5d2fbee1fb16450018a7a023,2021-10-27_12h07.12.217,arrow_simon_punish,2021.1.2,Win32,85.00510031,,,,,,,,,,,,,,p,1,1.073,1.702522571,1,5,2,2,10,0,1,,,,,,,,,,,,,,
,,,,,,,,,,,left.png,,w,left,5d2fbee1fb16450018a7a023,2021-10-27_12h07.12.217,arrow_simon_punish,2021.1.2,Win32,85.00510031,,,,,,,,,,,,,,w,1,1.518,2.374297521,0,5,2,3,11,2,1,,,,,,,,,,,,,,
,,,,,,,,,,,left.png,,w,right,5d2fbee1fb16450018a7a023,2021-10-27_12h07.12.217,arrow_simon_punish,2021.1.2,Win32,85.00510031,,,,,,,,,,,,,,p,0,0.896,1.545167418,1,5,3,0,12,3,1,,,,,,,,,,,,,,
,,,,,,,,,,,left.png,,w,right,5d2fbee1fb16450018a7a023,2021-10-27_12h07.12.217,arrow_simon_punish,2021.1.2,Win32,85.00510031,,,,,,,,,,,,,,w,1,0.858,1.593974102,1,5,3,1,13,3,1,,,,,,,,,,,,,,
,,,,,,,,,,,left.png,,w,right,5d2fbee1fb16450018a7a023,2021-10-27_12h07.12.217,arrow_simon_punish,2021.1.2,Win32,85.00510031,,,,,,,,,,,,,,w,1,1.576,2.270791692,0,5,3,2,14,3,1,,,,,,,,,,,,,,
,,,,,,,,,,,right.png,,p,right,5d2fbee1fb16450018a7a023,2021-10-27_12h07.12.217,arrow_simon_punish,2021.1.2,Win32,85.00510031,,,,,,,,,,,,,,w,0,1.26,1.830076971,1,5,3,3,15,1,1,,,,,,,,,,,,,,
,,,,,,,,,,,right.png,,p,right,5d2fbee1fb16450018a7a023,2021-10-27_12h07.12.217,arrow_simon_punish,2021.1.2,Win32,85.00510031,,,,,,,,,,,,,,w,0,1.424,1.558881456,1,5,4,0,16,1,1,,,,,,,,,,,,,,
,,,,,,,,,,,right.png,,p,right,5d2fbee1fb16450018a7a023,2021-10-27_12h07.12.217,arrow_simon_punish,2021.1.2,Win32,85.00510031,,,,,,,,,,,,,,w,0,0.225,1.952110301,1,5,4,1,17,1,1,,,,,,,,,,,,,,
,,,,,,,,,,,right.png,,p,left,5d2fbee1fb16450018a7a023,2021-10-27_12h07.12.217,arrow_simon_punish,2021.1.2,Win32,85.00510031,,,,,,,,,,,,,,p,1,1.166,1.669777263,1,5,4,2,18,0,1,,,,,,,,,,,,,,
,,,,,,,,,,,right.png,,p,left,5d2fbee1fb16450018a7a023,2021-10-27_12h07.12.217,arrow_simon_punish,2021.1.2,Win32,85.00510031,,,,,,,,,,,,,,w,0,1.318,1.896374921,1,5,4,3,19,0,1,,,,,,,,,,,,,,
,,,,,,,,,,,left.png,,w,left,5d2fbee1fb16450018a7a023,2021-10-27_12h07.12.217,arrow_simon_punish,2021.1.2,Win32,85.00510031,,,,,,,,,,,,,,w,1,1.116,1.823841029,1,5,5,0,20,2,1,,,,,,,,,,,,,,
,,,,,,,,,,,left.png,,w,right,5d2fbee1fb16450018a7a023,2021-10-27_12h07.12.217,arrow_simon_punish,2021.1.2,Win32,85.00510031,,,,,,,,,,,,,,p,0,1.043,1.677362608,1,5,5,1,21,3,1,,,,,,,,,,,,,,
,,,,,,,,,,,right.png,,p,left,5d2fbee1fb16450018a7a023,2021-10-27_12h07.12.217,arrow_simon_punish,2021.1.2,Win32,85.00510031,,,,,,,,,,,,,,p,1,0.954,1.721809383,1,5,5,2,22,0,1,,,,,,,,,,,,,,
,,,,,,,,,,,right.png,,p,right,5d2fbee1fb16450018a7a023,2021-10-27_12h07.12.217,arrow_simon_punish,2021.1.2,Win32,85.00510031,,,,,,,,,,,,,,w,0,1.219,1.821512475,1,5,5,3,23,1,1,,,,,,,,,,,,,,
,,,,,,,,,,,right.png,,p,right,5d2fbee1fb16450018a7a023,2021-10-27_12h07.12.217,arrow_simon_punish,2021.1.2,Win32,85.00510031,,,,,,,,,,,,,,p,1,0.743,2.030333759,1,5,6,0,24,1,1,,,,,,,,,,,,,,
,,,,,,,,,,,right.png,,p,left,5d2fbee1fb16450018a7a023,2021-10-27_12h07.12.217,arrow_simon_punish,2021.1.2,Win32,85.00510031,,,,,,,,,,,,,,w,0,1.097,1.981613784,1,5,6,1,25,0,1,,,,,,,,,,,,,,
,,,,,,,,,,,right.png,,p,left,5d2fbee1fb16450018a7a023,2021-10-27_12h07.12.217,arrow_simon_punish,2021.1.2,Win32,85.00510031,,,,,,,,,,,,,,w,0,0.341,2.295386692,1,5,6,2,26,0,1,,,,,,,,,,,,,,
,,,,,,,,,,,left.png,,w,right,5d2fbee1fb16450018a7a023,2021-10-27_12h07.12.217,arrow_simon_punish,2021.1.2,Win32,85.00510031,,,,,,,,,,,,,,w,1,0.801,1.52779076,1,5,6,3,27,3,1,,,,,,,,,,,,,,
,,,,,,,,,,,right.png,,p,left,5d2fbee1fb16450018a7a023,2021-10-27_12h07.12.217,arrow_simon_punish,2021.1.2,Win32,85.00510031,,,,,,,,,,,,,,p,1,0.436,2.186357791,1,5,7,0,28,0,1,,,,,,,,,,,,,,
,,,,,,,,,,,left.png,,w,right,5d2fbee1fb16450018a7a023,2021-10-27_12h07.12.217,arrow_simon_punish,2021.1.2,Win32,85.00510031,,,,,,,,,,,,,,p,0,0.078,2.496151156,1,5,7,1,29,3,1,,,,,,,,,,,,,,
,,,,,,,,,,,right.png,,p,right,5d2fbee1fb16450018a7a023,2021-10-27_12h07.12.217,arrow_simon_punish,2021.1.2,Win32,85.00510031,,,,,,,,,,,,,,p,1,0.039,2.098976109,1,5,7,2,30,1,1,,,,,,,,,,,,,,
,,,,,,,,,,,left.png,,w,left,5d2fbee1fb16450018a7a023,2021-10-27_12h07.12.217,arrow_simon_punish,2021.1.2,Win32,85.00510031,,,,,,,,,,,,,,w,1,1.012,1.52030527,1,5,7,3,31,2,1,,,,,,,,,,,,,,
,,,,,,,,,,,left.png,,w,left,5d2fbee1fb16450018a7a023,2021-10-27_12h07.12.217,arrow_simon_punish,2021.1.2,Win32,85.00510031,,,,,,,,,,,,,,w,1,1.134,1.76016636,1,5,8,0,32,2,1,,,,,,,,,,,,,,
,,,,,,,,,,,right.png,,p,left,5d2fbee1fb16450018a7a023,2021-10-27_12h07.12.217,arrow_simon_punish,2021.1.2,Win32,85.00510031,,,,,,,,,,,,,,w,0,0.818,2.392146248,1,5,8,1,33,0,1,,,,,,,,,,,,,,
,,,,,,,,,,,left.png,,w,left,5d2fbee1fb16450018a7a023,2021-10-27_12h07.12.217,arrow_simon_punish,2021.1.2,Win32,85.00510031,,,,,,,,,,,,,,w,1,1.402,1.545742771,0,5,8,2,34,2,1,,,,,,,,,,,,,,
,,,,,,,,,,,left.png,,w,left,5d2fbee1fb16450018a7a023,2021-10-27_12h07.12.217,arrow_simon_punish,2021.1.2,Win32,85.00510031,,,,,,,,,,,,,,w,1,0.978,1.557557308,1,5,8,3,35,2,1,,,,,,,,,,,,,,
,,,,,,,,,,,left.png,,w,left,5d2fbee1fb16450018a7a023,2021-10-27_12h07.12.217,arrow_simon_punish,2021.1.2,Win32,85.00510031,,,,,,,,,,,,,,w,1,0.978,1.976439792,1,5,9,0,36,2,1,,,,,,,,,,,,,,
,,,,,,,,,,,right.png,,p,right,5d2fbee1fb16450018a7a023,2021-10-27_12h07.12.217,arrow_simon_punish,2021.1.2,Win32,85.00510031,,,,,,,,,,,,,,p,1,1.615,2.299132335,1,5,9,1,37,1,1,,,,,,,,,,,,,,
,,,,,,,,,,,left.png,,w,left,5d2fbee1fb16450018a7a023,2021-10-27_12h07.12.217,arrow_simon_punish,2021.1.2,Win32,85.00510031,,,,,,,,,,,,,,p,0,1.549,2.216709043,1,5,9,2,38,2,1,,,,,,,,,,,,,,
,,,,,,,,,,,left.png,,w,left,5d2fbee1fb16450018a7a023,2021-10-27_12h07.12.217,arrow_simon_punish,2021.1.2,Win32,85.00510031,,,,,,,,,,,,,,w,1,0.935,1.575367404,1,5,9,3,39,2,1,,,,,,,,,,,,,,
,,,,,,,,,,,left.png,,w,left,5d2fbee1fb16450018a7a023,2021-10-27_12h07.12.217,arrow_simon_punish,2021.1.2,Win32,85.00510031,,,,,,,,,,,,,,w,1,1.032,1.955353192,1,5,10,0,40,2,1,,,,,,,,,,,,,,
,,,,,,,,,,,left.png,,w,right,5d2fbee1fb16450018a7a023,2021-10-27_12h07.12.217,arrow_simon_punish,2021.1.2,Win32,85.00510031,,,,,,,,,,,,,,w,1,0.174,2.4103029,1,5,10,1,41,3,1,,,,,,,,,,,,,,
,,,,,,,,,,,right.png,,p,right,5d2fbee1fb16450018a7a023,2021-10-27_12h07.12.217,arrow_simon_punish,2021.1.2,Win32,85.00510031,,,,,,,,,,,,,,w,0,1.004,1.507204407,1,5,10,2,42,1,1,,,,,,,,,,,,,,
,,,,,,,,,,,left.png,,w,left,5d2fbee1fb16450018a7a023,2021-10-27_12h07.12.217,arrow_simon_punish,2021.1.2,Win32,85.00510031,,,,,,,,,,,,,,w,1,0.588,2.221193663,1,5,10,3,43,2,1,,,,,,,,,,,,,,
,,,,,,,,,,,right.png,,p,left,5d2fbee1fb16450018a7a023,2021-10-27_12h07.12.217,arrow_simon_punish,2021.1.2,Win32,85.00510031,,,,,,,,,,,,,,w,0,0.381,1.776834141,1,5,11,0,44,0,1,,,,,,,,,,,,,,
,,,,,,,,,,,left.png,,w,right,5d2fbee1fb16450018a7a023,2021-10-27_12h07.12.217,arrow_simon_punish,2021.1.2,Win32,85.00510031,,,,,,,,,,,,,,p,0,0.077,1.555236241,1,5,11,1,45,3,1,,,,,,,,,,,,,,
,,,,,,,,,,,right.png,,p,right,5d2fbee1fb16450018a7a023,2021-10-27_12h07.12.217,arrow_simon_punish,2021.1.2,Win32,85.00510031,,,,,,,,,,,,,,w,0,0.895,1.559781222,1,5,11,2,46,1,1,,,,,,,,,,,,,,
,,,,,,,,,,,right.png,,p,left,5d2fbee1fb16450018a7a023,2021-10-27_12h07.12.217,arrow_simon_punish,2021.1.2,Win32,85.00510031,,,,,,,,,,,,,,w,0,0.26,2.258783524,1,5,11,3,47,0,1,,,,,,,,,,,,,,
,,,,,,,,,,,right.png,,p,left,5d2fbee1fb16450018a7a023,2021-10-27_12h07.12.217,arrow_simon_punish,2021.1.2,Win32,85.00510031,,,,,,,,,,,,,,p,1,0.225,2.338467774,1,5,12,0,48,0,1,,,,,,,,,,,,,,
,,,,,,,,,,,right.png,,p,right,5d2fbee1fb16450018a7a023,2021-10-27_12h07.12.217,arrow_simon_punish,2021.1.2,Win32,85.00510031,,,,,,,,,,,,,,p,1,1.354,1.994802781,1,5,12,1,49,1,1,,,,,,,,,,,,,,
,,,,,,,,,,,right.png,,p,left,5d2fbee1fb16450018a7a023,2021-10-27_12h07.12.217,arrow_simon_punish,2021.1.2,Win32,85.00510031,,,,,,,,,,,,,,p,1,0.546,2.18721144,1,5,12,2,50,0,1,,,,,,,,,,,,,,
,,,,,,,,,,,right.png,,p,left,5d2fbee1fb16450018a7a023,2021-10-27_12h07.12.217,arrow_simon_punish,2021.1.2,Win32,85.00510031,,,,,,,,,,,,,,w,0,1.764,2.113343416,1,5,12,3,51,0,1,,,,,,,,,,,,,,
,,,,,,,,,,,left.png,,w,left,5d2fbee1fb16450018a7a023,2021-10-27_12h07.12.217,arrow_simon_punish,2021.1.2,Win32,85.00510031,,,,,,,,,,,,,,w,1,1.766,2.18979452,1,5,13,0,52,2,1,,,,,,,,,,,,,,
,,,,,,,,,,,left.png,,w,left,5d2fbee1fb16450018a7a023,2021-10-27_12h07.12.217,arrow_simon_punish,2021.1.2,Win32,85.00510031,,,,,,,,,,,,,,w,1,1.358,1.871239649,1,5,13,1,53,2,1,,,,,,,,,,,,,,
,,,,,,,,,,,left.png,,w,left,5d2fbee1fb16450018a7a023,2021-10-27_12h07.12.217,arrow_simon_punish,2021.1.2,Win32,85.00510031,,,,,,,,,,,,,,w,1,0.733,2.437976279,1,5,13,2,54,2,1,,,,,,,,,,,,,,
,,,,,,,,,,,right.png,,p,right,5d2fbee1fb16450018a7a023,2021-10-27_12h07.12.217,arrow_simon_punish,2021.1.2,Win32,85.00510031,,,,,,,,,,,,,,w,0,0.152,2.157020588,1,5,13,3,55,1,1,,,,,,,,,,,,,,
,,,,,,,,,,,left.png,,w,right,5d2fbee1fb16450018a7a023,2021-10-27_12h07.12.217,arrow_simon_punish,2021.1.2,Win32,85.00510031,,,,,,,,,,,,,,w,1,1.505,2.274166882,0,5,14,0,56,3,1,,,,,,,,,,,,,,
,,,,,,,,,,,left.png,,w,right,5d2fbee1fb16450018a7a023,2021-10-27_12h07.12.217,arrow_simon_punish,2021.1.2,Win32,85.00510031,,,,,,,,,,,,,,p,0,1.449,1.92458855,1,5,14,1,57,3,1,,,,,,,,,,,,,,
,,,,,,,,,,,right.png,,p,right,5d2fbee1fb16450018a7a023,2021-10-27_12h07.12.217,arrow_simon_punish,2021.1.2,Win32,85.00510031,,,,,,,,,,,,,,p,1,1.612,2.338480189,1,5,14,2,58,1,1,,,,,,,,,,,,,,
,,,,,,,,,,,left.png,,w,right,5d2fbee1fb16450018a7a023,2021-10-27_12h07.12.217,arrow_simon_punish,2021.1.2,Win32,85.00510031,,,,,,,,,,,,,,w,1,1.473,2.186312053,0,5,14,3,59,3,1,,,,,,,,,,,,,,
,,,,,,,,,,,,,,,5d2fbee1fb16450018a7a023,2021-10-27_12h07.12.217,arrow_simon_punish,2021.1.2,Win32,85.00510031,,,,,,,,,,,,,,,,,,,,,,,,,space,21.137,3,0,1,1,1,1,5,,,,,
,,,,,,,,,,,left.png,,w,right,5d2fbee1fb16450018a7a023,2021-10-27_12h07.12.217,arrow_simon_punish,2021.1.2,Win32,85.00510031,,,,,,,,,,,,,,p,0,1.377,2.03089874,1,1,0,0,0,3,1,,,,,,,,,,,,,,
,,,,,,,,,,,left.png,,w,right,5d2fbee1fb16450018a7a023,2021-10-27_12h07.12.217,arrow_simon_punish,2021.1.2,Win32,85.00510031,,,,,,,,,,,,,,w,1,1.636,1.959996343,1,1,0,1,1,3,1,,,,,,,,,,,,,,
,,,,,,,,,,,right.png,,p,right,5d2fbee1fb16450018a7a023,2021-10-27_12h07.12.217,arrow_simon_punish,2021.1.2,Win32,85.00510031,,,,,,,,,,,,,,p,1,1.617,2.232668352,1,1,0,2,2,1,1,,,,,,,,,,,,,,
,,,,,,,,,,,right.png,,p,left,5d2fbee1fb16450018a7a023,2021-10-27_12h07.12.217,arrow_simon_punish,2021.1.2,Win32,85.00510031,,,,,,,,,,,,,,w,0,1.071,1.532814037,1,1,0,3,3,0,1,,,,,,,,,,,,,,
,,,,,,,,,,,left.png,,w,left,5d2fbee1fb16450018a7a023,2021-10-27_12h07.12.217,arrow_simon_punish,2021.1.2,Win32,85.00510031,,,,,,,,,,,,,,w,1,0.273,2.433336882,1,1,1,0,4,2,1,,,,,,,,,,,,,,
,,,,,,,,,,,left.png,,w,left,5d2fbee1fb16450018a7a023,2021-10-27_12h07.12.217,arrow_simon_punish,2021.1.2,Win32,85.00510031,,,,,,,,,,,,,,w,1,0.671,1.614819899,1,1,1,1,5,2,1,,,,,,,,,,,,,,
,,,,,,,,,,,left.png,,w,right,5d2fbee1fb16450018a7a023,2021-10-27_12h07.12.217,arrow_simon_punish,2021.1.2,Win32,85.00510031,,,,,,,,,,,,,,w,1,1.236,1.895432114,1,1,1,2,6,3,1,,,,,,,,,,,,,,
,,,,,,,,,,,left.png,,w,right,5d2fbee1fb16450018a7a023,2021-10-27_12h07.12.217,arrow_simon_punish,2021.1.2,Win32,85.00510031,,,,,,,,,,,,,,w,1,0.283,2.208575293,1,1,1,3,7,3,1,,,,,,,,,,,,,,
,,,,,,,,,,,left.png,,w,left,5d2fbee1fb16450018a7a023,2021-10-27_12h07.12.217,arrow_simon_punish,2021.1.2,Win32,85.00510031,,,,,,,,,,,,,,p,0,1.083,1.782645895,1,1,2,0,8,2,1,,,,,,,,,,,,,,
,,,,,,,,,,,right.png,,p,right,5d2fbee1fb16450018a7a023,2021-10-27_12h07.12.217,arrow_simon_punish,2021.1.2,Win32,85.00510031,,,,,,,,,,,,,,p,1,1.2,1.655525662,1,1,2,1,9,1,1,,,,,,,,,,,,,,
,,,,,,,,,,,right.png,,p,right,5d2fbee1fb16450018a7a023,2021-10-27_12h07.12.217,arrow_simon_punish,2021.1.2,Win32,85.00510031,,,,,,,,,,,,,,p,1,1.755,2.230062587,1,1,2,2,10,1,1,,,,,,,,,,,,,,
,,,,,,,,,,,right.png,,p,left,5d2fbee1fb16450018a7a023,2021-10-27_12h07.12.217,arrow_simon_punish,2021.1.2,Win32,85.00510031,,,,,,,,,,,,,,w,0,1.977,1.674005246,1,1,2,3,11,0,1,,,,,,,,,,,,,,
,,,,,,,,,,,right.png,,p,left,5d2fbee1fb16450018a7a023,2021-10-27_12h07.12.217,arrow_simon_punish,2021.1.2,Win32,85.00510031,,,,,,,,,,,,,,w,0,1.706,2.334651741,1,1,3,0,12,0,1,,,,,,,,,,,,,,
,,,,,,,,,,,left.png,,w,right,5d2fbee1fb16450018a7a023,2021-10-27_12h07.12.217,arrow_simon_punish,2021.1.2,Win32,85.00510031,,,,,,,,,,,,,,p,0,1.682,2.072691505,1,1,3,1,13,3,1,,,,,,,,,,,,,,
,,,,,,,,,,,left.png,,w,left,5d2fbee1fb16450018a7a023,2021-10-27_12h07.12.217,arrow_simon_punish,2021.1.2,Win32,85.00510031,,,,,,,,,,,,,,w,1,0.859,1.84337483,1,1,3,2,14,2,1,,,,,,,,,,,,,,
,,,,,,,,,,,right.png,,p,left,5d2fbee1fb16450018a7a023,2021-10-27_12h07.12.217,arrow_simon_punish,2021.1.2,Win32,85.00510031,,,,,,,,,,,,,,p,1,1.248,2.418592528,1,1,3,3,15,0,1,,,,,,,,,,,,,,
,,,,,,,,,,,left.png,,w,left,5d2fbee1fb16450018a7a023,2021-10-27_12h07.12.217,arrow_simon_punish,2021.1.2,Win32,85.00510031,,,,,,,,,,,,,,w,1,0.965,2.012279753,1,1,4,0,16,2,1,,,,,,,,,,,,,,
,,,,,,,,,,,right.png,,p,left,5d2fbee1fb16450018a7a023,2021-10-27_12h07.12.217,arrow_simon_punish,2021.1.2,Win32,85.00510031,,,,,,,,,,,,,,w,0,0.659,2.213306853,1,1,4,1,17,0,1,,,,,,,,,,,,,,
,,,,,,,,,,,left.png,,w,left,5d2fbee1fb16450018a7a023,2021-10-27_12h07.12.217,arrow_simon_punish,2021.1.2,Win32,85.00510031,,,,,,,,,,,,,,p,0,0.318,2.143163469,1,1,4,2,18,2,1,,,,,,,,,,,,,,
,,,,,,,,,,,right.png,,p,left,5d2fbee1fb16450018a7a023,2021-10-27_12h07.12.217,arrow_simon_punish,2021.1.2,Win32,85.00510031,,,,,,,,,,,,,,w,0,1.259,2.344310015,1,1,4,3,19,0,1,,,,,,,,,,,,,,
,,,,,,,,,,,right.png,,p,left,5d2fbee1fb16450018a7a023,2021-10-27_12h07.12.217,arrow_simon_punish,2021.1.2,Win32,85.00510031,,,,,,,,,,,,,,w,0,0.847,1.500098708,1,1,5,0,20,0,1,,,,,,,,,,,,,,
,,,,,,,,,,,left.png,,w,left,5d2fbee1fb16450018a7a023,2021-10-27_12h07.12.217,arrow_simon_punish,2021.1.2,Win32,85.00510031,,,,,,,,,,,,,,w,1,1.377,2.098063004,1,1,5,1,21,2,1,,,,,,,,,,,,,,
,,,,,,,,,,,left.png,,w,left,5d2fbee1fb16450018a7a023,2021-10-27_12h07.12.217,arrow_simon_punish,2021.1.2,Win32,85.00510031,,,,,,,,,,,,,,p,0,1.2,1.561114332,1,1,5,2,22,2,1,,,,,,,,,,,,,,
,,,,,,,,,,,right.png,,p,right,5d2fbee1fb16450018a7a023,2021-10-27_12h07.12.217,arrow_simon_punish,2021.1.2,Win32,85.00510031,,,,,,,,,,,,,,p,1,1.601,2.093887498,1,1,5,3,23,1,1,,,,,,,,,,,,,,
,,,,,,,,,,,left.png,,w,left,5d2fbee1fb16450018a7a023,2021-10-27_12h07.12.217,arrow_simon_punish,2021.1.2,Win32,85.00510031,,,,,,,,,,,,,,w,1,1.402,1.839205903,0,1,6,0,24,2,1,,,,,,,,,,,,,,
,,,,,,,,,,,left.png,,w,left,5d2fbee1fb16450018a7a023,2021-10-27_12h07.12.217,arrow_simon_punish,2021.1.2,Win32,85.00510031,,,,,,,,,,,,,,w,1,1.318,1.968222064,1,1,6,1,25,2,1,,,,,,,,,,,,,,
,,,,,,,,,,,right.png,,p,right,5d2fbee1fb16450018a7a023,2021-10-27_12h07.12.217,arrow_simon_punish,2021.1.2,Win32,85.00510031,,,,,,,,,,,,,,w,0,1.811,1.835461655,1,1,6,2,26,1,1,,,,,,,,,,,,,,
,,,,,,,,,,,right.png,,p,left,5d2fbee1fb16450018a7a023,2021-10-27_12h07.12.217,arrow_simon_punish,2021.1.2,Win32,85.00510031,,,,,,,,,,,,,,w,0,2.647,2.459270968,1,1,6,3,27,0,1,,,,,,,,,,,,,,
,,,,,,,,,,,right.png,,p,right,5d2fbee1fb16450018a7a023,2021-10-27_12h07.12.217,arrow_simon_punish,2021.1.2,Win32,85.00510031,,,,,,,,,,,,,,p,1,1.66,2.144572202,1,1,7,0,28,1,1,,,,,,,,,,,,,,
,,,,,,,,,,,right.png,,p,right,5d2fbee1fb16450018a7a023,2021-10-27_12h07.12.217,arrow_simon_punish,2021.1.2,Win32,85.00510031,,,,,,,,,,,,,,p,1,1.34,1.988993051,1,1,7,1,29,1,1,,,,,,,,,,,,,,
,,,,,,,,,,,left.png,,w,right,5d2fbee1fb16450018a7a023,2021-10-27_12h07.12.217,arrow_simon_punish,2021.1.2,Win32,85.00510031,,,,,,,,,,,,,,p,0,1.988,2.456091492,1,1,7,2,30,3,1,,,,,,,,,,,,,,
,,,,,,,,,,,left.png,,w,left,5d2fbee1fb16450018a7a023,2021-10-27_12h07.12.217,arrow_simon_punish,2021.1.2,Win32,85.00510031,,,,,,,,,,,,,,w,1,1.835,1.956522062,1,1,7,3,31,2,1,,,,,,,,,,,,,,
,,,,,,,,,,,left.png,,w,left,5d2fbee1fb16450018a7a023,2021-10-27_12h07.12.217,arrow_simon_punish,2021.1.2,Win32,85.00510031,,,,,,,,,,,,,,w,1,1.836,1.773862121,1,1,8,0,32,2,1,,,,,,,,,,,,,,
,,,,,,,,,,,left.png,,w,right,5d2fbee1fb16450018a7a023,2021-10-27_12h07.12.217,arrow_simon_punish,2021.1.2,Win32,85.00510031,,,,,,,,,,,,,,w,1,1.507,2.204415562,0,1,8,1,33,3,1,,,,,,,,,,,,,,
,,,,,,,,,,,right.png,,p,left,5d2fbee1fb16450018a7a023,2021-10-27_12h07.12.217,arrow_simon_punish,2021.1.2,Win32,85.00510031,,,,,,,,,,,,,,w,0,1.128,1.827311215,1,1,8,2,34,0,1,,,,,,,,,,,,,,
,,,,,,,,,,,right.png,,p,left,5d2fbee1fb16450018a7a023,2021-10-27_12h07.12.217,arrow_simon_punish,2021.1.2,Win32,85.00510031,,,,,,,,,,,,,,w,0,1.789,1.918962855,1,1,8,3,35,0,1,,,,,,,,,,,,,,
,,,,,,,,,,,right.png,,p,right,5d2fbee1fb16450018a7a023,2021-10-27_12h07.12.217,arrow_simon_punish,2021.1.2,Win32,85.00510031,,,,,,,,,,,,,,p,1,1.605,1.805337812,1,1,9,0,36,1,1,,,,,,,,,,,,,,
,,,,,,,,,,,left.png,,w,right,5d2fbee1fb16450018a7a023,2021-10-27_12h07.12.217,arrow_simon_punish,2021.1.2,Win32,85.00510031,,,,,,,,,,,,,,w,1,1.239,1.844447019,1,1,9,1,37,3,1,,,,,,,,,,,,,,
,,,,,,,,,,,left.png,,w,right,5d2fbee1fb16450018a7a023,2021-10-27_12h07.12.217,arrow_simon_punish,2021.1.2,Win32,85.00510031,,,,,,,,,,,,,,w,1,1.431,2.208722894,0,1,9,2,38,3,1,,,,,,,,,,,,,,
,,,,,,,,,,,right.png,,p,left,5d2fbee1fb16450018a7a023,2021-10-27_12h07.12.217,arrow_simon_punish,2021.1.2,Win32,85.00510031,,,,,,,,,,,,,,w,0,1.871,2.173555715,1,1,9,3,39,0,1,,,,,,,,,,,,,,
,,,,,,,,,,,left.png,,w,left,5d2fbee1fb16450018a7a023,2021-10-27_12h07.12.217,arrow_simon_punish,2021.1.2,Win32,85.00510031,,,,,,,,,,,,,,w,1,2.082,2.358368727,1,1,10,0,40,2,1,,,,,,,,,,,,,,
,,,,,,,,,,,left.png,,w,left,5d2fbee1fb16450018a7a023,2021-10-27_12h07.12.217,arrow_simon_punish,2021.1.2,Win32,85.00510031,,,,,,,,,,,,,,w,1,1.271,1.81400165,1,1,10,1,41,2,1,,,,,,,,,,,,,,
,,,,,,,,,,,right.png,,p,left,5d2fbee1fb16450018a7a023,2021-10-27_12h07.12.217,arrow_simon_punish,2021.1.2,Win32,85.00510031,,,,,,,,,,,,,,p,1,1.047,1.768264768,1,1,10,2,42,0,1,,,,,,,,,,,,,,
,,,,,,,,,,,left.png,,w,right,5d2fbee1fb16450018a7a023,2021-10-27_12h07.12.217,arrow_simon_punish,2021.1.2,Win32,85.00510031,,,,,,,,,,,,,,w,1,2.449,1.858854009,1,1,10,3,43,3,1,,,,,,,,,,,,,,
,,,,,,,,,,,right.png,,p,right,5d2fbee1fb16450018a7a023,2021-10-27_12h07.12.217,arrow_simon_punish,2021.1.2,Win32,85.00510031,,,,,,,,,,,,,,w,0,0.348,1.90310037,1,1,11,0,44,1,1,,,,,,,,,,,,,,
,,,,,,,,,,,right.png,,p,right,5d2fbee1fb16450018a7a023,2021-10-27_12h07.12.217,arrow_simon_punish,2021.1.2,Win32,85.00510031,,,,,,,,,,,,,,w,0,0.39,1.914735855,1,1,11,1,45,1,1,,,,,,,,,,,,,,
,,,,,,,,,,,right.png,,p,left,5d2fbee1fb16450018a7a023,2021-10-27_12h07.12.217,arrow_simon_punish,2021.1.2,Win32,85.00510031,,,,,,,,,,,,,,w,0,1.413,1.792973558,1,1,11,2,46,0,1,,,,,,,,,,,,,,
,,,,,,,,,,,left.png,,w,right,5d2fbee1fb16450018a7a023,2021-10-27_12h07.12.217,arrow_simon_punish,2021.1.2,Win32,85.00510031,,,,,,,,,,,,,,p,0,1.253,1.905896989,1,1,11,3,47,3,1,,,,,,,,,,,,,,
,,,,,,,,,,,left.png,,w,right,5d2fbee1fb16450018a7a023,2021-10-27_12h07.12.217,arrow_simon_punish,2021.1.2,Win32,85.00510031,,,,,,,,,,,,,,p,0,1.706,2.372222188,1,1,12,0,48,3,1,,,,,,,,,,,,,,
,,,,,,,,,,,right.png,,p,left,5d2fbee1fb16450018a7a023,2021-10-27_12h07.12.217,arrow_simon_punish,2021.1.2,Win32,85.00510031,,,,,,,,,,,,,,w,0,1.732,1.702767148,1,1,12,1,49,0,1,,,,,,,,,,,,,,
,,,,,,,,,,,right.png,,p,left,5d2fbee1fb16450018a7a023,2021-10-27_12h07.12.217,arrow_simon_punish,2021.1.2,Win32,85.00510031,,,,,,,,,,,,,,w,0,1.798,2.278779684,1,1,12,2,50,0,1,,,,,,,,,,,,,,
,,,,,,,,,,,left.png,,w,right,5d2fbee1fb16450018a7a023,2021-10-27_12h07.12.217,arrow_simon_punish,2021.1.2,Win32,85.00510031,,,,,,,,,,,,,,w,1,1.148,1.61463196,1,1,12,3,51,3,1,,,,,,,,,,,,,,
,,,,,,,,,,,left.png,,w,right,5d2fbee1fb16450018a7a023,2021-10-27_12h07.12.217,arrow_simon_punish,2021.1.2,Win32,85.00510031,,,,,,,,,,,,,,w,1,0.539,1.755584078,1,1,13,0,52,3,1,,,,,,,,,,,,,,
,,,,,,,,,,,left.png,,w,right,5d2fbee1fb16450018a7a023,2021-10-27_12h07.12.217,arrow_simon_punish,2021.1.2,Win32,85.00510031,,,,,,,,,,,,,,w,1,1.097,1.541582855,1,1,13,1,53,3,1,,,,,,,,,,,,,,
,,,,,,,,,,,left.png,,w,left,5d2fbee1fb16450018a7a023,2021-10-27_12h07.12.217,arrow_simon_punish,2021.1.2,Win32,85.00510031,,,,,,,,,,,,,,p,0,0.188,2.409880854,1,1,13,2,54,2,1,,,,,,,,,,,,,,
,,,,,,,,,,,right.png,,p,right,5d2fbee1fb16450018a7a023,2021-10-27_12h07.12.217,arrow_simon_punish,2021.1.2,Win32,85.00510031,,,,,,,,,,,,,,w,0,0.031,2.494435337,1,1,13,3,55,1,1,,,,,,,,,,,,,,
,,,,,,,,,,,right.png,,p,right,5d2fbee1fb16450018a7a023,2021-10-27_12h07.12.217,arrow_simon_punish,2021.1.2,Win32,85.00510031,,,,,,,,,,,,,,p,1,0.097,1.552372998,1,1,14,0,56,1,1,,,,,,,,,,,,,,
,,,,,,,,,,,right.png,,p,right,5d2fbee1fb16450018a7a023,2021-10-27_12h07.12.217,arrow_simon_punish,2021.1.2,Win32,85.00510031,,,,,,,,,,,,,,w,0,0.203,2.100556538,1,1,14,1,57,1,1,,,,,,,,,,,,,,
,,,,,,,,,,,right.png,,p,right,5d2fbee1fb16450018a7a023,2021-10-27_12h07.12.217,arrow_simon_punish,2021.1.2,Win32,85.00510031,,,,,,,,,,,,,,w,0,0.001,1.707635999,1,1,14,2,58,1,1,,,,,,,,,,,,,,
,,,,,,,,,,,right.png,,p,right,5d2fbee1fb16450018a7a023,2021-10-27_12h07.12.217,arrow_simon_punish,2021.1.2,Win32,85.00510031,,,,,,,,,,,,,,p,1,1.412,1.6976158,0,1,14,3,59,1,1,,,,,,,,,,,,,,
,,,,,,,,,,,,,,,5d2fbee1fb16450018a7a023,2021-10-27_12h07.12.217,arrow_simon_punish,2021.1.2,Win32,85.00510031,,,,,,,,,,,,,,,,,,,,,,,,,space,4.884,4,1,0,2,0,1,1,,,,,
,,,,,,,,,,,right.png,,p,right,5d2fbee1fb16450018a7a023,2021-10-27_12h07.12.217,arrow_simon_punish,2021.1.2,Win32,85.00510031,,,,,,,,,,,,,,w,0,2.024,2.289383904,1,5,0,0,0,1,1,,,,,,,,,,,,,,
,,,,,,,,,,,left.png,,w,right,5d2fbee1fb16450018a7a023,2021-10-27_12h07.12.217,arrow_simon_punish,2021.1.2,Win32,85.00510031,,,,,,,,,,,,,,p,0,1.377,2.090839103,1,5,0,1,1,3,1,,,,,,,,,,,,,,
,,,,,,,,,,,left.png,,w,right,5d2fbee1fb16450018a7a023,2021-10-27_12h07.12.217,arrow_simon_punish,2021.1.2,Win32,85.00510031,,,,,,,,,,,,,,w,1,1.188,1.744390604,1,5,0,2,2,3,1,,,,,,,,,,,,,,
,,,,,,,,,,,left.png,,w,left,5d2fbee1fb16450018a7a023,2021-10-27_12h07.12.217,arrow_simon_punish,2021.1.2,Win32,85.00510031,,,,,,,,,,,,,,p,0,0.053,1.551643167,1,5,0,3,3,2,1,,,,,,,,,,,,,,
,,,,,,,,,,,right.png,,p,right,5d2fbee1fb16450018a7a023,2021-10-27_12h07.12.217,arrow_simon_punish,2021.1.2,Win32,85.00510031,,,,,,,,,,,,,,w,0,0.274,1.593107544,1,5,1,0,4,1,1,,,,,,,,,,,,,,
,,,,,,,,,,,left.png,,w,right,5d2fbee1fb16450018a7a023,2021-10-27_12h07.12.217,arrow_simon_punish,2021.1.2,Win32,85.00510031,,,,,,,,,,,,,,w,1,1.47,2.174574183,0,5,1,1,5,3,1,,,,,,,,,,,,,,
,,,,,,,,,,,left.png,,w,right,5d2fbee1fb16450018a7a023,2021-10-27_12h07.12.217,arrow_simon_punish,2021.1.2,Win32,85.00510031,,,,,,,,,,,,,,w,1,1.105,1.810301833,1,5,1,2,6,3,1,,,,,,,,,,,,,,
,,,,,,,,,,,left.png,,w,right,5d2fbee1fb16450018a7a023,2021-10-27_12h07.12.217,arrow_simon_punish,2021.1.2,Win32,85.00510031,,,,,,,,,,,,,,w,1,1.664,2.39028153,1,5,1,3,7,3,1,,,,,,,,,,,,,,
,,,,,,,,,,,left.png,,w,right,5d2fbee1fb16450018a7a023,2021-10-27_12h07.12.217,arrow_simon_punish,2021.1.2,Win32,85.00510031,,,,,,,,,,,,,,p,0,1.401,2.12684145,1,5,2,0,8,3,1,,,,,,,,,,,,,,
,,,,,,,,,,,right.png,,p,right,5d2fbee1fb16450018a7a023,2021-10-27_12h07.12.217,arrow_simon_punish,2021.1.2,Win32,85.00510031,,,,,,,,,,,,,,p,1,0.953,1.644660771,1,5,2,1,9,1,1,,,,,,,,,,,,,,
,,,,,,,,,,,right.png,,p,right,5d2fbee1fb16450018a7a023,2021-10-27_12h07.12.217,arrow_simon_punish,2021.1.2,Win32,85.00510031,,,,,,,,,,,,,,w,0,0.942,1.553920112,1,5,2,2,10,1,1,,,,,,,,,,,,,,
,,,,,,,,,,,left.png,,w,left,5d2fbee1fb16450018a7a023,2021-10-27_12h07.12.217,arrow_simon_punish,2021.1.2,Win32,85.00510031,,,,,,,,,,,,,,w,1,1.624,2.407633889,1,5,2,3,11,2,1,,,,,,,,,,,,,,
,,,,,,,,,,,right.png,,p,left,5d2fbee1fb16450018a7a023,2021-10-27_12h07.12.217,arrow_simon_punish,2021.1.2,Win32,85.00510031,,,,,,,,,,,,,,w,0,1.541,2.245473449,1,5,3,0,12,0,1,,,,,,,,,,,,,,
,,,,,,,,,,,left.png,,w,right,5d2fbee1fb16450018a7a023,2021-10-27_12h07.12.217,arrow_simon_punish,2021.1.2,Win32,85.00510031,,,,,,,,,,,,,,w,1,1.152,1.743025062,1,5,3,1,13,3,1,,,,,,,,,,,,,,
,,,,,,,,,,,right.png,,p,right,5d2fbee1fb16450018a7a023,2021-10-27_12h07.12.217,arrow_simon_punish,2021.1.2,Win32,85.00510031,,,,,,,,,,,,,,w,0,1.201,1.900185637,1,5,3,2,14,1,1,,,,,,,,,,,,,,
,,,,,,,,,,,right.png,,p,left,5d2fbee1fb16450018a7a023,2021-10-27_12h07.12.217,arrow_simon_punish,2021.1.2,Win32,85.00510031,,,,,,,,,,,,,,w,0,1.106,1.763353388,1,5,3,3,15,0,1,,,,,,,,,,,,,,
,,,,,,,,,,,left.png,,w,left,5d2fbee1fb16450018a7a023,2021-10-27_12h07.12.217,arrow_simon_punish,2021.1.2,Win32,85.00510031,,,,,,,,,,,,,,w,1,0.794,2.171446754,1,5,4,0,16,2,1,,,,,,,,,,,,,,
,,,,,,,,,,,right.png,,p,left,5d2fbee1fb16450018a7a023,2021-10-27_12h07.12.217,arrow_simon_punish,2021.1.2,Win32,85.00510031,,,,,,,,,,,,,,p,1,1.028,1.74577501,1,5,4,1,17,0,1,,,,,,,,,,,,,,
,,,,,,,,,,,left.png,,w,right,5d2fbee1fb16450018a7a023,2021-10-27_12h07.12.217,arrow_simon_punish,2021.1.2,Win32,85.00510031,,,,,,,,,,,,,,p,0,1.788,1.76825827,1,5,4,2,18,3,1,,,,,,,,,,,,,,
,,,,,,,,,,,right.png,,p,right,5d2fbee1fb16450018a7a023,2021-10-27_12h07.12.217,arrow_simon_punish,2021.1.2,Win32,85.00510031,,,,,,,,,,,,,,p,1,0.944,1.649932374,1,5,4,3,19,1,1,,,,,,,,,,,,,,
,,,,,,,,,,,right.png,,p,right,5d2fbee1fb16450018a7a023,2021-10-27_12h07.12.217,arrow_simon_punish,2021.1.2,Win32,85.00510031,,,,,,,,,,,,,,w,0,1.626,2.322578321,1,5,5,0,20,1,1,,,,,,,,,,,,,,
,,,,,,,,,,,right.png,,p,left,5d2fbee1fb16450018a7a023,2021-10-27_12h07.12.217,arrow_simon_punish,2021.1.2,Win32,85.00510031,,,,,,,,,,,,,,w,0,1.8,2.283743326,1,5,5,1,21,0,1,,,,,,,,,,,,,,
,,,,,,,,,,,right.png,,p,left,5d2fbee1fb16450018a7a023,2021-10-27_12h07.12.217,arrow_simon_punish,2021.1.2,Win32,85.00510031,,,,,,,,,,,,,,p,1,1.613,2.395027557,1,5,5,2,22,0,1,,,,,,,,,,,,,,
,,,,,,,,,,,left.png,,w,left,5d2fbee1fb16450018a7a023,2021-10-27_12h07.12.217,arrow_simon_punish,2021.1.2,Win32,85.00510031,,,,,,,,,,,,,,w,1,1.741,2.323979655,1,5,5,3,23,2,1,,,,,,,,,,,,,,
,,,,,,,,,,,left.png,,w,right,5d2fbee1fb16450018a7a023,2021-10-27_12h07.12.217,arrow_simon_punish,2021.1.2,Win32,85.00510031,,,,,,,,,,,,,,p,0,1.603,1.877767129,1,5,6,0,24,3,1,,,,,,,,,,,,,,
,,,,,,,,,,,right.png,,p,right,5d2fbee1fb16450018a7a023,2021-10-27_12h07.12.217,arrow_simon_punish,2021.1.2,Win32,85.00510031,,,,,,,,,,,,,,w,0,1.671,1.847262315,1,5,6,1,25,1,1,,,,,,,,,,,,,,
,,,,,,,,,,,right.png,,p,right,5d2fbee1fb16450018a7a023,2021-10-27_12h07.12.217,arrow_simon_punish,2021.1.2,Win32,85.00510031,,,,,,,,,,,,,,p,1,1.459,1.947710888,0,5,6,2,26,1,1,,,,,,,,,,,,,,
,,,,,,,,,,,left.png,,w,left,5d2fbee1fb16450018a7a023,2021-10-27_12h07.12.217,arrow_simon_punish,2021.1.2,Win32,85.00510031,,,,,,,,,,,,,,w,1,1.648,1.547569896,1,5,6,3,27,2,1,,,,,,,,,,,,,,
,,,,,,,,,,,right.png,,p,left,5d2fbee1fb16450018a7a023,2021-10-27_12h07.12.217,arrow_simon_punish,2021.1.2,Win32,85.00510031,,,,,,,,,,,,,,w,0,1.672,1.895132253,1,5,7,0,28,0,1,,,,,,,,,,,,,,
,,,,,,,,,,,left.png,,w,right,5d2fbee1fb16450018a7a023,2021-10-27_12h07.12.217,arrow_simon_punish,2021.1.2,Win32,85.00510031,,,,,,,,,,,,,,w,1,2.588,2.371179754,1,5,7,1,29,3,1,,,,,,,,,,,,,,
,,,,,,,,,,,right.png,,p,right,5d2fbee1fb16450018a7a023,2021-10-27_12h07.12.217,arrow_simon_punish,2021.1.2,Win32,85.00510031,,,,,,,,,,,,,,p,1,2.132,2.369461797,1,5,7,2,30,1,1,,,,,,,,,,,,,,
,,,,,,,,,,,right.png,,p,right,5d2fbee1fb16450018a7a023,2021-10-27_12h07.12.217,arrow_simon_punish,2021.1.2,Win32,85.00510031,,,,,,,,,,,,,,p,1,1.459,1.805512277,0,5,7,3,31,1,1,,,,,,,,,,,,,,
,,,,,,,,,,,right.png,,p,left,5d2fbee1fb16450018a7a023,2021-10-27_12h07.12.217,arrow_simon_punish,2021.1.2,Win32,85.00510031,,,,,,,,,,,,,,w,0,2,2.363164241,1,5,8,0,32,0,1,,,,,,,,,,,,,,
,,,,,,,,,,,left.png,,w,right,5d2fbee1fb16450018a7a023,2021-10-27_12h07.12.217,arrow_simon_punish,2021.1.2,Win32,85.00510031,,,,,,,,,,,,,,w,1,2.164,1.993350363,1,5,8,1,33,3,1,,,,,,,,,,,,,,
,,,,,,,,,,,left.png,,w,right,5d2fbee1fb16450018a7a023,2021-10-27_12h07.12.217,arrow_simon_punish,2021.1.2,Win32,85.00510031,,,,,,,,,,,,,,w,1,2.672,2.465851438,1,5,8,2,34,3,1,,,,,,,,,,,,,,
,,,,,,,,,,,right.png,,p,left,5d2fbee1fb16450018a7a023,2021-10-27_12h07.12.217,arrow_simon_punish,2021.1.2,Win32,85.00510031,,,,,,,,,,,,,,p,1,2.093,2.16806068,1,5,8,3,35,0,1,,,,,,,,,,,,,,
,,,,,,,,,,,left.png,,w,left,5d2fbee1fb16450018a7a023,2021-10-27_12h07.12.217,arrow_simon_punish,2021.1.2,Win32,85.00510031,,,,,,,,,,,,,,w,1,2.447,2.346997525,1,5,9,0,36,2,1,,,,,,,,,,,,,,
,,,,,,,,,,,right.png,,p,right,5d2fbee1fb16450018a7a023,2021-10-27_12h07.12.217,arrow_simon_punish,2021.1.2,Win32,85.00510031,,,,,,,,,,,,,,w,0,1.225,1.75720776,1,5,9,1,37,1,1,,,,,,,,,,,,,,
,,,,,,,,,,,right.png,,p,right,5d2fbee1fb16450018a7a023,2021-10-27_12h07.12.217,arrow_simon_punish,2021.1.2,Win32,85.00510031,,,,,,,,,,,,,,p,1,1.094,1.78360775,1,5,9,2,38,1,1,,,,,,,,,,,,,,
,,,,,,,,,,,left.png,,w,left,5d2fbee1fb16450018a7a023,2021-10-27_12h07.12.217,arrow_simon_punish,2021.1.2,Win32,85.00510031,,,,,,,,,,,,,,w,1,1.941,2.497342382,1,5,9,3,39,2,1,,,,,,,,,,,,,,
,,,,,,,,,,,left.png,,w,left,5d2fbee1fb16450018a7a023,2021-10-27_12h07.12.217,arrow_simon_punish,2021.1.2,Win32,85.00510031,,,,,,,,,,,,,,w,1,1.435,2.018256718,0,5,10,0,40,2,1,,,,,,,,,,,,,,
,,,,,,,,,,,right.png,,p,left,5d2fbee1fb16450018a7a023,2021-10-27_12h07.12.217,arrow_simon_punish,2021.1.2,Win32,85.00510031,,,,,,,,,,,,,,w,0,1.176,1.684432099,1,5,10,1,41,0,1,,,,,,,,,,,,,,
,,,,,,,,,,,left.png,,w,left,5d2fbee1fb16450018a7a023,2021-10-27_12h07.12.217,arrow_simon_punish,2021.1.2,Win32,85.00510031,,,,,,,,,,,,,,p,0,1.823,1.613509454,1,5,10,2,42,2,1,,,,,,,,,,,,,,
,,,,,,,,,,,right.png,,p,left,5d2fbee1fb16450018a7a023,2021-10-27_12h07.12.217,arrow_simon_punish,2021.1.2,Win32,85.00510031,,,,,,,,,,,,,,p,1,1.836,2.144296924,1,5,10,3,43,0,1,,,,,,,,,,,,,,
,,,,,,,,,,,right.png,,p,right,5d2fbee1fb16450018a7a023,2021-10-27_12h07.12.217,arrow_simon_punish,2021.1.2,Win32,85.00510031,,,,,,,,,,,,,,w,0,3.2,2.367138276,1,5,11,0,44,1,1,,,,,,,,,,,,,,
,,,,,,,,,,,left.png,,w,right,5d2fbee1fb16450018a7a023,2021-10-27_12h07.12.217,arrow_simon_punish,2021.1.2,Win32,85.00510031,,,,,,,,,,,,,,w,1,2.165,2.474767398,1,5,11,1,45,3,1,,,,,,,,,,,,,,
,,,,,,,,,,,left.png,,w,left,5d2fbee1fb16450018a7a023,2021-10-27_12h07.12.217,arrow_simon_punish,2021.1.2,Win32,85.00510031,,,,,,,,,,,,,,w,1,1.482,2.166369852,0,5,11,2,46,2,1,,,,,,,,,,,,,,
,,,,,,,,,,,right.png,,p,right,5d2fbee1fb16450018a7a023,2021-10-27_12h07.12.217,arrow_simon_punish,2021.1.2,Win32,85.00510031,,,,,,,,,,,,,,w,0,0.131,1.969894587,1,5,11,3,47,1,1,,,,,,,,,,,,,,
,,,,,,,,,,,right.png,,p,left,5d2fbee1fb16450018a7a023,2021-10-27_12h07.12.217,arrow_simon_punish,2021.1.2,Win32,85.00510031,,,,,,,,,,,,,,p,1,0.648,2.343366783,1,5,12,0,48,0,1,,,,,,,,,,,,,,
,,,,,,,,,,,right.png,,p,left,5d2fbee1fb16450018a7a023,2021-10-27_12h07.12.217,arrow_simon_punish,2021.1.2,Win32,85.00510031,,,,,,,,,,,,,,p,1,1.592,2.276284848,0,5,12,1,49,0,1,,,,,,,,,,,,,,
,,,,,,,,,,,right.png,,p,left,5d2fbee1fb16450018a7a023,2021-10-27_12h07.12.217,arrow_simon_punish,2021.1.2,Win32,85.00510031,,,,,,,,,,,,,,w,0,1.02,1.522041435,1,5,12,2,50,0,1,,,,,,,,,,,,,,
,,,,,,,,,,,right.png,,p,left,5d2fbee1fb16450018a7a023,2021-10-27_12h07.12.217,arrow_simon_punish,2021.1.2,Win32,85.00510031,,,,,,,,,,,,,,p,1,1.829,2.286038394,1,5,12,3,51,0,1,,,,,,,,,,,,,,
,,,,,,,,,,,left.png,,w,left,5d2fbee1fb16450018a7a023,2021-10-27_12h07.12.217,arrow_simon_punish,2021.1.2,Win32,85.00510031,,,,,,,,,,,,,,p,0,1.66,2.314934098,1,5,13,0,52,2,1,,,,,,,,,,,,,,
,,,,,,,,,,,left.png,,w,right,5d2fbee1fb16450018a7a023,2021-10-27_12h07.12.217,arrow_simon_punish,2021.1.2,Win32,85.00510031,,,,,,,,,,,,,,p,0,0.98,1.520856238,1,5,13,1,53,3,1,,,,,,,,,,,,,,
,,,,,,,,,,,left.png,,w,right,5d2fbee1fb16450018a7a023,2021-10-27_12h07.12.217,arrow_simon_punish,2021.1.2,Win32,85.00510031,,,,,,,,,,,,,,w,1,1.321,1.906270267,1,5,13,2,54,3,1,,,,,,,,,,,,,,
,,,,,,,,,,,left.png,,w,left,5d2fbee1fb16450018a7a023,2021-10-27_12h07.12.217,arrow_simon_punish,2021.1.2,Win32,85.00510031,,,,,,,,,,,,,,w,1,1.612,2.145968257,1,5,13,3,55,2,1,,,,,,,,,,,,,,
,,,,,,,,,,,right.png,,p,left,5d2fbee1fb16450018a7a023,2021-10-27_12h07.12.217,arrow_simon_punish,2021.1.2,Win32,85.00510031,,,,,,,,,,,,,,w,0,1.311,2.391809531,1,5,14,0,56,0,1,,,,,,,,,,,,,,
,,,,,,,,,,,left.png,,w,left,5d2fbee1fb16450018a7a023,2021-10-27_12h07.12.217,arrow_simon_punish,2021.1.2,Win32,85.00510031,,,,,,,,,,,,,,w,1,1.536,1.931463075,0,5,14,1,57,2,1,,,,,,,,,,,,,,
,,,,,,,,,,,left.png,,w,left,5d2fbee1fb16450018a7a023,2021-10-27_12h07.12.217,arrow_simon_punish,2021.1.2,Win32,85.00510031,,,,,,,,,,,,,,w,1,1.339,1.921334784,1,5,14,2,58,2,1,,,,,,,,,,,,,,
,,,,,,,,,,,left.png,,w,left,5d2fbee1fb16450018a7a023,2021-10-27_12h07.12.217,arrow_simon_punish,2021.1.2,Win32,85.00510031,,,,,,,,,,,,,,p,0,0.946,1.661470474,1,5,14,3,59,2,1,,,,,,,,,,,,,,
,,,,,,,,,,,,,,,5d2fbee1fb16450018a7a023,2021-10-27_12h07.12.217,arrow_simon_punish,2021.1.2,Win32,85.00510031,,,,,,,,,,,,,,,,,,,,,,,,,space,2.089,5,1,1,3,1,1,5,,,,,
,,,,,,,,,,,right.png,,p,left,5d2fbee1fb16450018a7a023,2021-10-27_12h07.12.217,arrow_simon_punish,2021.1.2,Win32,85.00510031,,,,,,,,,,,,,,w,0,1.287,1.675735467,1,1,0,0,0,0,1,,,,,,,,,,,,,,
,,,,,,,,,,,right.png,,p,left,5d2fbee1fb16450018a7a023,2021-10-27_12h07.12.217,arrow_simon_punish,2021.1.2,Win32,85.00510031,,,,,,,,,,,,,,w,0,0.088,1.556907095,1,1,0,1,1,0,1,,,,,,,,,,,,,,
,,,,,,,,,,,left.png,,w,left,5d2fbee1fb16450018a7a023,2021-10-27_12h07.12.217,arrow_simon_punish,2021.1.2,Win32,85.00510031,,,,,,,,,,,,,,p,0,2.908,1.758837641,1,1,0,2,2,2,1,,,,,,,,,,,,,,
,,,,,,,,,,,right.png,,p,left,5d2fbee1fb16450018a7a023,2021-10-27_12h07.12.217,arrow_simon_punish,2021.1.2,Win32,85.00510031,,,,,,,,,,,,,,p,1,1.472,1.639861449,0,1,0,3,3,0,1,,,,,,,,,,,,,,
,,,,,,,,,,,left.png,,w,right,5d2fbee1fb16450018a7a023,2021-10-27_12h07.12.217,arrow_simon_punish,2021.1.2,Win32,85.00510031,,,,,,,,,,,,,,w,1,1.83,1.573099813,1,1,1,0,4,3,1,,,,,,,,,,,,,,
,,,,,,,,,,,left.png,,w,right,5d2fbee1fb16450018a7a023,2021-10-27_12h07.12.217,arrow_simon_punish,2021.1.2,Win32,85.00510031,,,,,,,,,,,,,,w,1,1.752,1.909011652,1,1,1,1,5,3,1,,,,,,,,,,,,,,
,,,,,,,,,,,left.png,,w,left,5d2fbee1fb16450018a7a023,2021-10-27_12h07.12.217,arrow_simon_punish,2021.1.2,Win32,85.00510031,,,,,,,,,,,,,,p,0,2.345,2.389951796,1,1,1,2,6,2,1,,,,,,,,,,,,,,
,,,,,,,,,,,left.png,,w,right,5d2fbee1fb16450018a7a023,2021-10-27_12h07.12.217,arrow_simon_punish,2021.1.2,Win32,85.00510031,,,,,,,,,,,,,,p,0,2.075,2.407920384,1,1,1,3,7,3,1,,,,,,,,,,,,,,
,,,,,,,,,,,right.png,,p,right,5d2fbee1fb16450018a7a023,2021-10-27_12h07.12.217,arrow_simon_punish,2021.1.2,Win32,85.00510031,,,,,,,,,,,,,,p,1,0.072,1.928573168,1,1,2,0,8,1,1,,,,,,,,,,,,,,
,,,,,,,,,,,left.png,,w,right,5d2fbee1fb16450018a7a023,2021-10-27_12h07.12.217,arrow_simon_punish,2021.1.2,Win32,85.00510031,,,,,,,,,,,,,,p,0,0.063,1.608663294,1,1,2,1,9,3,1,,,,,,,,,,,,,,
,,,,,,,,,,,left.png,,w,right,5d2fbee1fb16450018a7a023,2021-10-27_12h07.12.217,arrow_simon_punish,2021.1.2,Win32,85.00510031,,,,,,,,,,,,,,p,0,0.019,2.428554607,1,1,2,2,10,3,1,,,,,,,,,,,,,,
,,,,,,,,,,,left.png,,w,right,5d2fbee1fb16450018a7a023,2021-10-27_12h07.12.217,arrow_simon_punish,2021.1.2,Win32,85.00510031,,,,,,,,,,,,,,p,0,0.047,1.624736672,1,1,2,3,11,3,1,,,,,,,,,,,,,,
,,,,,,,,,,,left.png,,w,right,5d2fbee1fb16450018a7a023,2021-10-27_12h07.12.217,arrow_simon_punish,2021.1.2,Win32,85.00510031,,,,,,,,,,,,,,p,0,1.471,2.221692868,1,1,3,0,12,3,1,,,,,,,,,,,,,,
,,,,,,,,,,,left.png,,w,left,5d2fbee1fb16450018a7a023,2021-10-27_12h07.12.217,arrow_simon_punish,2021.1.2,Win32,85.00510031,,,,,,,,,,,,,,p,0,1.601,2.056040157,1,1,3,1,13,2,1,,,,,,,,,,,,,,
,,,,,,,,,,,left.png,,w,right,5d2fbee1fb16450018a7a023,2021-10-27_12h07.12.217,arrow_simon_punish,2021.1.2,Win32,85.00510031,,,,,,,,,,,,,,p,0,1.13,1.674338936,1,1,3,2,14,3,1,,,,,,,,,,,,,,
,,,,,,,,,,,left.png,,w,left,5d2fbee1fb16450018a7a023,2021-10-27_12h07.12.217,arrow_simon_punish,2021.1.2,Win32,85.00510031,,,,,,,,,,,,,,p,0,1.778,2.11072385,1,1,3,3,15,2,1,,,,,,,,,,,,,,
,,,,,,,,,,,right.png,,p,left,5d2fbee1fb16450018a7a023,2021-10-27_12h07.12.217,arrow_simon_punish,2021.1.2,Win32,85.00510031,,,,,,,,,,,,,,p,1,1.529,2.479032123,0,1,4,0,16,0,1,,,,,,,,,,,,,,
,,,,,,,,,,,right.png,,p,right,5d2fbee1fb16450018a7a023,2021-10-27_12h07.12.217,arrow_simon_punish,2021.1.2,Win32,85.00510031,,,,,,,,,,,,,,w,0,1.381,1.748787063,1,1,4,1,17,1,1,,,,,,,,,,,,,,
,,,,,,,,,,,right.png,,p,left,5d2fbee1fb16450018a7a023,2021-10-27_12h07.12.217,arrow_simon_punish,2021.1.2,Win32,85.00510031,,,,,,,,,,,,,,w,0,1.742,1.991044108,1,1,4,2,18,0,1,,,,,,,,,,,,,,
,,,,,,,,,,,left.png,,w,right,5d2fbee1fb16450018a7a023,2021-10-27_12h07.12.217,arrow_simon_punish,2021.1.2,Win32,85.00510031,,,,,,,,,,,,,,p,0,1.91,2.165145481,1,1,4,3,19,3,1,,,,,,,,,,,,,,
,,,,,,,,,,,right.png,,p,left,5d2fbee1fb16450018a7a023,2021-10-27_12h07.12.217,arrow_simon_punish,2021.1.2,Win32,85.00510031,,,,,,,,,,,,,,w,0,1.883,2.169999488,1,1,5,0,20,0,1,,,,,,,,,,,,,,
,,,,,,,,,,,left.png,,w,left,5d2fbee1fb16450018a7a023,2021-10-27_12h07.12.217,arrow_simon_punish,2021.1.2,Win32,85.00510031,,,,,,,,,,,,,,w,1,1.459,1.969899256,0,1,5,1,21,2,1,,,,,,,,,,,,,,
,,,,,,,,,,,right.png,,p,left,5d2fbee1fb16450018a7a023,2021-10-27_12h07.12.217,arrow_simon_punish,2021.1.2,Win32,85.00510031,,,,,,,,,,,,,,p,1,1.612,2.016733354,1,1,5,2,22,0,1,,,,,,,,,,,,,,
,,,,,,,,,,,right.png,,p,left,5d2fbee1fb16450018a7a023,2021-10-27_12h07.12.217,arrow_simon_punish,2021.1.2,Win32,85.00510031,,,,,,,,,,,,,,p,1,3.425,2.17324218,1,1,5,3,23,0,1,,,,,,,,,,,,,,
,,,,,,,,,,,left.png,,w,left,5d2fbee1fb16450018a7a023,2021-10-27_12h07.12.217,arrow_simon_punish,2021.1.2,Win32,85.00510031,,,,,,,,,,,,,,p,0,3.541,2.377293308,1,1,6,0,24,2,1,,,,,,,,,,,,,,
,,,,,,,,,,,left.png,,w,left,5d2fbee1fb16450018a7a023,2021-10-27_12h07.12.217,arrow_simon_punish,2021.1.2,Win32,85.00510031,,,,,,,,,,,,,,p,0,2.13,1.996514798,1,1,6,1,25,2,1,,,,,,,,,,,,,,
,,,,,,,,,,,right.png,,p,right,5d2fbee1fb16450018a7a023,2021-10-27_12h07.12.217,arrow_simon_punish,2021.1.2,Win32,85.00510031,,,,,,,,,,,,,,w,0,2.992,2.278723685,1,1,6,2,26,1,1,,,,,,,,,,,,,,
,,,,,,,,,,,right.png,,p,right,5d2fbee1fb16450018a7a023,2021-10-27_12h07.12.217,arrow_simon_punish,2021.1.2,Win32,85.00510031,,,,,,,,,,,,,,w,0,2.105,2.376306716,1,1,6,3,27,1,1,,,,,,,,,,,,,,
,,,,,,,,,,,right.png,,p,left,5d2fbee1fb16450018a7a023,2021-10-27_12h07.12.217,arrow_simon_punish,2021.1.2,Win32,85.00510031,,,,,,,,,,,,,,w,0,1.706,2.090469887,1,1,7,0,28,0,1,,,,,,,,,,,,,,
,,,,,,,,,,,right.png,,p,right,5d2fbee1fb16450018a7a023,2021-10-27_12h07.12.217,arrow_simon_punish,2021.1.2,Win32,85.00510031,,,,,,,,,,,,,,w,0,1.836,2.090578421,1,1,7,1,29,1,1,,,,,,,,,,,,,,
,,,,,,,,,,,left.png,,w,left,5d2fbee1fb16450018a7a023,2021-10-27_12h07.12.217,arrow_simon_punish,2021.1.2,Win32,85.00510031,,,,,,,,,,,,,,p,0,1.518,2.174646463,1,1,7,2,30,2,1,,,,,,,,,,,,,,
,,,,,,,,,,,right.png,,p,right,5d2fbee1fb16450018a7a023,2021-10-27_12h07.12.217,arrow_simon_punish,2021.1.2,Win32,85.00510031,,,,,,,,,,,,,,p,1,1.858,1.87084836,1,1,7,3,31,1,1,,,,,,,,,,,,,,
,,,,,,,,,,,left.png,,w,left,5d2fbee1fb16450018a7a023,2021-10-27_12h07.12.217,arrow_simon_punish,2021.1.2,Win32,85.00510031,,,,,,,,,,,,,,w,1,0.988,1.527125791,1,1,8,0,32,2,1,,,,,,,,,,,,,,
,,,,,,,,,,,left.png,,w,right,5d2fbee1fb16450018a7a023,2021-10-27_12h07.12.217,arrow_simon_punish,2021.1.2,Win32,85.00510031,,,,,,,,,,,,,,p,0,1.364,1.783683195,1,1,8,1,33,3,1,,,,,,,,,,,,,,
,,,,,,,,,,,left.png,,w,left,5d2fbee1fb16450018a7a023,2021-10-27_12h07.12.217,arrow_simon_punish,2021.1.2,Win32,85.00510031,,,,,,,,,,,,,,p,0,1.2,1.691697191,1,1,8,2,34,2,1,,,,,,,,,,,,,,
,,,,,,,,,,,right.png,,p,right,5d2fbee1fb16450018a7a023,2021-10-27_12h07.12.217,arrow_simon_punish,2021.1.2,Win32,85.00510031,,,,,,,,,,,,,,w,0,1.639,1.963209457,1,1,8,3,35,1,1,,,,,,,,,,,,,,
,,,,,,,,,,,right.png,,p,left,5d2fbee1fb16450018a7a023,2021-10-27_12h07.12.217,arrow_simon_punish,2021.1.2,Win32,85.00510031,,,,,,,,,,,,,,w,0,1.59,2.25684739,1,1,9,0,36,0,1,,,,,,,,,,,,,,
,,,,,,,,,,,right.png,,p,right,5d2fbee1fb16450018a7a023,2021-10-27_12h07.12.217,arrow_simon_punish,2021.1.2,Win32,85.00510031,,,,,,,,,,,,,,w,0,2.471,1.954400951,1,1,9,1,37,1,1,,,,,,,,,,,,,,
,,,,,,,,,,,left.png,,w,left,5d2fbee1fb16450018a7a023,2021-10-27_12h07.12.217,arrow_simon_punish,2021.1.2,Win32,85.00510031,,,,,,,,,,,,,,p,0,1.33,1.696616605,1,1,9,2,38,2,1,,,,,,,,,,,,,,
,,,,,,,,,,,left.png,,w,right,5d2fbee1fb16450018a7a023,2021-10-27_12h07.12.217,arrow_simon_punish,2021.1.2,Win32,85.00510031,,,,,,,,,,,,,,p,0,2.167,2.15139094,1,1,9,3,39,3,1,,,,,,,,,,,,,,
,,,,,,,,,,,right.png,,p,right,5d2fbee1fb16450018a7a023,2021-10-27_12h07.12.217,arrow_simon_punish,2021.1.2,Win32,85.00510031,,,,,,,,,,,,,,w,0,0.464,1.993534825,1,1,10,0,40,1,1,,,,,,,,,,,,,,
,,,,,,,,,,,right.png,,p,left,5d2fbee1fb16450018a7a023,2021-10-27_12h07.12.217,arrow_simon_punish,2021.1.2,Win32,85.00510031,,,,,,,,,,,,,,p,1,0.131,2.183490813,1,1,10,1,41,0,1,,,,,,,,,,,,,,
,,,,,,,,,,,right.png,,p,left,5d2fbee1fb16450018a7a023,2021-10-27_12h07.12.217,arrow_simon_punish,2021.1.2,Win32,85.00510031,,,,,,,,,,,,,,w,0,1.64,2.312398338,1,1,10,2,42,0,1,,,,,,,,,,,,,,
,,,,,,,,,,,left.png,,w,right,5d2fbee1fb16450018a7a023,2021-10-27_12h07.12.217,arrow_simon_punish,2021.1.2,Win32,85.00510031,,,,,,,,,,,,,,w,1,1.206,1.951471977,1,1,10,3,43,3,1,,,,,,,,,,,,,,
,,,,,,,,,,,right.png,,p,right,5d2fbee1fb16450018a7a023,2021-10-27_12h07.12.217,arrow_simon_punish,2021.1.2,Win32,85.00510031,,,,,,,,,,,,,,p,1,1.694,2.424480815,1,1,11,0,44,1,1,,,,,,,,,,,,,,
,,,,,,,,,,,right.png,,p,right,5d2fbee1fb16450018a7a023,2021-10-27_12h07.12.217,arrow_simon_punish,2021.1.2,Win32,85.00510031,,,,,,,,,,,,,,p,1,1.223,1.934349363,1,1,11,1,45,1,1,,,,,,,,,,,,,,
,,,,,,,,,,,right.png,,p,right,5d2fbee1fb16450018a7a023,2021-10-27_12h07.12.217,arrow_simon_punish,2021.1.2,Win32,85.00510031,,,,,,,,,,,,,,w,0,1.399,2.38392463,1,1,11,2,46,1,1,,,,,,,,,,,,,,
,,,,,,,,,,,right.png,,p,right,5d2fbee1fb16450018a7a023,2021-10-27_12h07.12.217,arrow_simon_punish,2021.1.2,Win32,85.00510031,,,,,,,,,,,,,,p,1,1.537,2.403998009,0,1,11,3,47,1,1,,,,,,,,,,,,,,
,,,,,,,,,,,left.png,,w,right,5d2fbee1fb16450018a7a023,2021-10-27_12h07.12.217,arrow_simon_punish,2021.1.2,Win32,85.00510031,,,,,,,,,,,,,,w,1,1.021,2.449565015,1,1,12,0,48,3,1,,,,,,,,,,,,,,
,,,,,,,,,,,left.png,,w,left,5d2fbee1fb16450018a7a023,2021-10-27_12h07.12.217,arrow_simon_punish,2021.1.2,Win32,85.00510031,,,,,,,,,,,,,,w,1,2.2,1.702370775,1,1,12,1,49,2,1,,,,,,,,,,,,,,
,,,,,,,,,,,left.png,,w,right,5d2fbee1fb16450018a7a023,2021-10-27_12h07.12.217,arrow_simon_punish,2021.1.2,Win32,85.00510031,,,,,,,,,,,,,,p,0,0.86,1.939261646,1,1,12,2,50,3,1,,,,,,,,,,,,,,
,,,,,,,,,,,right.png,,p,left,5d2fbee1fb16450018a7a023,2021-10-27_12h07.12.217,arrow_simon_punish,2021.1.2,Win32,85.00510031,,,,,,,,,,,,,,p,1,0.96,2.290357395,1,1,12,3,51,0,1,,,,,,,,,,,,,,
,,,,,,,,,,,left.png,,w,left,5d2fbee1fb16450018a7a023,2021-10-27_12h07.12.217,arrow_simon_punish,2021.1.2,Win32,85.00510031,,,,,,,,,,,,,,w,1,1.474,2.204079923,0,1,13,0,52,2,1,,,,,,,,,,,,,,
,,,,,,,,,,,right.png,,p,right,5d2fbee1fb16450018a7a023,2021-10-27_12h07.12.217,arrow_simon_punish,2021.1.2,Win32,85.00510031,,,,,,,,,,,,,,p,1,1.061,1.772743336,1,1,13,1,53,1,1,,,,,,,,,,,,,,
,,,,,,,,,,,right.png,,p,right,5d2fbee1fb16450018a7a023,2021-10-27_12h07.12.217,arrow_simon_punish,2021.1.2,Win32,85.00510031,,,,,,,,,,,,,,p,1,0.671,2.149915349,1,1,13,2,54,1,1,,,,,,,,,,,,,,
,,,,,,,,,,,left.png,,w,left,5d2fbee1fb16450018a7a023,2021-10-27_12h07.12.217,arrow_simon_punish,2021.1.2,Win32,85.00510031,,,,,,,,,,,,,,w,1,1.189,1.924325426,1,1,13,3,55,2,1,,,,,,,,,,,,,,
,,,,,,,,,,,left.png,,w,left,5d2fbee1fb16450018a7a023,2021-10-27_12h07.12.217,arrow_simon_punish,2021.1.2,Win32,85.00510031,,,,,,,,,,,,,,w,1,1.575,1.513350391,0,1,14,0,56,2,1,,,,,,,,,,,,,,
,,,,,,,,,,,right.png,,p,left,5d2fbee1fb16450018a7a023,2021-10-27_12h07.12.217,arrow_simon_punish,2021.1.2,Win32,85.00510031,,,,,,,,,,,,,,w,0,1.903,1.611598187,1,1,14,1,57,0,1,,,,,,,,,,,,,,
,,,,,,,,,,,right.png,,p,left,5d2fbee1fb16450018a7a023,2021-10-27_12h07.12.217,arrow_simon_punish,2021.1.2,Win32,85.00510031,,,,,,,,,,,,,,w,0,1.159,1.732535165,1,1,14,2,58,0,1,,,,,,,,,,,,,,
,,,,,,,,,,,left.png,,w,right,5d2fbee1fb16450018a7a023,2021-10-27_12h07.12.217,arrow_simon_punish,2021.1.2,Win32,85.00510031,,,,,,,,,,,,,,w,1,1.609,2.067779305,1,1,14,3,59,3,1,,,,,,,,,,,,,,
,,,,,,,,,,,,,,,5d2fbee1fb16450018a7a023,2021-10-27_12h07.12.217,arrow_simon_punish,2021.1.2,Win32,85.00510031,,,,,,,,,,,,,,,,,,,,,,,,,space,47.023,6,2,0,4,0,1,1,,,,,
,,,,,,,,,,,right.png,,p,right,5d2fbee1fb16450018a7a023,2021-10-27_12h07.12.217,arrow_simon_punish,2021.1.2,Win32,85.00510031,,,,,,,,,,,,,,w,0,1.283,2.313972334,1,5,0,0,0,1,1,,,,,,,,,,,,,,
,,,,,,,,,,,right.png,,p,left,5d2fbee1fb16450018a7a023,2021-10-27_12h07.12.217,arrow_simon_punish,2021.1.2,Win32,85.00510031,,,,,,,,,,,,,,w,0,1.518,2.218025507,1,5,0,1,1,0,1,,,,,,,,,,,,,,
,,,,,,,,,,,left.png,,w,left,5d2fbee1fb16450018a7a023,2021-10-27_12h07.12.217,arrow_simon_punish,2021.1.2,Win32,85.00510031,,,,,,,,,,,,,,w,1,1.236,1.995535458,1,5,0,2,2,2,1,,,,,,,,,,,,,,
,,,,,,,,,,,right.png,,p,left,5d2fbee1fb16450018a7a023,2021-10-27_12h07.12.217,arrow_simon_punish,2021.1.2,Win32,85.00510031,,,,,,,,,,,,,,w,0,1.871,2.064556207,1,5,0,3,3,0,1,,,,,,,,,,,,,,
,,,,,,,,,,,left.png,,w,left,5d2fbee1fb16450018a7a023,2021-10-27_12h07.12.217,arrow_simon_punish,2021.1.2,Win32,85.00510031,,,,,,,,,,,,,,p,0,2.049,2.366150907,1,5,1,0,4,2,1,,,,,,,,,,,,,,
,,,,,,,,,,,right.png,,p,right,5d2fbee1fb16450018a7a023,2021-10-27_12h07.12.217,arrow_simon_punish,2021.1.2,Win32,85.00510031,,,,,,,,,,,,,,p,1,1.754,2.47229208,1,5,1,1,5,1,1,,,,,,,,,,,,,,
,,,,,,,,,,,left.png,,w,right,5d2fbee1fb16450018a7a023,2021-10-27_12h07.12.217,arrow_simon_punish,2021.1.2,Win32,85.00510031,,,,,,,,,,,,,,w,1,0.435,2.230792283,1,5,1,2,6,3,1,,,,,,,,,,,,,,
,,,,,,,,,,,left.png,,w,right,5d2fbee1fb16450018a7a023,2021-10-27_12h07.12.217,arrow_simon_punish,2021.1.2,Win32,85.00510031,,,,,,,,,,,,,,w,1,1.176,1.574072777,1,5,1,3,7,3,1,,,,,,,,,,,,,,
,,,,,,,,,,,right.png,,p,right,5d2fbee1fb16450018a7a023,2021-10-27_12h07.12.217,arrow_simon_punish,2021.1.2,Win32,85.00510031,,,,,,,,,,,,,,p,1,2.119,1.956601438,1,5,2,0,8,1,1,,,,,,,,,,,,,,
,,,,,,,,,,,right.png,,p,left,5d2fbee1fb16450018a7a023,2021-10-27_12h07.12.217,arrow_simon_punish,2021.1.2,Win32,85.00510031,,,,,,,,,,,,,,p,1,1.729,2.457478903,1,5,2,1,9,0,1,,,,,,,,,,,,,,
,,,,,,,,,,,right.png,,p,left,5d2fbee1fb16450018a7a023,2021-10-27_12h07.12.217,arrow_simon_punish,2021.1.2,Win32,85.00510031,,,,,,,,,,,,,,w,0,1.153,2.291961642,1,5,2,2,10,0,1,,,,,,,,,,,,,,
,,,,,,,,,,,right.png,,p,left,5d2fbee1fb16450018a7a023,2021-10-27_12h07.12.217,arrow_simon_punish,2021.1.2,Win32,85.00510031,,,,,,,,,,,,,,w,0,0.801,2.247330618,1,5,2,3,11,0,1,,,,,,,,,,,,,,
,,,,,,,,,,,right.png,,p,left,5d2fbee1fb16450018a7a023,2021-10-27_12h07.12.217,arrow_simon_punish,2021.1.2,Win32,85.00510031,,,,,,,,,,,,,,w,0,1.117,1.830989498,1,5,3,0,12,0,1,,,,,,,,,,,,,,
,,,,,,,,,,,right.png,,p,right,5d2fbee1fb16450018a7a023,2021-10-27_12h07.12.217,arrow_simon_punish,2021.1.2,Win32,85.00510031,,,,,,,,,,,,,,p,1,1.437,2.114801649,0,5,3,1,13,1,1,,,,,,,,,,,,,,
,,,,,,,,,,,left.png,,w,left,5d2fbee1fb16450018a7a023,2021-10-27_12h07.12.217,arrow_simon_punish,2021.1.2,Win32,85.00510031,,,,,,,,,,,,,,w,1,1.024,1.846419466,1,5,3,2,14,2,1,,,,,,,,,,,,,,
,,,,,,,,,,,right.png,,p,right,5d2fbee1fb16450018a7a023,2021-10-27_12h07.12.217,arrow_simon_punish,2021.1.2,Win32,85.00510031,,,,,,,,,,,,,,w,0,1.33,2.212150865,1,5,3,3,15,1,1,,,,,,,,,,,,,,
,,,,,,,,,,,left.png,,w,right,5d2fbee1fb16450018a7a023,2021-10-27_12h07.12.217,arrow_simon_punish,2021.1.2,Win32,85.00510031,,,,,,,,,,,,,,w,1,1.836,1.75464849,1,5,4,0,16,3,1,,,,,,,,,,,,,,
,,,,,,,,,,,left.png,,w,left,5d2fbee1fb16450018a7a023,2021-10-27_12h07.12.217,arrow_simon_punish,2021.1.2,Win32,85.00510031,,,,,,,,,,,,,,w,1,1.765,2.174847338,1,5,4,1,17,2,1,,,,,,,,,,,,,,
,,,,,,,,,,,left.png,,w,left,5d2fbee1fb16450018a7a023,2021-10-27_12h07.12.217,arrow_simon_punish,2021.1.2,Win32,85.00510031,,,,,,,,,,,,,,w,1,1.084,2.175017789,1,5,4,2,18,2,1,,,,,,,,,,,,,,
,,,,,,,,,,,left.png,,w,right,5d2fbee1fb16450018a7a023,2021-10-27_12h07.12.217,arrow_simon_punish,2021.1.2,Win32,85.00510031,,,,,,,,,,,,,,w,1,1.354,1.896153915,1,5,4,3,19,3,1,,,,,,,,,,,,,,
,,,,,,,,,,,left.png,,w,right,5d2fbee1fb16450018a7a023,2021-10-27_12h07.12.217,arrow_simon_punish,2021.1.2,Win32,85.00510031,,,,,,,,,,,,,,w,1,0.92,1.577996643,1,5,5,0,20,3,1,,,,,,,,,,,,,,
,,,,,,,,,,,right.png,,p,left,5d2fbee1fb16450018a7a023,2021-10-27_12h07.12.217,arrow_simon_punish,2021.1.2,Win32,85.00510031,,,,,,,,,,,,,,w,0,0.838,1.871465142,1,5,5,1,21,0,1,,,,,,,,,,,,,,
,,,,,,,,,,,right.png,,p,right,5d2fbee1fb16450018a7a023,2021-10-27_12h07.12.217,arrow_simon_punish,2021.1.2,Win32,85.00510031,,,,,,,,,,,,,,w,0,0.337,2.291053709,1,5,5,2,22,1,1,,,,,,,,,,,,,,
,,,,,,,,,,,left.png,,w,right,5d2fbee1fb16450018a7a023,2021-10-27_12h07.12.217,arrow_simon_punish,2021.1.2,Win32,85.00510031,,,,,,,,,,,,,,w,1,0.753,1.604274784,1,5,5,3,23,3,1,,,,,,,,,,,,,,
,,,,,,,,,,,right.png,,p,right,5d2fbee1fb16450018a7a023,2021-10-27_12h07.12.217,arrow_simon_punish,2021.1.2,Win32,85.00510031,,,,,,,,,,,,,,w,0,0.495,2.225800448,1,5,6,0,24,1,1,,,,,,,,,,,,,,
,,,,,,,,,,,right.png,,p,left,5d2fbee1fb16450018a7a023,2021-10-27_12h07.12.217,arrow_simon_punish,2021.1.2,Win32,85.00510031,,,,,,,,,,,,,,w,0,0.318,1.838009881,1,5,6,1,25,0,1,,,,,,,,,,,,,,
,,,,,,,,,,,left.png,,w,right,5d2fbee1fb16450018a7a023,2021-10-27_12h07.12.217,arrow_simon_punish,2021.1.2,Win32,85.00510031,,,,,,,,,,,,,,w,1,1.46,2.439431463,0,5,6,2,26,3,1,,,,,,,,,,,,,,
,,,,,,,,,,,left.png,,w,right,5d2fbee1fb16450018a7a023,2021-10-27_12h07.12.217,arrow_simon_punish,2021.1.2,Win32,85.00510031,,,,,,,,,,,,,,w,1,1.722,2.39230687,1,5,6,3,27,3,1,,,,,,,,,,,,,,
,,,,,,,,,,,right.png,,p,right,5d2fbee1fb16450018a7a023,2021-10-27_12h07.12.217,arrow_simon_punish,2021.1.2,Win32,85.00510031,,,,,,,,,,,,,,w,0,1.693,2.37708597,1,5,7,0,28,1,1,,,,,,,,,,,,,,
,,,,,,,,,,,left.png,,w,right,5d2fbee1fb16450018a7a023,2021-10-27_12h07.12.217,arrow_simon_punish,2021.1.2,Win32,85.00510031,,,,,,,,,,,,,,w,1,1.624,2.301220446,1,5,7,1,29,3,1,,,,,,,,,,,,,,
,,,,,,,,,,,left.png,,w,left,5d2fbee1fb16450018a7a023,2021-10-27_12h07.12.217,arrow_simon_punish,2021.1.2,Win32,85.00510031,,,,,,,,,,,,,,w,1,1.652,2.357407298,1,5,7,2,30,2,1,,,,,,,,,,,,,,
,,,,,,,,,,,right.png,,p,left,5d2fbee1fb16450018a7a023,2021-10-27_12h07.12.217,arrow_simon_punish,2021.1.2,Win32,85.00510031,,,,,,,,,,,,,,p,1,1.661,2.339956905,1,5,7,3,31,0,1,,,,,,,,,,,,,,
,,,,,,,,,,,right.png,,p,left,5d2fbee1fb16450018a7a023,2021-10-27_12h07.12.217,arrow_simon_punish,2021.1.2,Win32,85.00510031,,,,,,,,,,,,,,p,1,1.341,2.012521604,1,5,8,0,32,0,1,,,,,,,,,,,,,,
,,,,,,,,,,,left.png,,w,right,5d2fbee1fb16450018a7a023,2021-10-27_12h07.12.217,arrow_simon_punish,2021.1.2,Win32,85.00510031,,,,,,,,,,,,,,w,1,0.908,1.54142184,1,5,8,1,33,3,1,,,,,,,,,,,,,,
,,,,,,,,,,,right.png,,p,right,5d2fbee1fb16450018a7a023,2021-10-27_12h07.12.217,arrow_simon_punish,2021.1.2,Win32,85.00510031,,,,,,,,,,,,,,w,0,1.564,2.195246099,1,5,8,2,34,1,1,,,,,,,,,,,,,,
,,,,,,,,,,,right.png,,p,left,5d2fbee1fb16450018a7a023,2021-10-27_12h07.12.217,arrow_simon_punish,2021.1.2,Win32,85.00510031,,,,,,,,,,,,,,p,1,1.001,1.687591525,1,5,8,3,35,0,1,,,,,,,,,,,,,,
,,,,,,,,,,,right.png,,p,right,5d2fbee1fb16450018a7a023,2021-10-27_12h07.12.217,arrow_simon_punish,2021.1.2,Win32,85.00510031,,,,,,,,,,,,,,w,0,1.109,1.708702279,1,5,9,0,36,1,1,,,,,,,,,,,,,,
,,,,,,,,,,,left.png,,w,left,5d2fbee1fb16450018a7a023,2021-10-27_12h07.12.217,arrow_simon_punish,2021.1.2,Win32,85.00510031,,,,,,,,,,,,,,p,0,1.106,1.79117401,1,5,9,1,37,2,1,,,,,,,,,,,,,,
,,,,,,,,,,,right.png,,p,right,5d2fbee1fb16450018a7a023,2021-10-27_12h07.12.217,arrow_simon_punish,2021.1.2,Win32,85.00510031,,,,,,,,,,,,,,p,1,1.624,2.317834473,1,5,9,2,38,1,1,,,,,,,,,,,,,,
,,,,,,,,,,,left.png,,w,right,5d2fbee1fb16450018a7a023,2021-10-27_12h07.12.217,arrow_simon_punish,2021.1.2,Win32,85.00510031,,,,,,,,,,,,,,w,1,1.671,2.009363386,1,5,9,3,39,3,1,,,,,,,,,,,,,,
,,,,,,,,,,,left.png,,w,right,5d2fbee1fb16450018a7a023,2021-10-27_12h07.12.217,arrow_simon_punish,2021.1.2,Win32,85.00510031,,,,,,,,,,,,,,w,1,1.2,1.771007761,1,5,10,0,40,3,1,,,,,,,,,,,,,,
,,,,,,,,,,,left.png,,w,left,5d2fbee1fb16450018a7a023,2021-10-27_12h07.12.217,arrow_simon_punish,2021.1.2,Win32,85.00510031,,,,,,,,,,,,,,p,0,0.953,1.604687368,1,5,10,1,41,2,1,,,,,,,,,,,,,,
,,,,,,,,,,,left.png,,w,left,5d2fbee1fb16450018a7a023,2021-10-27_12h07.12.217,arrow_simon_punish,2021.1.2,Win32,85.00510031,,,,,,,,,,,,,,p,0,0.92,1.537877615,1,5,10,2,42,2,1,,,,,,,,,,,,,,
,,,,,,,,,,,right.png,,p,right,5d2fbee1fb16450018a7a023,2021-10-27_12h07.12.217,arrow_simon_punish,2021.1.2,Win32,85.00510031,,,,,,,,,,,,,,p,1,1.662,2.067659919,1,5,10,3,43,1,1,,,,,,,,,,,,,,
,,,,,,,,,,,left.png,,w,left,5d2fbee1fb16450018a7a023,2021-10-27_12h07.12.217,arrow_simon_punish,2021.1.2,Win32,85.00510031,,,,,,,,,,,,,,w,1,1.506,2.156417927,0,5,11,0,44,2,1,,,,,,,,,,,,,,
,,,,,,,,,,,right.png,,p,left,5d2fbee1fb16450018a7a023,2021-10-27_12h07.12.217,arrow_simon_punish,2021.1.2,Win32,85.00510031,,,,,,,,,,,,,,w,0,1.224,1.904962051,1,5,11,1,45,0,1,,,,,,,,,,,,,,
,,,,,,,,,,,left.png,,w,right,5d2fbee1fb16450018a7a023,2021-10-27_12h07.12.217,arrow_simon_punish,2021.1.2,Win32,85.00510031,,,,,,,,,,,,,,w,1,1.494,1.847444269,0,5,11,2,46,3,1,,,,,,,,,,,,,,
,,,,,,,,,,,right.png,,p,left,5d2fbee1fb16450018a7a023,2021-10-27_12h07.12.217,arrow_simon_punish,2021.1.2,Win32,85.00510031,,,,,,,,,,,,,,w,0,1.307,2.094983745,1,5,11,3,47,0,1,,,,,,,,,,,,,,
,,,,,,,,,,,left.png,,w,left,5d2fbee1fb16450018a7a023,2021-10-27_12h07.12.217,arrow_simon_punish,2021.1.2,Win32,85.00510031,,,,,,,,,,,,,,w,1,1.565,2.26116874,0,5,12,0,48,2,1,,,,,,,,,,,,,,
,,,,,,,,,,,left.png,,w,right,5d2fbee1fb16450018a7a023,2021-10-27_12h07.12.217,arrow_simon_punish,2021.1.2,Win32,85.00510031,,,,,,,,,,,,,,w,1,1.317,2.158349144,1,5,12,1,49,3,1,,,,,,,,,,,,,,
,,,,,,,,,,,left.png,,w,left,5d2fbee1fb16450018a7a023,2021-10-27_12h07.12.217,arrow_simon_punish,2021.1.2,Win32,85.00510031,,,,,,,,,,,,,,w,1,1.435,1.960708283,0,5,12,2,50,2,1,,,,,,,,,,,,,,
,,,,,,,,,,,right.png,,p,right,5d2fbee1fb16450018a7a023,2021-10-27_12h07.12.217,arrow_simon_punish,2021.1.2,Win32,85.00510031,,,,,,,,,,,,,,w,0,1.305,1.996751884,1,5,12,3,51,1,1,,,,,,,,,,,,,,
,,,,,,,,,,,left.png,,w,left,5d2fbee1fb16450018a7a023,2021-10-27_12h07.12.217,arrow_simon_punish,2021.1.2,Win32,85.00510031,,,,,,,,,,,,,,w,1,0.872,1.504382322,1,5,13,0,52,2,1,,,,,,,,,,,,,,
,,,,,,,,,,,left.png,,w,right,5d2fbee1fb16450018a7a023,2021-10-27_12h07.12.217,arrow_simon_punish,2021.1.2,Win32,85.00510031,,,,,,,,,,,,,,w,1,1.143,1.792281742,1,5,13,1,53,3,1,,,,,,,,,,,,,,
,,,,,,,,,,,right.png,,p,left,5d2fbee1fb16450018a7a023,2021-10-27_12h07.12.217,arrow_simon_punish,2021.1.2,Win32,85.00510031,,,,,,,,,,,,,,w,0,0.789,1.65159224,1,5,13,2,54,0,1,,,,,,,,,,,,,,
,,,,,,,,,,,right.png,,p,right,5d2fbee1fb16450018a7a023,2021-10-27_12h07.12.217,arrow_simon_punish,2021.1.2,Win32,85.00510031,,,,,,,,,,,,,,w,0,1.566,2.23276117,1,5,13,3,55,1,1,,,,,,,,,,,,,,
,,,,,,,,,,,right.png,,p,right,5d2fbee1fb16450018a7a023,2021-10-27_12h07.12.217,arrow_simon_punish,2021.1.2,Win32,85.00510031,,,,,,,,,,,,,,p,1,1.023,1.704154079,1,5,14,0,56,1,1,,,,,,,,,,,,,,
,,,,,,,,,,,right.png,,p,left,5d2fbee1fb16450018a7a023,2021-10-27_12h07.12.217,arrow_simon_punish,2021.1.2,Win32,85.00510031,,,,,,,,,,,,,,w,0,1.424,2.110407792,1,5,14,1,57,0,1,,,,,,,,,,,,,,
,,,,,,,,,,,left.png,,w,left,5d2fbee1fb16450018a7a023,2021-10-27_12h07.12.217,arrow_simon_punish,2021.1.2,Win32,85.00510031,,,,,,,,,,,,,,p,0,1.142,1.592536484,1,5,14,2,58,2,1,,,,,,,,,,,,,,
,,,,,,,,,,,left.png,,w,left,5d2fbee1fb16450018a7a023,2021-10-27_12h07.12.217,arrow_simon_punish,2021.1.2,Win32,85.00510031,,,,,,,,,,,,,,p,0,1.623,2.036032201,1,5,14,3,59,2,1,,,,,,,,,,,,,,
,,,,,,,,,,,,,,,5d2fbee1fb16450018a7a023,2021-10-27_12h07.12.217,arrow_simon_punish,2021.1.2,Win32,85.00510031,,,,,,,,,,,,,,,,,,,,,,,,,space,97.777,7,2,1,5,1,1,5,,,,,
,,,,,,,,,,,left.png,,w,right,5d2fbee1fb16450018a7a023,2021-10-27_12h07.12.217,arrow_simon_punish,2021.1.2,Win32,85.00510031,,,,,,,,,,,,,,w,1,1.415,1.884955384,0,1,0,0,0,3,1,,,,,,,,,,,,,,
,,,,,,,,,,,right.png,,p,right,5d2fbee1fb16450018a7a023,2021-10-27_12h07.12.217,arrow_simon_punish,2021.1.2,Win32,85.00510031,,,,,,,,,,,,,,p,1,1.071,1.726802476,1,1,0,1,1,1,1,,,,,,,,,,,,,,
,,,,,,,,,,,left.png,,w,right,5d2fbee1fb16450018a7a023,2021-10-27_12h07.12.217,arrow_simon_punish,2021.1.2,Win32,85.00510031,,,,,,,,,,,,,,p,0,1.071,2.354349974,1,1,0,2,2,3,1,,,,,,,,,,,,,,
,,,,,,,,,,,left.png,,w,left,5d2fbee1fb16450018a7a023,2021-10-27_12h07.12.217,arrow_simon_punish,2021.1.2,Win32,85.00510031,,,,,,,,,,,,,,p,0,1.51,2.133440333,1,1,0,3,3,2,1,,,,,,,,,,,,,,
,,,,,,,,,,,right.png,,p,left,5d2fbee1fb16450018a7a023,2021-10-27_12h07.12.217,arrow_simon_punish,2021.1.2,Win32,85.00510031,,,,,,,,,,,,,,w,0,1.799,2.370485232,1,1,1,0,4,0,1,,,,,,,,,,,,,,
,,,,,,,,,,,right.png,,p,right,5d2fbee1fb16450018a7a023,2021-10-27_12h07.12.217,arrow_simon_punish,2021.1.2,Win32,85.00510031,,,,,,,,,,,,,,w,0,1.659,1.926654372,1,1,1,1,5,1,1,,,,,,,,,,,,,,
,,,,,,,,,,,right.png,,p,right,5d2fbee1fb16450018a7a023,2021-10-27_12h07.12.217,arrow_simon_punish,2021.1.2,Win32,85.00510031,,,,,,,,,,,,,,p,1,1.26,2.096574775,1,1,1,2,6,1,1,,,,,,,,,,,,,,
,,,,,,,,,,,left.png,,w,left,5d2fbee1fb16450018a7a023,2021-10-27_12h07.12.217,arrow_simon_punish,2021.1.2,Win32,85.00510031,,,,,,,,,,,,,,p,0,1.581,2.302951839,1,1,1,3,7,2,1,,,,,,,,,,,,,,
,,,,,,,,,,,left.png,,w,left,5d2fbee1fb16450018a7a023,2021-10-27_12h07.12.217,arrow_simon_punish,2021.1.2,Win32,85.00510031,,,,,,,,,,,,,,w,1,1.747,2.30826362,1,1,2,0,8,2,1,,,,,,,,,,,,,,
,,,,,,,,,,,left.png,,w,right,5d2fbee1fb16450018a7a023,2021-10-27_12h07.12.217,arrow_simon_punish,2021.1.2,Win32,85.00510031,,,,,,,,,,,,,,w,1,1,2.407811006,1,1,2,1,9,3,1,,,,,,,,,,,,,,
,,,,,,,,,,,left.png,,w,right,5d2fbee1fb16450018a7a023,2021-10-27_12h07.12.217,arrow_simon_punish,2021.1.2,Win32,85.00510031,,,,,,,,,,,,,,w,1,1.194,1.890652077,1,1,2,2,10,3,1,,,,,,,,,,,,,,
,,,,,,,,,,,left.png,,w,right,5d2fbee1fb16450018a7a023,2021-10-27_12h07.12.217,arrow_simon_punish,2021.1.2,Win32,85.00510031,,,,,,,,,,,,,,p,0,1.696,2.38578792,1,1,2,3,11,3,1,,,,,,,,,,,,,,
,,,,,,,,,,,left.png,,w,left,5d2fbee1fb16450018a7a023,2021-10-27_12h07.12.217,arrow_simon_punish,2021.1.2,Win32,85.00510031,,,,,,,,,,,,,,p,0,1.028,1.549282982,1,1,3,0,12,2,1,,,,,,,,,,,,,,
,,,,,,,,,,,right.png,,p,right,5d2fbee1fb16450018a7a023,2021-10-27_12h07.12.217,arrow_simon_punish,2021.1.2,Win32,85.00510031,,,,,,,,,,,,,,w,0,0.871,1.586551604,1,1,3,1,13,1,1,,,,,,,,,,,,,,
,,,,,,,,,,,left.png,,w,right,5d2fbee1fb16450018a7a023,2021-10-27_12h07.12.217,arrow_simon_punish,2021.1.2,Win32,85.00510031,,,,,,,,,,,,,,w,1,1,1.670369674,1,1,3,2,14,3,1,,,,,,,,,,,,,,
,,,,,,,,,,,right.png,,p,right,5d2fbee1fb16450018a7a023,2021-10-27_12h07.12.217,arrow_simon_punish,2021.1.2,Win32,85.00510031,,,,,,,,,,,,,,p,1,1.767,2.478711425,1,1,3,3,15,1,1,,,,,,,,,,,,,,
,,,,,,,,,,,left.png,,w,right,5d2fbee1fb16450018a7a023,2021-10-27_12h07.12.217,arrow_simon_punish,2021.1.2,Win32,85.00510031,,,,,,,,,,,,,,p,0,1.594,2.125543164,1,1,4,0,16,3,1,,,,,,,,,,,,,,
,,,,,,,,,,,left.png,,w,left,5d2fbee1fb16450018a7a023,2021-10-27_12h07.12.217,arrow_simon_punish,2021.1.2,Win32,85.00510031,,,,,,,,,,,,,,w,1,1.016,1.672292156,1,1,4,1,17,2,1,,,,,,,,,,,,,,
,,,,,,,,,,,left.png,,w,right,5d2fbee1fb16450018a7a023,2021-10-27_12h07.12.217,arrow_simon_punish,2021.1.2,Win32,85.00510031,,,,,,,,,,,,,,w,1,0.828,2.495431507,1,1,4,2,18,3,1,,,,,,,,,,,,,,
,,,,,,,,,,,right.png,,p,left,5d2fbee1fb16450018a7a023,2021-10-27_12h07.12.217,arrow_simon_punish,2021.1.2,Win32,85.00510031,,,,,,,,,,,,,,w,0,0.931,1.654640481,1,1,4,3,19,0,1,,,,,,,,,,,,,,
,,,,,,,,,,,left.png,,w,left,5d2fbee1fb16450018a7a023,2021-10-27_12h07.12.217,arrow_simon_punish,2021.1.2,Win32,85.00510031,,,,,,,,,,,,,,p,0,0.789,1.510320438,1,1,5,0,20,2,1,,,,,,,,,,,,,,
,,,,,,,,,,,right.png,,p,left,5d2fbee1fb16450018a7a023,2021-10-27_12h07.12.217,arrow_simon_punish,2021.1.2,Win32,85.00510031,,,,,,,,,,,,,,w,0,0.846,1.574058682,1,1,5,1,21,0,1,,,,,,,,,,,,,,
,,,,,,,,,,,right.png,,p,left,5d2fbee1fb16450018a7a023,2021-10-27_12h07.12.217,arrow_simon_punish,2021.1.2,Win32,85.00510031,,,,,,,,,,,,,,w,0,1.377,2.112905321,1,1,5,2,22,0,1,,,,,,,,,,,,,,
,,,,,,,,,,,left.png,,w,left,5d2fbee1fb16450018a7a023,2021-10-27_12h07.12.217,arrow_simon_punish,2021.1.2,Win32,85.00510031,,,,,,,,,,,,,,w,1,1.2,1.91441877,1,1,5,3,23,2,1,,,,,,,,,,,,,,
,,,,,,,,,,,right.png,,p,left,5d2fbee1fb16450018a7a023,2021-10-27_12h07.12.217,arrow_simon_punish,2021.1.2,Win32,85.00510031,,,,,,,,,,,,,,w,0,0.838,2.340892006,1,1,6,0,24,0,1,,,,,,,,,,,,,,
,,,,,,,,,,,right.png,,p,right,5d2fbee1fb16450018a7a023,2021-10-27_12h07.12.217,arrow_simon_punish,2021.1.2,Win32,85.00510031,,,,,,,,,,,,,,w,0,1.412,2.068683314,1,1,6,1,25,1,1,,,,,,,,,,,,,,
,,,,,,,,,,,right.png,,p,left,5d2fbee1fb16450018a7a023,2021-10-27_12h07.12.217,arrow_simon_punish,2021.1.2,Win32,85.00510031,,,,,,,,,,,,,,w,0,1.446,2.120978266,1,1,6,2,26,0,1,,,,,,,,,,,,,,
,,,,,,,,,,,right.png,,p,left,5d2fbee1fb16450018a7a023,2021-10-27_12h07.12.217,arrow_simon_punish,2021.1.2,Win32,85.00510031,,,,,,,,,,,,,,w,0,1.154,1.780082765,1,1,6,3,27,0,1,,,,,,,,,,,,,,
,,,,,,,,,,,right.png,,p,left,5d2fbee1fb16450018a7a023,2021-10-27_12h07.12.217,arrow_simon_punish,2021.1.2,Win32,85.00510031,,,,,,,,,,,,,,w,0,1.342,2.047920351,1,1,7,0,28,0,1,,,,,,,,,,,,,,
,,,,,,,,,,,right.png,,p,right,5d2fbee1fb16450018a7a023,2021-10-27_12h07.12.217,arrow_simon_punish,2021.1.2,Win32,85.00510031,,,,,,,,,,,,,,w,0,1.176,1.898063084,1,1,7,1,29,1,1,,,,,,,,,,,,,,
,,,,,,,,,,,right.png,,p,left,5d2fbee1fb16450018a7a023,2021-10-27_12h07.12.217,arrow_simon_punish,2021.1.2,Win32,85.00510031,,,,,,,,,,,,,,w,0,1.012,1.812878403,1,1,7,2,30,0,1,,,,,,,,,,,,,,
,,,,,,,,,,,right.png,,p,right,5d2fbee1fb16450018a7a023,2021-10-27_12h07.12.217,arrow_simon_punish,2021.1.2,Win32,85.00510031,,,,,,,,,,,,,,w,0,1.201,1.820094406,1,1,7,3,31,1,1,,,,,,,,,,,,,,
,,,,,,,,,,,left.png,,w,left,5d2fbee1fb16450018a7a023,2021-10-27_12h07.12.217,arrow_simon_punish,2021.1.2,Win32,85.00510031,,,,,,,,,,,,,,w,1,0.918,1.65418406,1,1,8,0,32,2,1,,,,,,,,,,,,,,
,,,,,,,,,,,right.png,,p,left,5d2fbee1fb16450018a7a023,2021-10-27_12h07.12.217,arrow_simon_punish,2021.1.2,Win32,85.00510031,,,,,,,,,,,,,,p,1,1.023,1.706066655,1,1,8,1,33,0,1,,,,,,,,,,,,,,
,,,,,,,,,,,left.png,,w,right,5d2fbee1fb16450018a7a023,2021-10-27_12h07.12.217,arrow_simon_punish,2021.1.2,Win32,85.00510031,,,,,,,,,,,,,,w,1,1.224,1.917397472,1,1,8,2,34,3,1,,,,,,,,,,,,,,
,,,,,,,,,,,right.png,,p,left,5d2fbee1fb16450018a7a023,2021-10-27_12h07.12.217,arrow_simon_punish,2021.1.2,Win32,85.00510031,,,,,,,,,,,,,,w,0,1.284,2.000083961,1,1,8,3,35,0,1,,,,,,,,,,,,,,
,,,,,,,,,,,right.png,,p,right,5d2fbee1fb16450018a7a023,2021-10-27_12h07.12.217,arrow_simon_punish,2021.1.2,Win32,85.00510031,,,,,,,,,,,,,,p,1,1.272,2.319087532,1,1,9,0,36,1,1,,,,,,,,,,,,,,
,,,,,,,,,,,right.png,,p,right,5d2fbee1fb16450018a7a023,2021-10-27_12h07.12.217,arrow_simon_punish,2021.1.2,Win32,85.00510031,,,,,,,,,,,,,,w,0,1.048,1.604973538,1,1,9,1,37,1,1,,,,,,,,,,,,,,
,,,,,,,,,,,right.png,,p,left,5d2fbee1fb16450018a7a023,2021-10-27_12h07.12.217,arrow_simon_punish,2021.1.2,Win32,85.00510031,,,,,,,,,,,,,,p,1,1.331,1.995605741,1,1,9,2,38,0,1,,,,,,,,,,,,,,
,,,,,,,,,,,right.png,,p,right,5d2fbee1fb16450018a7a023,2021-10-27_12h07.12.217,arrow_simon_punish,2021.1.2,Win32,85.00510031,,,,,,,,,,,,,,w,0,1.706,2.369968992,1,1,9,3,39,1,1,,,,,,,,,,,,,,
,,,,,,,,,,,left.png,,w,left,5d2fbee1fb16450018a7a023,2021-10-27_12h07.12.217,arrow_simon_punish,2021.1.2,Win32,85.00510031,,,,,,,,,,,,,,w,1,1.694,2.36086929,1,1,10,0,40,2,1,,,,,,,,,,,,,,
,,,,,,,,,,,right.png,,p,right,5d2fbee1fb16450018a7a023,2021-10-27_12h07.12.217,arrow_simon_punish,2021.1.2,Win32,85.00510031,,,,,,,,,,,,,,w,0,1.234,1.729627444,1,1,10,1,41,1,1,,,,,,,,,,,,,,
,,,,,,,,,,,right.png,,p,left,5d2fbee1fb16450018a7a023,2021-10-27_12h07.12.217,arrow_simon_punish,2021.1.2,Win32,85.00510031,,,,,,,,,,,,,,p,1,1.377,2.069792014,1,1,10,2,42,0,1,,,,,,,,,,,,,,
,,,,,,,,,,,right.png,,p,right,5d2fbee1fb16450018a7a023,2021-10-27_12h07.12.217,arrow_simon_punish,2021.1.2,Win32,85.00510031,,,,,,,,,,,,,,w,0,1.671,1.787665092,1,1,10,3,43,1,1,,,,,,,,,,,,,,
,,,,,,,,,,,right.png,,p,left,5d2fbee1fb16450018a7a023,2021-10-27_12h07.12.217,arrow_simon_punish,2021.1.2,Win32,85.00510031,,,,,,,,,,,,,,w,0,1.26,1.789116061,1,1,11,0,44,0,1,,,,,,,,,,,,,,
,,,,,,,,,,,left.png,,w,left,5d2fbee1fb16450018a7a023,2021-10-27_12h07.12.217,arrow_simon_punish,2021.1.2,Win32,85.00510031,,,,,,,,,,,,,,w,1,1.307,2.493503548,1,1,11,1,45,2,1,,,,,,,,,,,,,,
,,,,,,,,,,,left.png,,w,right,5d2fbee1fb16450018a7a023,2021-10-27_12h07.12.217,arrow_simon_punish,2021.1.2,Win32,85.00510031,,,,,,,,,,,,,,w,1,1.342,2.000451185,1,1,11,2,46,3,1,,,,,,,,,,,,,,
,,,,,,,,,,,left.png,,w,left,5d2fbee1fb16450018a7a023,2021-10-27_12h07.12.217,arrow_simon_punish,2021.1.2,Win32,85.00510031,,,,,,,,,,,,,,w,1,1.482,2.184255498,0,1,11,3,47,2,1,,,,,,,,,,,,,,
,,,,,,,,,,,right.png,,p,left,5d2fbee1fb16450018a7a023,2021-10-27_12h07.12.217,arrow_simon_punish,2021.1.2,Win32,85.00510031,,,,,,,,,,,,,,w,0,1.06,1.678900016,1,1,12,0,48,0,1,,,,,,,,,,,,,,
,,,,,,,,,,,right.png,,p,right,5d2fbee1fb16450018a7a023,2021-10-27_12h07.12.217,arrow_simon_punish,2021.1.2,Win32,85.00510031,,,,,,,,,,,,,,w,0,1.307,1.986865128,1,1,12,1,49,1,1,,,,,,,,,,,,,,
,,,,,,,,,,,left.png,,w,right,5d2fbee1fb16450018a7a023,2021-10-27_12h07.12.217,arrow_simon_punish,2021.1.2,Win32,85.00510031,,,,,,,,,,,,,,w,1,1.071,1.808234226,1,1,12,2,50,3,1,,,,,,,,,,,,,,
,,,,,,,,,,,left.png,,w,right,5d2fbee1fb16450018a7a023,2021-10-27_12h07.12.217,arrow_simon_punish,2021.1.2,Win32,85.00510031,,,,,,,,,,,,,,w,1,1.554,2.295194546,0,1,12,3,51,3,1,,,,,,,,,,,,,,
,,,,,,,,,,,left.png,,w,left,5d2fbee1fb16450018a7a023,2021-10-27_12h07.12.217,arrow_simon_punish,2021.1.2,Win32,85.00510031,,,,,,,,,,,,,,p,0,0.366,2.257299625,1,1,13,0,52,2,1,,,,,,,,,,,,,,
,,,,,,,,,,,left.png,,w,right,5d2fbee1fb16450018a7a023,2021-10-27_12h07.12.217,arrow_simon_punish,2021.1.2,Win32,85.00510031,,,,,,,,,,,,,,w,1,1.603,2.053242709,1,1,13,1,53,3,1,,,,,,,,,,,,,,
,,,,,,,,,,,right.png,,p,right,5d2fbee1fb16450018a7a023,2021-10-27_12h07.12.217,arrow_simon_punish,2021.1.2,Win32,85.00510031,,,,,,,,,,,,,,w,0,0.818,1.529327031,1,1,13,2,54,1,1,,,,,,,,,,,,,,
,,,,,,,,,,,left.png,,w,left,5d2fbee1fb16450018a7a023,2021-10-27_12h07.12.217,arrow_simon_punish,2021.1.2,Win32,85.00510031,,,,,,,,,,,,,,w,1,1.002,1.65029541,1,1,13,3,55,2,1,,,,,,,,,,,,,,
,,,,,,,,,,,left.png,,w,left,5d2fbee1fb16450018a7a023,2021-10-27_12h07.12.217,arrow_simon_punish,2021.1.2,Win32,85.00510031,,,,,,,,,,,,,,p,0,1.294,2.308389539,1,1,14,0,56,2,1,,,,,,,,,,,,,,
,,,,,,,,,,,left.png,,w,right,5d2fbee1fb16450018a7a023,2021-10-27_12h07.12.217,arrow_simon_punish,2021.1.2,Win32,85.00510031,,,,,,,,,,,,,,w,1,1.335,2.003253478,1,1,14,1,57,3,1,,,,,,,,,,,,,,
,,,,,,,,,,,left.png,,w,right,5d2fbee1fb16450018a7a023,2021-10-27_12h07.12.217,arrow_simon_punish,2021.1.2,Win32,85.00510031,,,,,,,,,,,,,,w,1,1.425,2.072661987,0,1,14,2,58,3,1,,,,,,,,,,,,,,
,,,,,,,,,,,left.png,,w,left,5d2fbee1fb16450018a7a023,2021-10-27_12h07.12.217,arrow_simon_punish,2021.1.2,Win32,85.00510031,,,,,,,,,,,,,,w,1,1.281,2.295857386,1,1,14,3,59,2,1,,,,,,,,,,,,,,
,,,,,,,,,,,,,,,5d2fbee1fb16450018a7a023,2021-10-27_12h07.12.217,arrow_simon_punish,2021.1.2,Win32,85.00510031,,,,,,,,,,,,,,,,,,,,,,,,,space,14.73,8,3,0,6,0,1,1,,,,,
,,,,,,,,,,,left.png,,w,left,5d2fbee1fb16450018a7a023,2021-10-27_12h07.12.217,arrow_simon_punish,2021.1.2,Win32,85.00510031,,,,,,,,,,,,,,p,0,1.5,1.955320877,1,5,0,0,0,2,1,,,,,,,,,,,,,,
,,,,,,,,,,,right.png,,p,right,5d2fbee1fb16450018a7a023,2021-10-27_12h07.12.217,arrow_simon_punish,2021.1.2,Win32,85.00510031,,,,,,,,,,,,,,w,0,1.3,1.958408695,1,5,0,1,1,1,1,,,,,,,,,,,,,,
,,,,,,,,,,,right.png,,p,left,5d2fbee1fb16450018a7a023,2021-10-27_12h07.12.217,arrow_simon_punish,2021.1.2,Win32,85.00510031,,,,,,,,,,,,,,w,0,1.036,1.704421125,1,5,0,2,2,0,1,,,,,,,,,,,,,,
,,,,,,,,,,,right.png,,p,right,5d2fbee1fb16450018a7a023,2021-10-27_12h07.12.217,arrow_simon_punish,2021.1.2,Win32,85.00510031,,,,,,,,,,,,,,w,0,0.925,1.592372065,1,5,0,3,3,1,1,,,,,,,,,,,,,,
,,,,,,,,,,,left.png,,w,right,5d2fbee1fb16450018a7a023,2021-10-27_12h07.12.217,arrow_simon_punish,2021.1.2,Win32,85.00510031,,,,,,,,,,,,,,p,0,1.78,2.499755257,1,5,1,0,4,3,1,,,,,,,,,,,,,,
,,,,,,,,,,,left.png,,w,right,5d2fbee1fb16450018a7a023,2021-10-27_12h07.12.217,arrow_simon_punish,2021.1.2,Win32,85.00510031,,,,,,,,,,,,,,p,0,1.503,2.248631271,1,5,1,1,5,3,1,,,,,,,,,,,,,,
,,,,,,,,,,,left.png,,w,right,5d2fbee1fb16450018a7a023,2021-10-27_12h07.12.217,arrow_simon_punish,2021.1.2,Win32,85.00510031,,,,,,,,,,,,,,w,1,1.297,2.008874326,1,5,1,2,6,3,1,,,,,,,,,,,,,,
,,,,,,,,,,,left.png,,w,left,5d2fbee1fb16450018a7a023,2021-10-27_12h07.12.217,arrow_simon_punish,2021.1.2,Win32,85.00510031,,,,,,,,,,,,,,p,0,1.624,2.35058299,1,5,1,3,7,2,1,,,,,,,,,,,,,,
,,,,,,,,,,,right.png,,p,left,5d2fbee1fb16450018a7a023,2021-10-27_12h07.12.217,arrow_simon_punish,2021.1.2,Win32,85.00510031,,,,,,,,,,,,,,p,1,1.241,1.974536577,1,5,2,0,8,0,1,,,,,,,,,,,,,,
,,,,,,,,,,,right.png,,p,right,5d2fbee1fb16450018a7a023,2021-10-27_12h07.12.217,arrow_simon_punish,2021.1.2,Win32,85.00510031,,,,,,,,,,,,,,w,0,1.146,1.82854738,1,5,2,1,9,1,1,,,,,,,,,,,,,,
,,,,,,,,,,,left.png,,w,right,5d2fbee1fb16450018a7a023,2021-10-27_12h07.12.217,arrow_simon_punish,2021.1.2,Win32,85.00510031,,,,,,,,,,,,,,p,0,1.236,1.911080775,1,5,2,2,10,3,1,,,,,,,,,,,,,,
