instruct_resp_simon.keys,instruct_resp_simon.corr,instruct_resp_simon.rt,trial_resp_simon.keys,trial_resp_simon.corr,trial_resp_simon.rt,trials_train_simon.thisRepN,trials_train_simon.thisTrialN,trials_train_simon.thisN,trials_train_simon.thisIndex,trials_train_simon.ran,target_file,target_pos,target_resp,target_side,participant,date,expName,psychopyVersion,OS,frameRate,instruct_resp_timing.keys,instruct_resp_timing.corr,instruct_resp_timing.rt,trial_resp_timing.keys,trial_resp_timing.rt,trials_train_timing.thisRepN,trials_train_timing.thisTrialN,trials_train_timing.thisN,trials_train_timing.thisIndex,trials_train_timing.ran,instruct_resp.keys,instruct_resp.corr,instruct_resp.rt,trial_resp.keys,trial_resp.corr,trial_resp.rt,target_onset,err,pun,trials.thisRepN,trials.thisTrialN,trials.thisN,trials.thisIndex,trials.ran,block_note_resp.keys,block_note_resp.rt,block_num,blocks.thisRepN,blocks.thisTrialN,blocks.thisN,blocks.thisIndex,blocks.ran,punish,complete_resp.keys,complete_resp.rt,raffle_trial,raffle_err,raffle_rew
space,0,76.7875,p,1,1.4753,0,0,0,1,1,right.png,,p,right,5ec00f62cf12be40ea6fe344,2021-10-27_11h21.49.245,arrow_simon_punish,2021.1.2,Win32,60.08532116,,,,,,,,,,,,,,,,,,,,,,,,,,,,,,,,,,,,,,
,,,w,1,0.9523,0,1,1,2,1,left.png,,w,left,5ec00f62cf12be40ea6fe344,2021-10-27_11h21.49.245,arrow_simon_punish,2021.1.2,Win32,60.08532116,,,,,,,,,,,,,,,,,,,,,,,,,,,,,,,,,,,,,,
,,,w,1,1.0374,0,2,2,3,1,left.png,,w,right,5ec00f62cf12be40ea6fe344,2021-10-27_11h21.49.245,arrow_simon_punish,2021.1.2,Win32,60.08532116,,,,,,,,,,,,,,,,,,,,,,,,,,,,,,,,,,,,,,
,,,p,1,1.4201,0,3,3,0,1,right.png,,p,left,5ec00f62cf12be40ea6fe344,2021-10-27_11h21.49.245,arrow_simon_punish,2021.1.2,Win32,60.08532116,,,,,,,,,,,,,,,,,,,,,,,,,,,,,,,,,,,,,,
,,,p,1,0.7508,1,0,4,0,1,right.png,,p,left,5ec00f62cf12be40ea6fe344,2021-10-27_11h21.49.245,arrow_simon_punish,2021.1.2,Win32,60.08532116,,,,,,,,,,,,,,,,,,,,,,,,,,,,,,,,,,,,,,
,,,w,1,1.5116,1,1,5,2,1,left.png,,w,left,5ec00f62cf12be40ea6fe344,2021-10-27_11h21.49.245,arrow_simon_punish,2021.1.2,Win32,60.08532116,,,,,,,,,,,,,,,,,,,,,,,,,,,,,,,,,,,,,,
,,,p,1,1.0901,1,2,6,1,1,right.png,,p,right,5ec00f62cf12be40ea6fe344,2021-10-27_11h21.49.245,arrow_simon_punish,2021.1.2,Win32,60.08532116,,,,,,,,,,,,,,,,,,,,,,,,,,,,,,,,,,,,,,
,,,w,1,0.9725,1,3,7,3,1,left.png,,w,right,5ec00f62cf12be40ea6fe344,2021-10-27_11h21.49.245,arrow_simon_punish,2021.1.2,Win32,60.08532116,,,,,,,,,,,,,,,,,,,,,,,,,,,,,,,,,,,,,,
,,,w,1,0.8624,2,0,8,2,1,left.png,,w,left,5ec00f62cf12be40ea6fe344,2021-10-27_11h21.49.245,arrow_simon_punish,2021.1.2,Win32,60.08532116,,,,,,,,,,,,,,,,,,,,,,,,,,,,,,,,,,,,,,
,,,p,1,1.5048,2,1,9,0,1,right.png,,p,left,5ec00f62cf12be40ea6fe344,2021-10-27_11h21.49.245,arrow_simon_punish,2021.1.2,Win32,60.08532116,,,,,,,,,,,,,,,,,,,,,,,,,,,,,,,,,,,,,,
,,,w,1,0.8505,2,2,10,3,1,left.png,,w,right,5ec00f62cf12be40ea6fe344,2021-10-27_11h21.49.245,arrow_simon_punish,2021.1.2,Win32,60.08532116,,,,,,,,,,,,,,,,,,,,,,,,,,,,,,,,,,,,,,
,,,p,1,0.8323,2,3,11,1,1,right.png,,p,right,5ec00f62cf12be40ea6fe344,2021-10-27_11h21.49.245,arrow_simon_punish,2021.1.2,Win32,60.08532116,,,,,,,,,,,,,,,,,,,,,,,,,,,,,,,,,,,,,,
,,,p,1,1.7906,3,0,12,0,1,right.png,,p,left,5ec00f62cf12be40ea6fe344,2021-10-27_11h21.49.245,arrow_simon_punish,2021.1.2,Win32,60.08532116,,,,,,,,,,,,,,,,,,,,,,,,,,,,,,,,,,,,,,
,,,w,1,1.2587,3,1,13,3,1,left.png,,w,right,5ec00f62cf12be40ea6fe344,2021-10-27_11h21.49.245,arrow_simon_punish,2021.1.2,Win32,60.08532116,,,,,,,,,,,,,,,,,,,,,,,,,,,,,,,,,,,,,,
,,,p,1,1.0695,3,2,14,1,1,right.png,,p,right,5ec00f62cf12be40ea6fe344,2021-10-27_11h21.49.245,arrow_simon_punish,2021.1.2,Win32,60.08532116,,,,,,,,,,,,,,,,,,,,,,,,,,,,,,,,,,,,,,
,,,w,1,0.7037,3,3,15,2,1,left.png,,w,left,5ec00f62cf12be40ea6fe344,2021-10-27_11h21.49.245,arrow_simon_punish,2021.1.2,Win32,60.08532116,,,,,,,,,,,,,,,,,,,,,,,,,,,,,,,,,,,,,,
,,,p,1,1.6335,4,0,16,0,1,right.png,,p,left,5ec00f62cf12be40ea6fe344,2021-10-27_11h21.49.245,arrow_simon_punish,2021.1.2,Win32,60.08532116,,,,,,,,,,,,,,,,,,,,,,,,,,,,,,,,,,,,,,
,,,w,1,0.885,4,1,17,2,1,left.png,,w,left,5ec00f62cf12be40ea6fe344,2021-10-27_11h21.49.245,arrow_simon_punish,2021.1.2,Win32,60.08532116,,,,,,,,,,,,,,,,,,,,,,,,,,,,,,,,,,,,,,
,,,p,1,1.2598,4,2,18,1,1,right.png,,p,right,5ec00f62cf12be40ea6fe344,2021-10-27_11h21.49.245,arrow_simon_punish,2021.1.2,Win32,60.08532116,,,,,,,,,,,,,,,,,,,,,,,,,,,,,,,,,,,,,,
,,,w,1,1.6006,4,3,19,3,1,left.png,,w,right,5ec00f62cf12be40ea6fe344,2021-10-27_11h21.49.245,arrow_simon_punish,2021.1.2,Win32,60.08532116,,,,,,,,,,,,,,,,,,,,,,,,,,,,,,,,,,,,,,
,,,w,1,0.7239,5,0,20,3,1,left.png,,w,right,5ec00f62cf12be40ea6fe344,2021-10-27_11h21.49.245,arrow_simon_punish,2021.1.2,Win32,60.08532116,,,,,,,,,,,,,,,,,,,,,,,,,,,,,,,,,,,,,,
,,,w,1,1.2834,5,1,21,2,1,left.png,,w,left,5ec00f62cf12be40ea6fe344,2021-10-27_11h21.49.245,arrow_simon_punish,2021.1.2,Win32,60.08532116,,,,,,,,,,,,,,,,,,,,,,,,,,,,,,,,,,,,,,
,,,p,1,0.942,5,2,22,1,1,right.png,,p,right,5ec00f62cf12be40ea6fe344,2021-10-27_11h21.49.245,arrow_simon_punish,2021.1.2,Win32,60.08532116,,,,,,,,,,,,,,,,,,,,,,,,,,,,,,,,,,,,,,
,,,p,1,1.2444,5,3,23,0,1,right.png,,p,left,5ec00f62cf12be40ea6fe344,2021-10-27_11h21.49.245,arrow_simon_punish,2021.1.2,Win32,60.08532116,,,,,,,,,,,,,,,,,,,,,,,,,,,,,,,,,,,,,,
,,,p,1,0.7019,6,0,24,0,1,right.png,,p,left,5ec00f62cf12be40ea6fe344,2021-10-27_11h21.49.245,arrow_simon_punish,2021.1.2,Win32,60.08532116,,,,,,,,,,,,,,,,,,,,,,,,,,,,,,,,,,,,,,
,,,w,1,1.1683,6,1,25,2,1,left.png,,w,left,5ec00f62cf12be40ea6fe344,2021-10-27_11h21.49.245,arrow_simon_punish,2021.1.2,Win32,60.08532116,,,,,,,,,,,,,,,,,,,,,,,,,,,,,,,,,,,,,,
,,,w,1,1.1789,6,2,26,3,1,left.png,,w,right,5ec00f62cf12be40ea6fe344,2021-10-27_11h21.49.245,arrow_simon_punish,2021.1.2,Win32,60.08532116,,,,,,,,,,,,,,,,,,,,,,,,,,,,,,,,,,,,,,
,,,p,1,1.1197,6,3,27,1,1,right.png,,p,right,5ec00f62cf12be40ea6fe344,2021-10-27_11h21.49.245,arrow_simon_punish,2021.1.2,Win32,60.08532116,,,,,,,,,,,,,,,,,,,,,,,,,,,,,,,,,,,,,,
,,,w,1,1.1459,7,0,28,3,1,left.png,,w,right,5ec00f62cf12be40ea6fe344,2021-10-27_11h21.49.245,arrow_simon_punish,2021.1.2,Win32,60.08532116,,,,,,,,,,,,,,,,,,,,,,,,,,,,,,,,,,,,,,
,,,w,1,1.0336,7,1,29,2,1,left.png,,w,left,5ec00f62cf12be40ea6fe344,2021-10-27_11h21.49.245,arrow_simon_punish,2021.1.2,Win32,60.08532116,,,,,,,,,,,,,,,,,,,,,,,,,,,,,,,,,,,,,,
,,,p,1,1.3854,7,2,30,0,1,right.png,,p,left,5ec00f62cf12be40ea6fe344,2021-10-27_11h21.49.245,arrow_simon_punish,2021.1.2,Win32,60.08532116,,,,,,,,,,,,,,,,,,,,,,,,,,,,,,,,,,,,,,
,,,p,1,0.8368,7,3,31,1,1,right.png,,p,right,5ec00f62cf12be40ea6fe344,2021-10-27_11h21.49.245,arrow_simon_punish,2021.1.2,Win32,60.08532116,,,,,,,,,,,,,,,,,,,,,,,,,,,,,,,,,,,,,,
,,,p,1,0.5421,8,0,32,1,1,right.png,,p,right,5ec00f62cf12be40ea6fe344,2021-10-27_11h21.49.245,arrow_simon_punish,2021.1.2,Win32,60.08532116,,,,,,,,,,,,,,,,,,,,,,,,,,,,,,,,,,,,,,
,,,w,1,0.5196,8,1,33,2,1,left.png,,w,left,5ec00f62cf12be40ea6fe344,2021-10-27_11h21.49.245,arrow_simon_punish,2021.1.2,Win32,60.08532116,,,,,,,,,,,,,,,,,,,,,,,,,,,,,,,,,,,,,,
,,,w,1,0.9227,8,2,34,3,1,left.png,,w,right,5ec00f62cf12be40ea6fe344,2021-10-27_11h21.49.245,arrow_simon_punish,2021.1.2,Win32,60.08532116,,,,,,,,,,,,,,,,,,,,,,,,,,,,,,,,,,,,,,
,,,p,1,0.8436,8,3,35,0,1,right.png,,p,left,5ec00f62cf12be40ea6fe344,2021-10-27_11h21.49.245,arrow_simon_punish,2021.1.2,Win32,60.08532116,,,,,,,,,,,,,,,,,,,,,,,,,,,,,,,,,,,,,,
,,,w,1,1.3675,9,0,36,2,1,left.png,,w,left,5ec00f62cf12be40ea6fe344,2021-10-27_11h21.49.245,arrow_simon_punish,2021.1.2,Win32,60.08532116,,,,,,,,,,,,,,,,,,,,,,,,,,,,,,,,,,,,,,
,,,p,1,0.8717,9,1,37,0,1,right.png,,p,left,5ec00f62cf12be40ea6fe344,2021-10-27_11h21.49.245,arrow_simon_punish,2021.1.2,Win32,60.08532116,,,,,,,,,,,,,,,,,,,,,,,,,,,,,,,,,,,,,,
,,,w,1,1.3001,9,2,38,3,1,left.png,,w,right,5ec00f62cf12be40ea6fe344,2021-10-27_11h21.49.245,arrow_simon_punish,2021.1.2,Win32,60.08532116,,,,,,,,,,,,,,,,,,,,,,,,,,,,,,,,,,,,,,
,,,p,1,1.4006,9,3,39,1,1,right.png,,p,right,5ec00f62cf12be40ea6fe344,2021-10-27_11h21.49.245,arrow_simon_punish,2021.1.2,Win32,60.08532116,,,,,,,,,,,,,,,,,,,,,,,,,,,,,,,,,,,,,,
,,,,,,,,,,,,,,,5ec00f62cf12be40ea6fe344,2021-10-27_11h21.49.245,arrow_simon_punish,2021.1.2,Win32,60.08532116,space,0,53.8527,w,5.8236,0,0,0,0,1,,,,,,,,,,,,,,,,,,,,,,,,,,,,
,,,,,,,,,,,,,,,5ec00f62cf12be40ea6fe344,2021-10-27_11h21.49.245,arrow_simon_punish,2021.1.2,Win32,60.08532116,,,,w,2.7341,1,0,1,0,1,,,,,,,,,,,,,,,,,,,,,,,,,,,,
,,,,,,,,,,,,,,,5ec00f62cf12be40ea6fe344,2021-10-27_11h21.49.245,arrow_simon_punish,2021.1.2,Win32,60.08532116,,,,w,1.7501,2,0,2,0,1,,,,,,,,,,,,,,,,,,,,,,,,,,,,
,,,,,,,,,,,,,,,5ec00f62cf12be40ea6fe344,2021-10-27_11h21.49.245,arrow_simon_punish,2021.1.2,Win32,60.08532116,,,,w,2.7175,3,0,3,0,1,,,,,,,,,,,,,,,,,,,,,,,,,,,,
,,,,,,,,,,,,,,,5ec00f62cf12be40ea6fe344,2021-10-27_11h21.49.245,arrow_simon_punish,2021.1.2,Win32,60.08532116,,,,w,2.3174,4,0,4,0,1,,,,,,,,,,,,,,,,,,,,,,,,,,,,
,,,,,,,,,,,,,,,5ec00f62cf12be40ea6fe344,2021-10-27_11h21.49.245,arrow_simon_punish,2021.1.2,Win32,60.08532116,,,,w,2.2507,5,0,5,0,1,,,,,,,,,,,,,,,,,,,,,,,,,,,,
,,,,,,,,,,,,,,,5ec00f62cf12be40ea6fe344,2021-10-27_11h21.49.245,arrow_simon_punish,2021.1.2,Win32,60.08532116,,,,w,2.4336,6,0,6,0,1,,,,,,,,,,,,,,,,,,,,,,,,,,,,
,,,,,,,,,,,,,,,5ec00f62cf12be40ea6fe344,2021-10-27_11h21.49.245,arrow_simon_punish,2021.1.2,Win32,60.08532116,,,,w,2.3333,7,0,7,0,1,,,,,,,,,,,,,,,,,,,,,,,,,,,,
,,,,,,,,,,,,,,,5ec00f62cf12be40ea6fe344,2021-10-27_11h21.49.245,arrow_simon_punish,2021.1.2,Win32,60.08532116,,,,p,2.2672,8,0,8,0,1,,,,,,,,,,,,,,,,,,,,,,,,,,,,
,,,,,,,,,,,,,,,5ec00f62cf12be40ea6fe344,2021-10-27_11h21.49.245,arrow_simon_punish,2021.1.2,Win32,60.08532116,,,,p,2.4175,9,0,9,0,1,,,,,,,,,,,,,,,,,,,,,,,,,,,,
,,,,,,,,,,,,,,,5ec00f62cf12be40ea6fe344,2021-10-27_11h21.49.245,arrow_simon_punish,2021.1.2,Win32,60.08532116,,,,p,2.2678,10,0,10,0,1,,,,,,,,,,,,,,,,,,,,,,,,,,,,
,,,,,,,,,,,,,,,5ec00f62cf12be40ea6fe344,2021-10-27_11h21.49.245,arrow_simon_punish,2021.1.2,Win32,60.08532116,,,,p,2.2342,11,0,11,0,1,,,,,,,,,,,,,,,,,,,,,,,,,,,,
,,,,,,,,,,,,,,,5ec00f62cf12be40ea6fe344,2021-10-27_11h21.49.245,arrow_simon_punish,2021.1.2,Win32,60.08532116,,,,p,2.4009,12,0,12,0,1,,,,,,,,,,,,,,,,,,,,,,,,,,,,
,,,,,,,,,,,,,,,5ec00f62cf12be40ea6fe344,2021-10-27_11h21.49.245,arrow_simon_punish,2021.1.2,Win32,60.08532116,,,,p,2.4171,13,0,13,0,1,,,,,,,,,,,,,,,,,,,,,,,,,,,,
,,,,,,,,,,,,,,,5ec00f62cf12be40ea6fe344,2021-10-27_11h21.49.245,arrow_simon_punish,2021.1.2,Win32,60.08532116,,,,p,2.5339,14,0,14,0,1,,,,,,,,,,,,,,,,,,,,,,,,,,,,
,,,,,,,,,,,,,,,5ec00f62cf12be40ea6fe344,2021-10-27_11h21.49.245,arrow_simon_punish,2021.1.2,Win32,60.08532116,,,,p,2.4007,15,0,15,0,1,,,,,,,,,,,,,,,,,,,,,,,,,,,,
,,,,,,,,,,,,,,,5ec00f62cf12be40ea6fe344,2021-10-27_11h21.49.245,arrow_simon_punish,2021.1.2,Win32,60.08532116,,,,p,2.3831,16,0,16,0,1,,,,,,,,,,,,,,,,,,,,,,,,,,,,
,,,,,,,,,,,,,,,5ec00f62cf12be40ea6fe344,2021-10-27_11h21.49.245,arrow_simon_punish,2021.1.2,Win32,60.08532116,,,,p,2.4342,17,0,17,0,1,,,,,,,,,,,,,,,,,,,,,,,,,,,,
,,,,,,,,,,,,,,,5ec00f62cf12be40ea6fe344,2021-10-27_11h21.49.245,arrow_simon_punish,2021.1.2,Win32,60.08532116,,,,p,2.4671,18,0,18,0,1,,,,,,,,,,,,,,,,,,,,,,,,,,,,
,,,,,,,,,,,,,,,5ec00f62cf12be40ea6fe344,2021-10-27_11h21.49.245,arrow_simon_punish,2021.1.2,Win32,60.08532116,,,,p,2.4176,19,0,19,0,1,,,,,,,,,,,,,,,,,,,,,,,,,,,,
,,,,,,,,,,,,,,,5ec00f62cf12be40ea6fe344,2021-10-27_11h21.49.245,arrow_simon_punish,2021.1.2,Win32,60.08532116,,,,p,2.3905,20,0,20,0,1,,,,,,,,,,,,,,,,,,,,,,,,,,,,
,,,,,,,,,,,,,,,5ec00f62cf12be40ea6fe344,2021-10-27_11h21.49.245,arrow_simon_punish,2021.1.2,Win32,60.08532116,,,,p,2.4,21,0,21,0,1,,,,,,,,,,,,,,,,,,,,,,,,,,,,
,,,,,,,,,,,,,,,5ec00f62cf12be40ea6fe344,2021-10-27_11h21.49.245,arrow_simon_punish,2021.1.2,Win32,60.08532116,,,,p,2.4736,22,0,22,0,1,,,,,,,,,,,,,,,,,,,,,,,,,,,,
,,,,,,,,,,,,,,,5ec00f62cf12be40ea6fe344,2021-10-27_11h21.49.245,arrow_simon_punish,2021.1.2,Win32,60.08532116,,,,p,2.5336,23,0,23,0,1,,,,,,,,,,,,,,,,,,,,,,,,,,,,
,,,,,,,,,,,,,,,5ec00f62cf12be40ea6fe344,2021-10-27_11h21.49.245,arrow_simon_punish,2021.1.2,Win32,60.08532116,,,,p,2.52,24,0,24,0,1,,,,,,,,,,,,,,,,,,,,,,,,,,,,
,,,,,,,,,,,,,,,5ec00f62cf12be40ea6fe344,2021-10-27_11h21.49.245,arrow_simon_punish,2021.1.2,Win32,60.08532116,,,,p,2.6015,25,0,25,0,1,,,,,,,,,,,,,,,,,,,,,,,,,,,,
,,,,,,,,,,,,,,,5ec00f62cf12be40ea6fe344,2021-10-27_11h21.49.245,arrow_simon_punish,2021.1.2,Win32,60.08532116,,,,p,2.5089,26,0,26,0,1,,,,,,,,,,,,,,,,,,,,,,,,,,,,
,,,,,,,,,,,,,,,5ec00f62cf12be40ea6fe344,2021-10-27_11h21.49.245,arrow_simon_punish,2021.1.2,Win32,60.08532116,,,,p,2.4193,27,0,27,0,1,,,,,,,,,,,,,,,,,,,,,,,,,,,,
,,,,,,,,,,,,,,,5ec00f62cf12be40ea6fe344,2021-10-27_11h21.49.245,arrow_simon_punish,2021.1.2,Win32,60.08532116,,,,p,2.4661,28,0,28,0,1,,,,,,,,,,,,,,,,,,,,,,,,,,,,
,,,,,,,,,,,,,,,5ec00f62cf12be40ea6fe344,2021-10-27_11h21.49.245,arrow_simon_punish,2021.1.2,Win32,60.08532116,,,,p,2.3562,29,0,29,0,1,,,,,,,,,,,,,,,,,,,,,,,,,,,,
,,,,,,,,,,,,,,,5ec00f62cf12be40ea6fe344,2021-10-27_11h21.49.245,arrow_simon_punish,2021.1.2,Win32,60.08532116,,,,p,2.5873,30,0,30,0,1,,,,,,,,,,,,,,,,,,,,,,,,,,,,
,,,,,,,,,,,,,,,5ec00f62cf12be40ea6fe344,2021-10-27_11h21.49.245,arrow_simon_punish,2021.1.2,Win32,60.08532116,,,,p,2.5356,31,0,31,0,1,,,,,,,,,,,,,,,,,,,,,,,,,,,,
,,,,,,,,,,,,,,,5ec00f62cf12be40ea6fe344,2021-10-27_11h21.49.245,arrow_simon_punish,2021.1.2,Win32,60.08532116,,,,p,2.5832,32,0,32,0,1,,,,,,,,,,,,,,,,,,,,,,,,,,,,
,,,,,,,,,,,,,,,5ec00f62cf12be40ea6fe344,2021-10-27_11h21.49.245,arrow_simon_punish,2021.1.2,Win32,60.08532116,,,,p,2.4545,33,0,33,0,1,,,,,,,,,,,,,,,,,,,,,,,,,,,,
,,,,,,,,,,,,,,,5ec00f62cf12be40ea6fe344,2021-10-27_11h21.49.245,arrow_simon_punish,2021.1.2,Win32,60.08532116,,,,p,2.376,34,0,34,0,1,,,,,,,,,,,,,,,,,,,,,,,,,,,,
,,,,,,,,,,,,,,,5ec00f62cf12be40ea6fe344,2021-10-27_11h21.49.245,arrow_simon_punish,2021.1.2,Win32,60.08532116,,,,p,2.3832,35,0,35,0,1,,,,,,,,,,,,,,,,,,,,,,,,,,,,
,,,,,,,,,,,,,,,5ec00f62cf12be40ea6fe344,2021-10-27_11h21.49.245,arrow_simon_punish,2021.1.2,Win32,60.08532116,,,,p,2.3977,36,0,36,0,1,,,,,,,,,,,,,,,,,,,,,,,,,,,,
,,,,,,,,,,,,,,,5ec00f62cf12be40ea6fe344,2021-10-27_11h21.49.245,arrow_simon_punish,2021.1.2,Win32,60.08532116,,,,p,2.4161,37,0,37,0,1,,,,,,,,,,,,,,,,,,,,,,,,,,,,
,,,,,,,,,,,,,,,5ec00f62cf12be40ea6fe344,2021-10-27_11h21.49.245,arrow_simon_punish,2021.1.2,Win32,60.08532116,,,,p,2.5165,38,0,38,0,1,,,,,,,,,,,,,,,,,,,,,,,,,,,,
,,,,,,,,,,,,,,,5ec00f62cf12be40ea6fe344,2021-10-27_11h21.49.245,arrow_simon_punish,2021.1.2,Win32,60.08532116,,,,p,2.6702,39,0,39,0,1,,,,,,,,,,,,,,,,,,,,,,,,,,,,
,,,,,,,,,,,,,,,5ec00f62cf12be40ea6fe344,2021-10-27_11h21.49.245,arrow_simon_punish,2021.1.2,Win32,60.08532116,,,,p,2.4593,40,0,40,0,1,,,,,,,,,,,,,,,,,,,,,,,,,,,,
,,,,,,,,,,,,,,,5ec00f62cf12be40ea6fe344,2021-10-27_11h21.49.245,arrow_simon_punish,2021.1.2,Win32,60.08532116,,,,p,2.4563,41,0,41,0,1,,,,,,,,,,,,,,,,,,,,,,,,,,,,
,,,,,,,,,,,,,,,5ec00f62cf12be40ea6fe344,2021-10-27_11h21.49.245,arrow_simon_punish,2021.1.2,Win32,60.08532116,,,,p,2.291,42,0,42,0,1,,,,,,,,,,,,,,,,,,,,,,,,,,,,
,,,,,,,,,,,,,,,5ec00f62cf12be40ea6fe344,2021-10-27_11h21.49.245,arrow_simon_punish,2021.1.2,Win32,60.08532116,,,,p,2.4398,43,0,43,0,1,,,,,,,,,,,,,,,,,,,,,,,,,,,,
,,,,,,,,,,,,,,,5ec00f62cf12be40ea6fe344,2021-10-27_11h21.49.245,arrow_simon_punish,2021.1.2,Win32,60.08532116,,,,p,2.4075,44,0,44,0,1,,,,,,,,,,,,,,,,,,,,,,,,,,,,
,,,,,,,,,,,,,,,5ec00f62cf12be40ea6fe344,2021-10-27_11h21.49.245,arrow_simon_punish,2021.1.2,Win32,60.08532116,,,,p,2.4245,45,0,45,0,1,,,,,,,,,,,,,,,,,,,,,,,,,,,,
,,,,,,,,,,,,,,,5ec00f62cf12be40ea6fe344,2021-10-27_11h21.49.245,arrow_simon_punish,2021.1.2,Win32,60.08532116,,,,p,2.5395,46,0,46,0,1,,,,,,,,,,,,,,,,,,,,,,,,,,,,
,,,,,,,,,,,,,,,5ec00f62cf12be40ea6fe344,2021-10-27_11h21.49.245,arrow_simon_punish,2021.1.2,Win32,60.08532116,,,,p,2.4547,47,0,47,0,1,,,,,,,,,,,,,,,,,,,,,,,,,,,,
,,,,,,,,,,,,,,,5ec00f62cf12be40ea6fe344,2021-10-27_11h21.49.245,arrow_simon_punish,2021.1.2,Win32,60.08532116,,,,p,2.4581,48,0,48,0,1,,,,,,,,,,,,,,,,,,,,,,,,,,,,
,,,,,,,,,,,,,,,5ec00f62cf12be40ea6fe344,2021-10-27_11h21.49.245,arrow_simon_punish,2021.1.2,Win32,60.08532116,,,,p,2.457,49,0,49,0,1,,,,,,,,,,,,,,,,,,,,,,,,,,,,
,,,,,,,,,,,,,,,5ec00f62cf12be40ea6fe344,2021-10-27_11h21.49.245,arrow_simon_punish,2021.1.2,Win32,60.08532116,,,,p,2.433,50,0,50,0,1,,,,,,,,,,,,,,,,,,,,,,,,,,,,
,,,,,,,,,,,,,,,5ec00f62cf12be40ea6fe344,2021-10-27_11h21.49.245,arrow_simon_punish,2021.1.2,Win32,60.08532116,,,,p,2.4997,51,0,51,0,1,,,,,,,,,,,,,,,,,,,,,,,,,,,,
,,,,,,,,,,,,,,,5ec00f62cf12be40ea6fe344,2021-10-27_11h21.49.245,arrow_simon_punish,2021.1.2,Win32,60.08532116,,,,p,2.6,52,0,52,0,1,,,,,,,,,,,,,,,,,,,,,,,,,,,,
,,,,,,,,,,,,,,,5ec00f62cf12be40ea6fe344,2021-10-27_11h21.49.245,arrow_simon_punish,2021.1.2,Win32,60.08532116,,,,p,2.5908,53,0,53,0,1,,,,,,,,,,,,,,,,,,,,,,,,,,,,
,,,,,,,,,,,,,,,5ec00f62cf12be40ea6fe344,2021-10-27_11h21.49.245,arrow_simon_punish,2021.1.2,Win32,60.08532116,,,,p,2.3161,54,0,54,0,1,,,,,,,,,,,,,,,,,,,,,,,,,,,,
,,,,,,,,,,,,,,,5ec00f62cf12be40ea6fe344,2021-10-27_11h21.49.245,arrow_simon_punish,2021.1.2,Win32,60.08532116,,,,p,2.4222,55,0,55,0,1,,,,,,,,,,,,,,,,,,,,,,,,,,,,
,,,,,,,,,,,,,,,5ec00f62cf12be40ea6fe344,2021-10-27_11h21.49.245,arrow_simon_punish,2021.1.2,Win32,60.08532116,,,,p,2.7005,56,0,56,0,1,,,,,,,,,,,,,,,,,,,,,,,,,,,,
,,,,,,,,,,,,,,,5ec00f62cf12be40ea6fe344,2021-10-27_11h21.49.245,arrow_simon_punish,2021.1.2,Win32,60.08532116,,,,p,2.8171,57,0,57,0,1,,,,,,,,,,,,,,,,,,,,,,,,,,,,
,,,,,,,,,,,,,,,5ec00f62cf12be40ea6fe344,2021-10-27_11h21.49.245,arrow_simon_punish,2021.1.2,Win32,60.08532116,,,,p,2.5331,58,0,58,0,1,,,,,,,,,,,,,,,,,,,,,,,,,,,,
,,,,,,,,,,,,,,,5ec00f62cf12be40ea6fe344,2021-10-27_11h21.49.245,arrow_simon_punish,2021.1.2,Win32,60.08532116,,,,p,2.4659,59,0,59,0,1,,,,,,,,,,,,,,,,,,,,,,,,,,,,
,,,,,,,,,,,left.png,,w,right,5ec00f62cf12be40ea6fe344,2021-10-27_11h21.49.245,arrow_simon_punish,2021.1.2,Win32,60.08532116,,,,,,,,,,,space,0,142.0052,w,1,2.0041,2.339169097,1,1,0,0,0,3,1,,,,,,,,,,,,,,
,,,,,,,,,,,left.png,,w,left,5ec00f62cf12be40ea6fe344,2021-10-27_11h21.49.245,arrow_simon_punish,2021.1.2,Win32,60.08532116,,,,,,,,,,,,,,p,0,1.5422,1.89279182,1,1,0,1,1,2,1,,,,,,,,,,,,,,
,,,,,,,,,,,left.png,,w,right,5ec00f62cf12be40ea6fe344,2021-10-27_11h21.49.245,arrow_simon_punish,2021.1.2,Win32,60.08532116,,,,,,,,,,,,,,w,1,1.8686,1.909632983,1,1,0,2,2,3,1,,,,,,,,,,,,,,
,,,,,,,,,,,left.png,,w,left,5ec00f62cf12be40ea6fe344,2021-10-27_11h21.49.245,arrow_simon_punish,2021.1.2,Win32,60.08532116,,,,,,,,,,,,,,w,1,1.228,1.827201804,1,1,0,3,3,2,1,,,,,,,,,,,,,,
,,,,,,,,,,,left.png,,w,left,5ec00f62cf12be40ea6fe344,2021-10-27_11h21.49.245,arrow_simon_punish,2021.1.2,Win32,60.08532116,,,,,,,,,,,,,,w,1,1.9107,2.434262341,1,1,1,0,4,2,1,,,,,,,,,,,,,,
,,,,,,,,,,,left.png,,w,right,5ec00f62cf12be40ea6fe344,2021-10-27_11h21.49.245,arrow_simon_punish,2021.1.2,Win32,60.08532116,,,,,,,,,,,,,,p,0,1.9304,2.401089621,1,1,1,1,5,3,1,,,,,,,,,,,,,,
,,,,,,,,,,,left.png,,w,right,5ec00f62cf12be40ea6fe344,2021-10-27_11h21.49.245,arrow_simon_punish,2021.1.2,Win32,60.08532116,,,,,,,,,,,,,,p,0,2.1354,1.89378989,1,1,1,2,6,3,1,,,,,,,,,,,,,,
,,,,,,,,,,,right.png,,p,left,5ec00f62cf12be40ea6fe344,2021-10-27_11h21.49.245,arrow_simon_punish,2021.1.2,Win32,60.08532116,,,,,,,,,,,,,,p,1,1.1941,1.713892347,1,1,1,3,7,0,1,,,,,,,,,,,,,,
,,,,,,,,,,,right.png,,p,right,5ec00f62cf12be40ea6fe344,2021-10-27_11h21.49.245,arrow_simon_punish,2021.1.2,Win32,60.08532116,,,,,,,,,,,,,,p,1,1.7723,2.365187569,1,1,2,0,8,1,1,,,,,,,,,,,,,,
,,,,,,,,,,,right.png,,p,right,5ec00f62cf12be40ea6fe344,2021-10-27_11h21.49.245,arrow_simon_punish,2021.1.2,Win32,60.08532116,,,,,,,,,,,,,,p,1,1.6779,2.305736505,1,1,2,1,9,1,1,,,,,,,,,,,,,,
,,,,,,,,,,,right.png,,p,left,5ec00f62cf12be40ea6fe344,2021-10-27_11h21.49.245,arrow_simon_punish,2021.1.2,Win32,60.08532116,,,,,,,,,,,,,,p,1,1.4102,2.133506557,0,1,2,2,10,0,1,,,,,,,,,,,,,,
,,,,,,,,,,,left.png,,w,right,5ec00f62cf12be40ea6fe344,2021-10-27_11h21.49.245,arrow_simon_punish,2021.1.2,Win32,60.08532116,,,,,,,,,,,,,,w,1,1.1733,1.673061784,1,1,2,3,11,3,1,,,,,,,,,,,,,,
,,,,,,,,,,,right.png,,p,right,5ec00f62cf12be40ea6fe344,2021-10-27_11h21.49.245,arrow_simon_punish,2021.1.2,Win32,60.08532116,,,,,,,,,,,,,,p,1,1.2803,1.785659396,1,1,3,0,12,1,1,,,,,,,,,,,,,,
,,,,,,,,,,,right.png,,p,left,5ec00f62cf12be40ea6fe344,2021-10-27_11h21.49.245,arrow_simon_punish,2021.1.2,Win32,60.08532116,,,,,,,,,,,,,,p,1,1.652,1.988118617,1,1,3,1,13,0,1,,,,,,,,,,,,,,
,,,,,,,,,,,left.png,,w,right,5ec00f62cf12be40ea6fe344,2021-10-27_11h21.49.245,arrow_simon_punish,2021.1.2,Win32,60.08532116,,,,,,,,,,,,,,w,1,1.5361,1.948995639,0,1,3,2,14,3,1,,,,,,,,,,,,,,
,,,,,,,,,,,right.png,,p,right,5ec00f62cf12be40ea6fe344,2021-10-27_11h21.49.245,arrow_simon_punish,2021.1.2,Win32,60.08532116,,,,,,,,,,,,,,p,1,1.3225,1.975074776,1,1,3,3,15,1,1,,,,,,,,,,,,,,
,,,,,,,,,,,right.png,,p,left,5ec00f62cf12be40ea6fe344,2021-10-27_11h21.49.245,arrow_simon_punish,2021.1.2,Win32,60.08532116,,,,,,,,,,,,,,w,0,1.8021,2.496366893,1,1,4,0,16,0,1,,,,,,,,,,,,,,
,,,,,,,,,,,left.png,,w,left,5ec00f62cf12be40ea6fe344,2021-10-27_11h21.49.245,arrow_simon_punish,2021.1.2,Win32,60.08532116,,,,,,,,,,,,,,w,1,1.7712,1.916766346,1,1,4,1,17,2,1,,,,,,,,,,,,,,
,,,,,,,,,,,right.png,,p,right,5ec00f62cf12be40ea6fe344,2021-10-27_11h21.49.245,arrow_simon_punish,2021.1.2,Win32,60.08532116,,,,,,,,,,,,,,p,1,1.2278,1.888564948,1,1,4,2,18,1,1,,,,,,,,,,,,,,
,,,,,,,,,,,right.png,,p,left,5ec00f62cf12be40ea6fe344,2021-10-27_11h21.49.245,arrow_simon_punish,2021.1.2,Win32,60.08532116,,,,,,,,,,,,,,p,1,1.5234,1.708731333,0,1,4,3,19,0,1,,,,,,,,,,,,,,
,,,,,,,,,,,right.png,,p,left,5ec00f62cf12be40ea6fe344,2021-10-27_11h21.49.245,arrow_simon_punish,2021.1.2,Win32,60.08532116,,,,,,,,,,,,,,p,1,1.7867,2.106460871,1,1,5,0,20,0,1,,,,,,,,,,,,,,
,,,,,,,,,,,right.png,,p,right,5ec00f62cf12be40ea6fe344,2021-10-27_11h21.49.245,arrow_simon_punish,2021.1.2,Win32,60.08532116,,,,,,,,,,,,,,p,1,1.7419,1.591501588,1,1,5,1,21,1,1,,,,,,,,,,,,,,
,,,,,,,,,,,left.png,,w,right,5ec00f62cf12be40ea6fe344,2021-10-27_11h21.49.245,arrow_simon_punish,2021.1.2,Win32,60.08532116,,,,,,,,,,,,,,w,1,1.7201,1.945517358,1,1,5,2,22,3,1,,,,,,,,,,,,,,
,,,,,,,,,,,left.png,,w,left,5ec00f62cf12be40ea6fe344,2021-10-27_11h21.49.245,arrow_simon_punish,2021.1.2,Win32,60.08532116,,,,,,,,,,,,,,w,1,1.7198,1.580622972,1,1,5,3,23,2,1,,,,,,,,,,,,,,
,,,,,,,,,,,right.png,,p,right,5ec00f62cf12be40ea6fe344,2021-10-27_11h21.49.245,arrow_simon_punish,2021.1.2,Win32,60.08532116,,,,,,,,,,,,,,p,1,1.4017,1.792984663,0,1,6,0,24,1,1,,,,,,,,,,,,,,
,,,,,,,,,,,right.png,,p,right,5ec00f62cf12be40ea6fe344,2021-10-27_11h21.49.245,arrow_simon_punish,2021.1.2,Win32,60.08532116,,,,,,,,,,,,,,p,1,1.8844,2.448221224,1,1,6,1,25,1,1,,,,,,,,,,,,,,
,,,,,,,,,,,right.png,,p,left,5ec00f62cf12be40ea6fe344,2021-10-27_11h21.49.245,arrow_simon_punish,2021.1.2,Win32,60.08532116,,,,,,,,,,,,,,p,1,1.6584,2.359227276,1,1,6,2,26,0,1,,,,,,,,,,,,,,
,,,,,,,,,,,right.png,,p,left,5ec00f62cf12be40ea6fe344,2021-10-27_11h21.49.245,arrow_simon_punish,2021.1.2,Win32,60.08532116,,,,,,,,,,,,,,p,1,1.2426,1.524772883,1,1,6,3,27,0,1,,,,,,,,,,,,,,
,,,,,,,,,,,right.png,,p,left,5ec00f62cf12be40ea6fe344,2021-10-27_11h21.49.245,arrow_simon_punish,2021.1.2,Win32,60.08532116,,,,,,,,,,,,,,p,1,1.6722,1.662582226,1,1,7,0,28,0,1,,,,,,,,,,,,,,
,,,,,,,,,,,right.png,,p,left,5ec00f62cf12be40ea6fe344,2021-10-27_11h21.49.245,arrow_simon_punish,2021.1.2,Win32,60.08532116,,,,,,,,,,,,,,p,1,1.1861,1.610567907,1,1,7,1,29,0,1,,,,,,,,,,,,,,
,,,,,,,,,,,left.png,,w,left,5ec00f62cf12be40ea6fe344,2021-10-27_11h21.49.245,arrow_simon_punish,2021.1.2,Win32,60.08532116,,,,,,,,,,,,,,w,1,1.4882,2.135889253,0,1,7,2,30,2,1,,,,,,,,,,,,,,
,,,,,,,,,,,right.png,,p,right,5ec00f62cf12be40ea6fe344,2021-10-27_11h21.49.245,arrow_simon_punish,2021.1.2,Win32,60.08532116,,,,,,,,,,,,,,p,1,1.6763,2.330073126,1,1,7,3,31,1,1,,,,,,,,,,,,,,
,,,,,,,,,,,left.png,,w,right,5ec00f62cf12be40ea6fe344,2021-10-27_11h21.49.245,arrow_simon_punish,2021.1.2,Win32,60.08532116,,,,,,,,,,,,,,w,1,1.1699,1.588060537,1,1,8,0,32,3,1,,,,,,,,,,,,,,
,,,,,,,,,,,left.png,,w,left,5ec00f62cf12be40ea6fe344,2021-10-27_11h21.49.245,arrow_simon_punish,2021.1.2,Win32,60.08532116,,,,,,,,,,,,,,w,1,1.759,2.29023318,1,1,8,1,33,2,1,,,,,,,,,,,,,,
,,,,,,,,,,,right.png,,p,left,5ec00f62cf12be40ea6fe344,2021-10-27_11h21.49.245,arrow_simon_punish,2021.1.2,Win32,60.08532116,,,,,,,,,,,,,,p,1,1.5961,2.037169212,0,1,8,2,34,0,1,,,,,,,,,,,,,,
,,,,,,,,,,,left.png,,w,right,5ec00f62cf12be40ea6fe344,2021-10-27_11h21.49.245,arrow_simon_punish,2021.1.2,Win32,60.08532116,,,,,,,,,,,,,,w,1,1.4529,1.99123696,0,1,8,3,35,3,1,,,,,,,,,,,,,,
,,,,,,,,,,,right.png,,p,left,5ec00f62cf12be40ea6fe344,2021-10-27_11h21.49.245,arrow_simon_punish,2021.1.2,Win32,60.08532116,,,,,,,,,,,,,,p,1,1.4273,2.125782004,0,1,9,0,36,0,1,,,,,,,,,,,,,,
,,,,,,,,,,,right.png,,p,left,5ec00f62cf12be40ea6fe344,2021-10-27_11h21.49.245,arrow_simon_punish,2021.1.2,Win32,60.08532116,,,,,,,,,,,,,,p,1,1.5416,1.991373626,0,1,9,1,37,0,1,,,,,,,,,,,,,,
,,,,,,,,,,,left.png,,w,left,5ec00f62cf12be40ea6fe344,2021-10-27_11h21.49.245,arrow_simon_punish,2021.1.2,Win32,60.08532116,,,,,,,,,,,,,,w,1,1.4573,2.114666208,0,1,9,2,38,2,1,,,,,,,,,,,,,,
,,,,,,,,,,,right.png,,p,right,5ec00f62cf12be40ea6fe344,2021-10-27_11h21.49.245,arrow_simon_punish,2021.1.2,Win32,60.08532116,,,,,,,,,,,,,,p,1,1.27,1.5225998,1,1,9,3,39,1,1,,,,,,,,,,,,,,
,,,,,,,,,,,left.png,,w,right,5ec00f62cf12be40ea6fe344,2021-10-27_11h21.49.245,arrow_simon_punish,2021.1.2,Win32,60.08532116,,,,,,,,,,,,,,w,1,1.5606,1.809988803,0,1,10,0,40,3,1,,,,,,,,,,,,,,
,,,,,,,,,,,left.png,,w,left,5ec00f62cf12be40ea6fe344,2021-10-27_11h21.49.245,arrow_simon_punish,2021.1.2,Win32,60.08532116,,,,,,,,,,,,,,w,1,1.8773,2.461380324,1,1,10,1,41,2,1,,,,,,,,,,,,,,
,,,,,,,,,,,left.png,,w,left,5ec00f62cf12be40ea6fe344,2021-10-27_11h21.49.245,arrow_simon_punish,2021.1.2,Win32,60.08532116,,,,,,,,,,,,,,w,1,1.2849,1.560356431,1,1,10,2,42,2,1,,,,,,,,,,,,,,
,,,,,,,,,,,right.png,,p,left,5ec00f62cf12be40ea6fe344,2021-10-27_11h21.49.245,arrow_simon_punish,2021.1.2,Win32,60.08532116,,,,,,,,,,,,,,p,1,1.3023,1.638905878,1,1,10,3,43,0,1,,,,,,,,,,,,,,
,,,,,,,,,,,right.png,,p,right,5ec00f62cf12be40ea6fe344,2021-10-27_11h21.49.245,arrow_simon_punish,2021.1.2,Win32,60.08532116,,,,,,,,,,,,,,p,1,1.447,1.878111785,0,1,11,0,44,1,1,,,,,,,,,,,,,,
,,,,,,,,,,,left.png,,w,right,5ec00f62cf12be40ea6fe344,2021-10-27_11h21.49.245,arrow_simon_punish,2021.1.2,Win32,60.08532116,,,,,,,,,,,,,,w,1,1.3559,1.805139465,1,1,11,1,45,3,1,,,,,,,,,,,,,,
,,,,,,,,,,,right.png,,p,right,5ec00f62cf12be40ea6fe344,2021-10-27_11h21.49.245,arrow_simon_punish,2021.1.2,Win32,60.08532116,,,,,,,,,,,,,,p,1,1.6051,2.187390828,1,1,11,2,46,1,1,,,,,,,,,,,,,,
,,,,,,,,,,,left.png,,w,left,5ec00f62cf12be40ea6fe344,2021-10-27_11h21.49.245,arrow_simon_punish,2021.1.2,Win32,60.08532116,,,,,,,,,,,,,,w,1,1.4707,2.049606408,0,1,11,3,47,2,1,,,,,,,,,,,,,,
,,,,,,,,,,,right.png,,p,left,5ec00f62cf12be40ea6fe344,2021-10-27_11h21.49.245,arrow_simon_punish,2021.1.2,Win32,60.08532116,,,,,,,,,,,,,,p,1,1.3724,1.846543439,1,1,12,0,48,0,1,,,,,,,,,,,,,,
,,,,,,,,,,,left.png,,w,right,5ec00f62cf12be40ea6fe344,2021-10-27_11h21.49.245,arrow_simon_punish,2021.1.2,Win32,60.08532116,,,,,,,,,,,,,,w,1,1.2882,1.800889825,1,1,12,1,49,3,1,,,,,,,,,,,,,,
,,,,,,,,,,,left.png,,w,left,5ec00f62cf12be40ea6fe344,2021-10-27_11h21.49.245,arrow_simon_punish,2021.1.2,Win32,60.08532116,,,,,,,,,,,,,,w,1,1.5776,2.246504541,0,1,12,2,50,2,1,,,,,,,,,,,,,,
,,,,,,,,,,,right.png,,p,right,5ec00f62cf12be40ea6fe344,2021-10-27_11h21.49.245,arrow_simon_punish,2021.1.2,Win32,60.08532116,,,,,,,,,,,,,,p,1,1.3716,1.963470797,1,1,12,3,51,1,1,,,,,,,,,,,,,,
,,,,,,,,,,,right.png,,p,right,5ec00f62cf12be40ea6fe344,2021-10-27_11h21.49.245,arrow_simon_punish,2021.1.2,Win32,60.08532116,,,,,,,,,,,,,,p,1,1.4303,1.90543307,0,1,13,0,52,1,1,,,,,,,,,,,,,,
,,,,,,,,,,,right.png,,p,right,5ec00f62cf12be40ea6fe344,2021-10-27_11h21.49.245,arrow_simon_punish,2021.1.2,Win32,60.08532116,,,,,,,,,,,,,,p,1,1.619,1.906186185,1,1,13,1,53,1,1,,,,,,,,,,,,,,
,,,,,,,,,,,left.png,,w,right,5ec00f62cf12be40ea6fe344,2021-10-27_11h21.49.245,arrow_simon_punish,2021.1.2,Win32,60.08532116,,,,,,,,,,,,,,p,0,1.1729,1.895275169,1,1,13,2,54,3,1,,,,,,,,,,,,,,
,,,,,,,,,,,left.png,,w,left,5ec00f62cf12be40ea6fe344,2021-10-27_11h21.49.245,arrow_simon_punish,2021.1.2,Win32,60.08532116,,,,,,,,,,,,,,w,1,1.7683,2.399404291,1,1,13,3,55,2,1,,,,,,,,,,,,,,
,,,,,,,,,,,left.png,,w,right,5ec00f62cf12be40ea6fe344,2021-10-27_11h21.49.245,arrow_simon_punish,2021.1.2,Win32,60.08532116,,,,,,,,,,,,,,w,1,1.4692,1.918781917,0,1,14,0,56,3,1,,,,,,,,,,,,,,
,,,,,,,,,,,left.png,,w,right,5ec00f62cf12be40ea6fe344,2021-10-27_11h21.49.245,arrow_simon_punish,2021.1.2,Win32,60.08532116,,,,,,,,,,,,,,w,1,1.6596,2.145308618,1,1,14,1,57,3,1,,,,,,,,,,,,,,
,,,,,,,,,,,left.png,,w,left,5ec00f62cf12be40ea6fe344,2021-10-27_11h21.49.245,arrow_simon_punish,2021.1.2,Win32,60.08532116,,,,,,,,,,,,,,w,1,1.804,2.458011906,1,1,14,2,58,2,1,,,,,,,,,,,,,,
,,,,,,,,,,,left.png,,w,left,5ec00f62cf12be40ea6fe344,2021-10-27_11h21.49.245,arrow_simon_punish,2021.1.2,Win32,60.08532116,,,,,,,,,,,,,,w,1,1.2156,1.542572853,1,1,14,3,59,2,1,,,,,,,,,,,,,,
,,,,,,,,,,,,,,,5ec00f62cf12be40ea6fe344,2021-10-27_11h21.49.245,arrow_simon_punish,2021.1.2,Win32,60.08532116,,,,,,,,,,,,,,,,,,,,,,,,,space,117.6783,2,0,0,0,0,1,1,,,,,
,,,,,,,,,,,left.png,,w,right,5ec00f62cf12be40ea6fe344,2021-10-27_11h21.49.245,arrow_simon_punish,2021.1.2,Win32,60.08532116,,,,,,,,,,,,,,w,1,1.7193,2.171978256,1,5,0,0,0,3,1,,,,,,,,,,,,,,
,,,,,,,,,,,left.png,,w,left,5ec00f62cf12be40ea6fe344,2021-10-27_11h21.49.245,arrow_simon_punish,2021.1.2,Win32,60.08532116,,,,,,,,,,,,,,w,1,1.737,2.45148886,1,5,0,1,1,2,1,,,,,,,,,,,,,,
,,,,,,,,,,,left.png,,w,right,5ec00f62cf12be40ea6fe344,2021-10-27_11h21.49.245,arrow_simon_punish,2021.1.2,Win32,60.08532116,,,,,,,,,,,,,,w,1,1.4917,2.046875509,0,5,0,2,2,3,1,,,,,,,,,,,,,,
,,,,,,,,,,,right.png,,p,right,5ec00f62cf12be40ea6fe344,2021-10-27_11h21.49.245,arrow_simon_punish,2021.1.2,Win32,60.08532116,,,,,,,,,,,,,,p,1,1.0808,1.531195054,1,5,0,3,3,1,1,,,,,,,,,,,,,,
,,,,,,,,,,,left.png,,w,left,5ec00f62cf12be40ea6fe344,2021-10-27_11h21.49.245,arrow_simon_punish,2021.1.2,Win32,60.08532116,,,,,,,,,,,,,,w,1,1.1877,1.73524099,1,5,1,0,4,2,1,,,,,,,,,,,,,,
,,,,,,,,,,,left.png,,w,left,5ec00f62cf12be40ea6fe344,2021-10-27_11h21.49.245,arrow_simon_punish,2021.1.2,Win32,60.08532116,,,,,,,,,,,,,,w,1,1.4094,1.55996418,0,5,1,1,5,2,1,,,,,,,,,,,,,,
,,,,,,,,,,,left.png,,w,right,5ec00f62cf12be40ea6fe344,2021-10-27_11h21.49.245,arrow_simon_punish,2021.1.2,Win32,60.08532116,,,,,,,,,,,,,,w,1,1.5531,1.707587403,0,5,1,2,6,3,1,,,,,,,,,,,,,,
,,,,,,,,,,,left.png,,w,right,5ec00f62cf12be40ea6fe344,2021-10-27_11h21.49.245,arrow_simon_punish,2021.1.2,Win32,60.08532116,,,,,,,,,,,,,,w,1,1.5328,1.908095808,0,5,1,3,7,3,1,,,,,,,,,,,,,,
,,,,,,,,,,,right.png,,p,right,5ec00f62cf12be40ea6fe344,2021-10-27_11h21.49.245,arrow_simon_punish,2021.1.2,Win32,60.08532116,,,,,,,,,,,,,,p,1,1.5786,1.529307025,0,5,2,0,8,1,1,,,,,,,,,,,,,,
,,,,,,,,,,,right.png,,p,left,5ec00f62cf12be40ea6fe344,2021-10-27_11h21.49.245,arrow_simon_punish,2021.1.2,Win32,60.08532116,,,,,,,,,,,,,,w,0,1.7161,2.351938433,1,5,2,1,9,0,1,,,,,,,,,,,,,,
,,,,,,,,,,,left.png,,w,right,5ec00f62cf12be40ea6fe344,2021-10-27_11h21.49.245,arrow_simon_punish,2021.1.2,Win32,60.08532116,,,,,,,,,,,,,,p,0,1.4748,2.155986173,1,5,2,2,10,3,1,,,,,,,,,,,,,,
,,,,,,,,,,,right.png,,p,right,5ec00f62cf12be40ea6fe344,2021-10-27_11h21.49.245,arrow_simon_punish,2021.1.2,Win32,60.08532116,,,,,,,,,,,,,,p,1,1.3858,1.913379053,1,5,2,3,11,1,1,,,,,,,,,,,,,,
,,,,,,,,,,,right.png,,p,left,5ec00f62cf12be40ea6fe344,2021-10-27_11h21.49.245,arrow_simon_punish,2021.1.2,Win32,60.08532116,,,,,,,,,,,,,,p,1,1.2724,1.695350567,1,5,3,0,12,0,1,,,,,,,,,,,,,,
,,,,,,,,,,,left.png,,w,right,5ec00f62cf12be40ea6fe344,2021-10-27_11h21.49.245,arrow_simon_punish,2021.1.2,Win32,60.08532116,,,,,,,,,,,,,,w,1,1.4584,1.915440811,0,5,3,1,13,3,1,,,,,,,,,,,,,,
,,,,,,,,,,,right.png,,p,left,5ec00f62cf12be40ea6fe344,2021-10-27_11h21.49.245,arrow_simon_punish,2021.1.2,Win32,60.08532116,,,,,,,,,,,,,,p,1,1.7012,2.214594334,1,5,3,2,14,0,1,,,,,,,,,,,,,,
,,,,,,,,,,,right.png,,p,right,5ec00f62cf12be40ea6fe344,2021-10-27_11h21.49.245,arrow_simon_punish,2021.1.2,Win32,60.08532116,,,,,,,,,,,,,,p,1,1.3816,1.856455433,1,5,3,3,15,1,1,,,,,,,,,,,,,,
,,,,,,,,,,,right.png,,p,left,5ec00f62cf12be40ea6fe344,2021-10-27_11h21.49.245,arrow_simon_punish,2021.1.2,Win32,60.08532116,,,,,,,,,,,,,,p,1,1.5854,1.727665517,0,5,4,0,16,0,1,,,,,,,,,,,,,,
,,,,,,,,,,,left.png,,w,left,5ec00f62cf12be40ea6fe344,2021-10-27_11h21.49.245,arrow_simon_punish,2021.1.2,Win32,60.08532116,,,,,,,,,,,,,,w,1,1.4059,1.62563507,0,5,4,1,17,2,1,,,,,,,,,,,,,,
,,,,,,,,,,,left.png,,w,left,5ec00f62cf12be40ea6fe344,2021-10-27_11h21.49.245,arrow_simon_punish,2021.1.2,Win32,60.08532116,,,,,,,,,,,,,,w,1,1.7056,2.366463903,1,5,4,2,18,2,1,,,,,,,,,,,,,,
,,,,,,,,,,,left.png,,w,left,5ec00f62cf12be40ea6fe344,2021-10-27_11h21.49.245,arrow_simon_punish,2021.1.2,Win32,60.08532116,,,,,,,,,,,,,,w,1,1.6723,2.090220797,1,5,4,3,19,2,1,,,,,,,,,,,,,,
,,,,,,,,,,,right.png,,p,left,5ec00f62cf12be40ea6fe344,2021-10-27_11h21.49.245,arrow_simon_punish,2021.1.2,Win32,60.08532116,,,,,,,,,,,,,,p,1,1.6014,2.103916697,1,5,5,0,20,0,1,,,,,,,,,,,,,,
,,,,,,,,,,,left.png,,w,left,5ec00f62cf12be40ea6fe344,2021-10-27_11h21.49.245,arrow_simon_punish,2021.1.2,Win32,60.08532116,,,,,,,,,,,,,,w,1,1.3661,1.893418943,1,5,5,1,21,2,1,,,,,,,,,,,,,,
,,,,,,,,,,,right.png,,p,right,5ec00f62cf12be40ea6fe344,2021-10-27_11h21.49.245,arrow_simon_punish,2021.1.2,Win32,60.08532116,,,,,,,,,,,,,,p,1,1.3794,2.041599313,1,5,5,2,22,1,1,,,,,,,,,,,,,,
,,,,,,,,,,,right.png,,p,left,5ec00f62cf12be40ea6fe344,2021-10-27_11h21.49.245,arrow_simon_punish,2021.1.2,Win32,60.08532116,,,,,,,,,,,,,,w,0,1.6342,2.328423941,1,5,5,3,23,0,1,,,,,,,,,,,,,,
,,,,,,,,,,,right.png,,p,right,5ec00f62cf12be40ea6fe344,2021-10-27_11h21.49.245,arrow_simon_punish,2021.1.2,Win32,60.08532116,,,,,,,,,,,,,,p,1,1.4927,1.966998171,0,5,6,0,24,1,1,,,,,,,,,,,,,,
,,,,,,,,,,,right.png,,p,left,5ec00f62cf12be40ea6fe344,2021-10-27_11h21.49.245,arrow_simon_punish,2021.1.2,Win32,60.08532116,,,,,,,,,,,,,,p,1,1.3681,1.805157949,1,5,6,1,25,0,1,,,,,,,,,,,,,,
,,,,,,,,,,,left.png,,w,right,5ec00f62cf12be40ea6fe344,2021-10-27_11h21.49.245,arrow_simon_punish,2021.1.2,Win32,60.08532116,,,,,,,,,,,,,,p,0,1.4845,2.141764216,1,5,6,2,26,3,1,,,,,,,,,,,,,,
,,,,,,,,,,,right.png,,p,right,5ec00f62cf12be40ea6fe344,2021-10-27_11h21.49.245,arrow_simon_punish,2021.1.2,Win32,60.08532116,,,,,,,,,,,,,,p,1,2.1694,1.803397237,1,5,6,3,27,1,1,,,,,,,,,,,,,,
,,,,,,,,,,,right.png,,p,right,5ec00f62cf12be40ea6fe344,2021-10-27_11h21.49.245,arrow_simon_punish,2021.1.2,Win32,60.08532116,,,,,,,,,,,,,,p,1,2.1568,1.706478187,1,5,7,0,28,1,1,,,,,,,,,,,,,,
,,,,,,,,,,,left.png,,w,left,5ec00f62cf12be40ea6fe344,2021-10-27_11h21.49.245,arrow_simon_punish,2021.1.2,Win32,60.08532116,,,,,,,,,,,,,,w,1,1.6849,2.331688151,1,5,7,1,29,2,1,,,,,,,,,,,,,,
,,,,,,,,,,,right.png,,p,left,5ec00f62cf12be40ea6fe344,2021-10-27_11h21.49.245,arrow_simon_punish,2021.1.2,Win32,60.08532116,,,,,,,,,,,,,,p,1,1.218,1.683572157,1,5,7,2,30,0,1,,,,,,,,,,,,,,
,,,,,,,,,,,right.png,,p,right,5ec00f62cf12be40ea6fe344,2021-10-27_11h21.49.245,arrow_simon_punish,2021.1.2,Win32,60.08532116,,,,,,,,,,,,,,p,1,1.3853,1.94522859,1,5,7,3,31,1,1,,,,,,,,,,,,,,
,,,,,,,,,,,right.png,,p,left,5ec00f62cf12be40ea6fe344,2021-10-27_11h21.49.245,arrow_simon_punish,2021.1.2,Win32,60.08532116,,,,,,,,,,,,,,p,1,1.4853,1.98797898,0,5,8,0,32,0,1,,,,,,,,,,,,,,
,,,,,,,,,,,left.png,,w,left,5ec00f62cf12be40ea6fe344,2021-10-27_11h21.49.245,arrow_simon_punish,2021.1.2,Win32,60.08532116,,,,,,,,,,,,,,w,1,1.2345,1.662991262,1,5,8,1,33,2,1,,,,,,,,,,,,,,
,,,,,,,,,,,left.png,,w,right,5ec00f62cf12be40ea6fe344,2021-10-27_11h21.49.245,arrow_simon_punish,2021.1.2,Win32,60.08532116,,,,,,,,,,,,,,w,1,1.4838,1.774028125,0,5,8,2,34,3,1,,,,,,,,,,,,,,
,,,,,,,,,,,left.png,,w,right,5ec00f62cf12be40ea6fe344,2021-10-27_11h21.49.245,arrow_simon_punish,2021.1.2,Win32,60.08532116,,,,,,,,,,,,,,w,1,1.4179,1.614546533,0,5,8,3,35,3,1,,,,,,,,,,,,,,
,,,,,,,,,,,left.png,,w,left,5ec00f62cf12be40ea6fe344,2021-10-27_11h21.49.245,arrow_simon_punish,2021.1.2,Win32,60.08532116,,,,,,,,,,,,,,w,1,1.3872,1.543866156,1,5,9,0,36,2,1,,,,,,,,,,,,,,
,,,,,,,,,,,right.png,,p,left,5ec00f62cf12be40ea6fe344,2021-10-27_11h21.49.245,arrow_simon_punish,2021.1.2,Win32,60.08532116,,,,,,,,,,,,,,w,0,1.7013,2.347927189,1,5,9,1,37,0,1,,,,,,,,,,,,,,
,,,,,,,,,,,right.png,,p,right,5ec00f62cf12be40ea6fe344,2021-10-27_11h21.49.245,arrow_simon_punish,2021.1.2,Win32,60.08532116,,,,,,,,,,,,,,p,1,1.4012,2.026157887,0,5,9,2,38,1,1,,,,,,,,,,,,,,
,,,,,,,,,,,right.png,,p,left,5ec00f62cf12be40ea6fe344,2021-10-27_11h21.49.245,arrow_simon_punish,2021.1.2,Win32,60.08532116,,,,,,,,,,,,,,p,1,1.5678,2.005883199,0,5,9,3,39,0,1,,,,,,,,,,,,,,
,,,,,,,,,,,left.png,,w,right,5ec00f62cf12be40ea6fe344,2021-10-27_11h21.49.245,arrow_simon_punish,2021.1.2,Win32,60.08532116,,,,,,,,,,,,,,w,1,1.567,1.597597871,0,5,10,0,40,3,1,,,,,,,,,,,,,,
,,,,,,,,,,,right.png,,p,right,5ec00f62cf12be40ea6fe344,2021-10-27_11h21.49.245,arrow_simon_punish,2021.1.2,Win32,60.08532116,,,,,,,,,,,,,,p,1,1.2008,1.679424068,1,5,10,1,41,1,1,,,,,,,,,,,,,,
,,,,,,,,,,,right.png,,p,right,5ec00f62cf12be40ea6fe344,2021-10-27_11h21.49.245,arrow_simon_punish,2021.1.2,Win32,60.08532116,,,,,,,,,,,,,,p,1,1.5845,2.079669468,0,5,10,2,42,1,1,,,,,,,,,,,,,,
,,,,,,,,,,,right.png,,p,left,5ec00f62cf12be40ea6fe344,2021-10-27_11h21.49.245,arrow_simon_punish,2021.1.2,Win32,60.08532116,,,,,,,,,,,,,,w,0,1.8182,2.432007698,1,5,10,3,43,0,1,,,,,,,,,,,,,,
,,,,,,,,,,,left.png,,w,right,5ec00f62cf12be40ea6fe344,2021-10-27_11h21.49.245,arrow_simon_punish,2021.1.2,Win32,60.08532116,,,,,,,,,,,,,,p,0,1.8016,2.452344915,1,5,11,0,44,3,1,,,,,,,,,,,,,,
,,,,,,,,,,,left.png,,w,right,5ec00f62cf12be40ea6fe344,2021-10-27_11h21.49.245,arrow_simon_punish,2021.1.2,Win32,60.08532116,,,,,,,,,,,,,,w,1,1.5182,1.747432434,0,5,11,1,45,3,1,,,,,,,,,,,,,,
,,,,,,,,,,,left.png,,w,left,5ec00f62cf12be40ea6fe344,2021-10-27_11h21.49.245,arrow_simon_punish,2021.1.2,Win32,60.08532116,,,,,,,,,,,,,,w,1,1.4847,1.932096242,0,5,11,2,46,2,1,,,,,,,,,,,,,,
,,,,,,,,,,,left.png,,w,left,5ec00f62cf12be40ea6fe344,2021-10-27_11h21.49.245,arrow_simon_punish,2021.1.2,Win32,60.08532116,,,,,,,,,,,,,,w,1,1.5179,1.781951049,0,5,11,3,47,2,1,,,,,,,,,,,,,,
,,,,,,,,,,,left.png,,w,right,5ec00f62cf12be40ea6fe344,2021-10-27_11h21.49.245,arrow_simon_punish,2021.1.2,Win32,60.08532116,,,,,,,,,,,,,,w,1,1.7349,2.19774706,1,5,12,0,48,3,1,,,,,,,,,,,,,,
,,,,,,,,,,,right.png,,p,left,5ec00f62cf12be40ea6fe344,2021-10-27_11h21.49.245,arrow_simon_punish,2021.1.2,Win32,60.08532116,,,,,,,,,,,,,,p,1,1.4851,1.943220482,0,5,12,1,49,0,1,,,,,,,,,,,,,,
,,,,,,,,,,,right.png,,p,left,5ec00f62cf12be40ea6fe344,2021-10-27_11h21.49.245,arrow_simon_punish,2021.1.2,Win32,60.08532116,,,,,,,,,,,,,,p,1,1.6377,2.038761141,1,5,12,2,50,0,1,,,,,,,,,,,,,,
,,,,,,,,,,,left.png,,w,right,5ec00f62cf12be40ea6fe344,2021-10-27_11h21.49.245,arrow_simon_punish,2021.1.2,Win32,60.08532116,,,,,,,,,,,,,,w,1,1.6865,2.290394179,1,5,12,3,51,3,1,,,,,,,,,,,,,,
,,,,,,,,,,,right.png,,p,right,5ec00f62cf12be40ea6fe344,2021-10-27_11h21.49.245,arrow_simon_punish,2021.1.2,Win32,60.08532116,,,,,,,,,,,,,,p,1,1.5623,2.030050653,0,5,13,0,52,1,1,,,,,,,,,,,,,,
,,,,,,,,,,,right.png,,p,left,5ec00f62cf12be40ea6fe344,2021-10-27_11h21.49.245,arrow_simon_punish,2021.1.2,Win32,60.08532116,,,,,,,,,,,,,,w,0,1.2191,1.882885417,1,5,13,1,53,0,1,,,,,,,,,,,,,,
,,,,,,,,,,,left.png,,w,left,5ec00f62cf12be40ea6fe344,2021-10-27_11h21.49.245,arrow_simon_punish,2021.1.2,Win32,60.08532116,,,,,,,,,,,,,,w,1,1.3254,1.695136023,1,5,13,2,54,2,1,,,,,,,,,,,,,,
,,,,,,,,,,,right.png,,p,right,5ec00f62cf12be40ea6fe344,2021-10-27_11h21.49.245,arrow_simon_punish,2021.1.2,Win32,60.08532116,,,,,,,,,,,,,,p,1,1.7262,2.403061471,1,5,13,3,55,1,1,,,,,,,,,,,,,,
,,,,,,,,,,,left.png,,w,right,5ec00f62cf12be40ea6fe344,2021-10-27_11h21.49.245,arrow_simon_punish,2021.1.2,Win32,60.08532116,,,,,,,,,,,,,,p,0,1.6349,2.378593159,1,5,14,0,56,3,1,,,,,,,,,,,,,,
,,,,,,,,,,,left.png,,w,left,5ec00f62cf12be40ea6fe344,2021-10-27_11h21.49.245,arrow_simon_punish,2021.1.2,Win32,60.08532116,,,,,,,,,,,,,,w,1,1.5933,2.310147173,0,5,14,1,57,2,1,,,,,,,,,,,,,,
,,,,,,,,,,,left.png,,w,left,5ec00f62cf12be40ea6fe344,2021-10-27_11h21.49.245,arrow_simon_punish,2021.1.2,Win32,60.08532116,,,,,,,,,,,,,,w,1,1.3185,1.696785581,1,5,14,2,58,2,1,,,,,,,,,,,,,,
,,,,,,,,,,,right.png,,p,right,5ec00f62cf12be40ea6fe344,2021-10-27_11h21.49.245,arrow_simon_punish,2021.1.2,Win32,60.08532116,,,,,,,,,,,,,,p,1,1.3376,1.848774632,1,5,14,3,59,1,1,,,,,,,,,,,,,,
,,,,,,,,,,,,,,,5ec00f62cf12be40ea6fe344,2021-10-27_11h21.49.245,arrow_simon_punish,2021.1.2,Win32,60.08532116,,,,,,,,,,,,,,,,,,,,,,,,,space,8.9595,3,0,1,1,1,1,5,,,,,
,,,,,,,,,,,right.png,,p,left,5ec00f62cf12be40ea6fe344,2021-10-27_11h21.49.245,arrow_simon_punish,2021.1.2,Win32,60.08532116,,,,,,,,,,,,,,p,1,1.8257,2.42209558,1,1,0,0,0,0,1,,,,,,,,,,,,,,
,,,,,,,,,,,right.png,,p,right,5ec00f62cf12be40ea6fe344,2021-10-27_11h21.49.245,arrow_simon_punish,2021.1.2,Win32,60.08532116,,,,,,,,,,,,,,p,1,1.5395,2.213867162,0,1,0,1,1,1,1,,,,,,,,,,,,,,
,,,,,,,,,,,right.png,,p,right,5ec00f62cf12be40ea6fe344,2021-10-27_11h21.49.245,arrow_simon_punish,2021.1.2,Win32,60.08532116,,,,,,,,,,,,,,p,1,1.4018,2.139290951,0,1,0,2,2,1,1,,,,,,,,,,,,,,
,,,,,,,,,,,right.png,,p,right,5ec00f62cf12be40ea6fe344,2021-10-27_11h21.49.245,arrow_simon_punish,2021.1.2,Win32,60.08532116,,,,,,,,,,,,,,p,1,1.2069,1.817482435,1,1,0,3,3,1,1,,,,,,,,,,,,,,
,,,,,,,,,,,right.png,,p,left,5ec00f62cf12be40ea6fe344,2021-10-27_11h21.49.245,arrow_simon_punish,2021.1.2,Win32,60.08532116,,,,,,,,,,,,,,p,1,1.6234,2.3187468,1,1,1,0,4,0,1,,,,,,,,,,,,,,
,,,,,,,,,,,right.png,,p,left,5ec00f62cf12be40ea6fe344,2021-10-27_11h21.49.245,arrow_simon_punish,2021.1.2,Win32,60.08532116,,,,,,,,,,,,,,p,1,1.3403,1.736052519,1,1,1,1,5,0,1,,,,,,,,,,,,,,
,,,,,,,,,,,left.png,,w,right,5ec00f62cf12be40ea6fe344,2021-10-27_11h21.49.245,arrow_simon_punish,2021.1.2,Win32,60.08532116,,,,,,,,,,,,,,p,0,1.7019,2.461805875,1,1,1,2,6,3,1,,,,,,,,,,,,,,
,,,,,,,,,,,right.png,,p,right,5ec00f62cf12be40ea6fe344,2021-10-27_11h21.49.245,arrow_simon_punish,2021.1.2,Win32,60.08532116,,,,,,,,,,,,,,p,1,1.6309,2.245197911,1,1,1,3,7,1,1,,,,,,,,,,,,,,
,,,,,,,,,,,right.png,,p,left,5ec00f62cf12be40ea6fe344,2021-10-27_11h21.49.245,arrow_simon_punish,2021.1.2,Win32,60.08532116,,,,,,,,,,,,,,p,1,1.5358,2.068360602,0,1,2,0,8,0,1,,,,,,,,,,,,,,
,,,,,,,,,,,right.png,,p,right,5ec00f62cf12be40ea6fe344,2021-10-27_11h21.49.245,arrow_simon_punish,2021.1.2,Win32,60.08532116,,,,,,,,,,,,,,p,1,1.6706,2.353465953,1,1,2,1,9,1,1,,,,,,,,,,,,,,
,,,,,,,,,,,left.png,,w,left,5ec00f62cf12be40ea6fe344,2021-10-27_11h21.49.245,arrow_simon_punish,2021.1.2,Win32,60.08532116,,,,,,,,,,,,,,p,0,1.8589,2.48484286,1,1,2,2,10,2,1,,,,,,,,,,,,,,
,,,,,,,,,,,right.png,,p,right,5ec00f62cf12be40ea6fe344,2021-10-27_11h21.49.245,arrow_simon_punish,2021.1.2,Win32,60.08532116,,,,,,,,,,,,,,p,1,1.4269,2.057713925,0,1,2,3,11,1,1,,,,,,,,,,,,,,
,,,,,,,,,,,right.png,,p,left,5ec00f62cf12be40ea6fe344,2021-10-27_11h21.49.245,arrow_simon_punish,2021.1.2,Win32,60.08532116,,,,,,,,,,,,,,p,1,1.269,1.743341533,1,1,3,0,12,0,1,,,,,,,,,,,,,,
,,,,,,,,,,,right.png,,p,left,5ec00f62cf12be40ea6fe344,2021-10-27_11h21.49.245,arrow_simon_punish,2021.1.2,Win32,60.08532116,,,,,,,,,,,,,,p,1,1.5587,1.804339663,0,1,3,1,13,0,1,,,,,,,,,,,,,,
,,,,,,,,,,,right.png,,p,right,5ec00f62cf12be40ea6fe344,2021-10-27_11h21.49.245,arrow_simon_punish,2021.1.2,Win32,60.08532116,,,,,,,,,,,,,,p,1,1.7852,2.488305137,1,1,3,2,14,1,1,,,,,,,,,,,,,,
,,,,,,,,,,,left.png,,w,left,5ec00f62cf12be40ea6fe344,2021-10-27_11h21.49.245,arrow_simon_punish,2021.1.2,Win32,60.08532116,,,,,,,,,,,,,,w,1,1.3581,1.799882261,1,1,3,3,15,2,1,,,,,,,,,,,,,,
,,,,,,,,,,,left.png,,w,right,5ec00f62cf12be40ea6fe344,2021-10-27_11h21.49.245,arrow_simon_punish,2021.1.2,Win32,60.08532116,,,,,,,,,,,,,,p,0,1.7768,2.458827223,1,1,4,0,16,3,1,,,,,,,,,,,,,,
,,,,,,,,,,,left.png,,w,right,5ec00f62cf12be40ea6fe344,2021-10-27_11h21.49.245,arrow_simon_punish,2021.1.2,Win32,60.08532116,,,,,,,,,,,,,,w,1,2.1244,2.455246252,1,1,4,1,17,3,1,,,,,,,,,,,,,,
,,,,,,,,,,,left.png,,w,right,5ec00f62cf12be40ea6fe344,2021-10-27_11h21.49.245,arrow_simon_punish,2021.1.2,Win32,60.08532116,,,,,,,,,,,,,,w,1,1.4037,1.842773083,0,1,4,2,18,3,1,,,,,,,,,,,,,,
,,,,,,,,,,,right.png,,p,left,5ec00f62cf12be40ea6fe344,2021-10-27_11h21.49.245,arrow_simon_punish,2021.1.2,Win32,60.08532116,,,,,,,,,,,,,,p,1,1.3082,1.68218224,1,1,4,3,19,0,1,,,,,,,,,,,,,,
,,,,,,,,,,,left.png,,w,left,5ec00f62cf12be40ea6fe344,2021-10-27_11h21.49.245,arrow_simon_punish,2021.1.2,Win32,60.08532116,,,,,,,,,,,,,,w,1,1.727,2.348495485,1,1,5,0,20,2,1,,,,,,,,,,,,,,
,,,,,,,,,,,left.png,,w,left,5ec00f62cf12be40ea6fe344,2021-10-27_11h21.49.245,arrow_simon_punish,2021.1.2,Win32,60.08532116,,,,,,,,,,,,,,w,1,1.8282,2.482420674,1,1,5,1,21,2,1,,,,,,,,,,,,,,
,,,,,,,,,,,left.png,,w,right,5ec00f62cf12be40ea6fe344,2021-10-27_11h21.49.245,arrow_simon_punish,2021.1.2,Win32,60.08532116,,,,,,,,,,,,,,p,0,1.6521,2.324201603,1,1,5,2,22,3,1,,,,,,,,,,,,,,
,,,,,,,,,,,right.png,,p,right,5ec00f62cf12be40ea6fe344,2021-10-27_11h21.49.245,arrow_simon_punish,2021.1.2,Win32,60.08532116,,,,,,,,,,,,,,p,1,1.3209,1.885087377,1,1,5,3,23,1,1,,,,,,,,,,,,,,
,,,,,,,,,,,left.png,,w,left,5ec00f62cf12be40ea6fe344,2021-10-27_11h21.49.245,arrow_simon_punish,2021.1.2,Win32,60.08532116,,,,,,,,,,,,,,w,1,1.1543,1.691074576,1,1,6,0,24,2,1,,,,,,,,,,,,,,
,,,,,,,,,,,left.png,,w,right,5ec00f62cf12be40ea6fe344,2021-10-27_11h21.49.245,arrow_simon_punish,2021.1.2,Win32,60.08532116,,,,,,,,,,,,,,p,0,1.7687,2.462540564,1,1,6,1,25,3,1,,,,,,,,,,,,,,
,,,,,,,,,,,right.png,,p,left,5ec00f62cf12be40ea6fe344,2021-10-27_11h21.49.245,arrow_simon_punish,2021.1.2,Win32,60.08532116,,,,,,,,,,,,,,p,1,1.3737,1.841942951,1,1,6,2,26,0,1,,,,,,,,,,,,,,
,,,,,,,,,,,left.png,,w,right,5ec00f62cf12be40ea6fe344,2021-10-27_11h21.49.245,arrow_simon_punish,2021.1.2,Win32,60.08532116,,,,,,,,,,,,,,w,1,1.2516,1.58227271,1,1,6,3,27,3,1,,,,,,,,,,,,,,
,,,,,,,,,,,right.png,,p,left,5ec00f62cf12be40ea6fe344,2021-10-27_11h21.49.245,arrow_simon_punish,2021.1.2,Win32,60.08532116,,,,,,,,,,,,,,p,1,1.5781,2.231667783,0,1,7,0,28,0,1,,,,,,,,,,,,,,
,,,,,,,,,,,right.png,,p,right,5ec00f62cf12be40ea6fe344,2021-10-27_11h21.49.245,arrow_simon_punish,2021.1.2,Win32,60.08532116,,,,,,,,,,,,,,p,1,1.5893,1.659613238,0,1,7,1,29,1,1,,,,,,,,,,,,,,
,,,,,,,,,,,right.png,,p,left,5ec00f62cf12be40ea6fe344,2021-10-27_11h21.49.245,arrow_simon_punish,2021.1.2,Win32,60.08532116,,,,,,,,,,,,,,w,0,1.8221,2.467292278,1,1,7,2,30,0,1,,,,,,,,,,,,,,
,,,,,,,,,,,left.png,,w,right,5ec00f62cf12be40ea6fe344,2021-10-27_11h21.49.245,arrow_simon_punish,2021.1.2,Win32,60.08532116,,,,,,,,,,,,,,w,1,1.5517,1.953535975,0,1,7,3,31,3,1,,,,,,,,,,,,,,
,,,,,,,,,,,left.png,,w,right,5ec00f62cf12be40ea6fe344,2021-10-27_11h21.49.245,arrow_simon_punish,2021.1.2,Win32,60.08532116,,,,,,,,,,,,,,w,1,1.501,1.864683833,0,1,8,0,32,3,1,,,,,,,,,,,,,,
,,,,,,,,,,,left.png,,w,right,5ec00f62cf12be40ea6fe344,2021-10-27_11h21.49.245,arrow_simon_punish,2021.1.2,Win32,60.08532116,,,,,,,,,,,,,,w,1,1.7519,2.353905375,1,1,8,1,33,3,1,,,,,,,,,,,,,,
,,,,,,,,,,,right.png,,p,left,5ec00f62cf12be40ea6fe344,2021-10-27_11h21.49.245,arrow_simon_punish,2021.1.2,Win32,60.08532116,,,,,,,,,,,,,,p,1,1.0521,1.587726953,1,1,8,2,34,0,1,,,,,,,,,,,,,,
,,,,,,,,,,,left.png,,w,left,5ec00f62cf12be40ea6fe344,2021-10-27_11h21.49.245,arrow_simon_punish,2021.1.2,Win32,60.08532116,,,,,,,,,,,,,,w,1,1.7179,2.216024185,1,1,8,3,35,2,1,,,,,,,,,,,,,,
,,,,,,,,,,,right.png,,p,right,5ec00f62cf12be40ea6fe344,2021-10-27_11h21.49.245,arrow_simon_punish,2021.1.2,Win32,60.08532116,,,,,,,,,,,,,,p,1,1.3179,1.990784665,1,1,9,0,36,1,1,,,,,,,,,,,,,,
,,,,,,,,,,,left.png,,w,right,5ec00f62cf12be40ea6fe344,2021-10-27_11h21.49.245,arrow_simon_punish,2021.1.2,Win32,60.08532116,,,,,,,,,,,,,,p,0,1.6681,2.293977869,1,1,9,1,37,3,1,,,,,,,,,,,,,,
,,,,,,,,,,,right.png,,p,left,5ec00f62cf12be40ea6fe344,2021-10-27_11h21.49.245,arrow_simon_punish,2021.1.2,Win32,60.08532116,,,,,,,,,,,,,,p,1,1.5512,2.086382757,0,1,9,2,38,0,1,,,,,,,,,,,,,,
,,,,,,,,,,,left.png,,w,left,5ec00f62cf12be40ea6fe344,2021-10-27_11h21.49.245,arrow_simon_punish,2021.1.2,Win32,60.08532116,,,,,,,,,,,,,,w,1,1.6699,2.273786813,1,1,9,3,39,2,1,,,,,,,,,,,,,,
,,,,,,,,,,,left.png,,w,left,5ec00f62cf12be40ea6fe344,2021-10-27_11h21.49.245,arrow_simon_punish,2021.1.2,Win32,60.08532116,,,,,,,,,,,,,,w,1,1.518,2.145067176,0,1,10,0,40,2,1,,,,,,,,,,,,,,
,,,,,,,,,,,left.png,,w,left,5ec00f62cf12be40ea6fe344,2021-10-27_11h21.49.245,arrow_simon_punish,2021.1.2,Win32,60.08532116,,,,,,,,,,,,,,w,1,1.4682,1.552985209,0,1,10,1,41,2,1,,,,,,,,,,,,,,
,,,,,,,,,,,right.png,,p,right,5ec00f62cf12be40ea6fe344,2021-10-27_11h21.49.245,arrow_simon_punish,2021.1.2,Win32,60.08532116,,,,,,,,,,,,,,p,1,1.6368,2.366643144,1,1,10,2,42,1,1,,,,,,,,,,,,,,
,,,,,,,,,,,left.png,,w,left,5ec00f62cf12be40ea6fe344,2021-10-27_11h21.49.245,arrow_simon_punish,2021.1.2,Win32,60.08532116,,,,,,,,,,,,,,w,1,1.5843,1.585045426,0,1,10,3,43,2,1,,,,,,,,,,,,,,
,,,,,,,,,,,left.png,,w,right,5ec00f62cf12be40ea6fe344,2021-10-27_11h21.49.245,arrow_simon_punish,2021.1.2,Win32,60.08532116,,,,,,,,,,,,,,w,1,1.3851,1.747417642,1,1,11,0,44,3,1,,,,,,,,,,,,,,
,,,,,,,,,,,left.png,,w,left,5ec00f62cf12be40ea6fe344,2021-10-27_11h21.49.245,arrow_simon_punish,2021.1.2,Win32,60.08532116,,,,,,,,,,,,,,w,1,1.2346,1.841018607,1,1,11,1,45,2,1,,,,,,,,,,,,,,
,,,,,,,,,,,right.png,,p,left,5ec00f62cf12be40ea6fe344,2021-10-27_11h21.49.245,arrow_simon_punish,2021.1.2,Win32,60.08532116,,,,,,,,,,,,,,p,1,1.4015,1.981816049,0,1,11,2,46,0,1,,,,,,,,,,,,,,
,,,,,,,,,,,right.png,,p,left,5ec00f62cf12be40ea6fe344,2021-10-27_11h21.49.245,arrow_simon_punish,2021.1.2,Win32,60.08532116,,,,,,,,,,,,,,p,1,1.535,2.148438891,0,1,11,3,47,0,1,,,,,,,,,,,,,,
,,,,,,,,,,,right.png,,p,right,5ec00f62cf12be40ea6fe344,2021-10-27_11h21.49.245,arrow_simon_punish,2021.1.2,Win32,60.08532116,,,,,,,,,,,,,,p,1,1.5186,1.686952684,0,1,12,0,48,1,1,,,,,,,,,,,,,,
,,,,,,,,,,,right.png,,p,right,5ec00f62cf12be40ea6fe344,2021-10-27_11h21.49.245,arrow_simon_punish,2021.1.2,Win32,60.08532116,,,,,,,,,,,,,,p,1,1.4513,2.083264991,0,1,12,1,49,1,1,,,,,,,,,,,,,,
,,,,,,,,,,,left.png,,w,left,5ec00f62cf12be40ea6fe344,2021-10-27_11h21.49.245,arrow_simon_punish,2021.1.2,Win32,60.08532116,,,,,,,,,,,,,,w,1,1.8018,1.675369201,1,1,12,2,50,2,1,,,,,,,,,,,,,,
,,,,,,,,,,,left.png,,w,left,5ec00f62cf12be40ea6fe344,2021-10-27_11h21.49.245,arrow_simon_punish,2021.1.2,Win32,60.08532116,,,,,,,,,,,,,,w,1,1.6184,2.296701814,1,1,12,3,51,2,1,,,,,,,,,,,,,,
,,,,,,,,,,,left.png,,w,right,5ec00f62cf12be40ea6fe344,2021-10-27_11h21.49.245,arrow_simon_punish,2021.1.2,Win32,60.08532116,,,,,,,,,,,,,,w,1,1.8844,2.400790088,1,1,13,0,52,3,1,,,,,,,,,,,,,,
,,,,,,,,,,,right.png,,p,right,5ec00f62cf12be40ea6fe344,2021-10-27_11h21.49.245,arrow_simon_punish,2021.1.2,Win32,60.08532116,,,,,,,,,,,,,,p,1,1.504,2.109134226,0,1,13,1,53,1,1,,,,,,,,,,,,,,
,,,,,,,,,,,left.png,,w,right,5ec00f62cf12be40ea6fe344,2021-10-27_11h21.49.245,arrow_simon_punish,2021.1.2,Win32,60.08532116,,,,,,,,,,,,,,p,0,1.4487,2.131702859,1,1,13,2,54,3,1,,,,,,,,,,,,,,
,,,,,,,,,,,left.png,,w,left,5ec00f62cf12be40ea6fe344,2021-10-27_11h21.49.245,arrow_simon_punish,2021.1.2,Win32,60.08532116,,,,,,,,,,,,,,w,1,1.4562,2.110380838,0,1,13,3,55,2,1,,,,,,,,,,,,,,
,,,,,,,,,,,left.png,,w,left,5ec00f62cf12be40ea6fe344,2021-10-27_11h21.49.245,arrow_simon_punish,2021.1.2,Win32,60.08532116,,,,,,,,,,,,,,w,1,1.6935,2.326404731,1,1,14,0,56,2,1,,,,,,,,,,,,,,
,,,,,,,,,,,right.png,,p,right,5ec00f62cf12be40ea6fe344,2021-10-27_11h21.49.245,arrow_simon_punish,2021.1.2,Win32,60.08532116,,,,,,,,,,,,,,p,1,1.1652,1.61767154,1,1,14,1,57,1,1,,,,,,,,,,,,,,
,,,,,,,,,,,right.png,,p,left,5ec00f62cf12be40ea6fe344,2021-10-27_11h21.49.245,arrow_simon_punish,2021.1.2,Win32,60.08532116,,,,,,,,,,,,,,w,0,1.7691,2.373080278,1,1,14,2,58,0,1,,,,,,,,,,,,,,
,,,,,,,,,,,left.png,,w,right,5ec00f62cf12be40ea6fe344,2021-10-27_11h21.49.245,arrow_simon_punish,2021.1.2,Win32,60.08532116,,,,,,,,,,,,,,w,1,1.2759,1.894897038,1,1,14,3,59,3,1,,,,,,,,,,,,,,
,,,,,,,,,,,,,,,5ec00f62cf12be40ea6fe344,2021-10-27_11h21.49.245,arrow_simon_punish,2021.1.2,Win32,60.08532116,,,,,,,,,,,,,,,,,,,,,,,,,space,7.576,4,1,0,2,0,1,1,,,,,
,,,,,,,,,,,left.png,,w,right,5ec00f62cf12be40ea6fe344,2021-10-27_11h21.49.245,arrow_simon_punish,2021.1.2,Win32,60.08532116,,,,,,,,,,,,,,w,1,1.3182,1.725699838,1,5,0,0,0,3,1,,,,,,,,,,,,,,
,,,,,,,,,,,right.png,,p,left,5ec00f62cf12be40ea6fe344,2021-10-27_11h21.49.245,arrow_simon_punish,2021.1.2,Win32,60.08532116,,,,,,,,,,,,,,p,1,1.1845,1.725292701,1,5,0,1,1,0,1,,,,,,,,,,,,,,
,,,,,,,,,,,left.png,,w,left,5ec00f62cf12be40ea6fe344,2021-10-27_11h21.49.245,arrow_simon_punish,2021.1.2,Win32,60.08532116,,,,,,,,,,,,,,w,1,1.4687,2.085561255,0,5,0,2,2,2,1,,,,,,,,,,,,,,
,,,,,,,,,,,left.png,,w,left,5ec00f62cf12be40ea6fe344,2021-10-27_11h21.49.245,arrow_simon_punish,2021.1.2,Win32,60.08532116,,,,,,,,,,,,,,w,1,1.4513,2.007685206,0,5,0,3,3,2,1,,,,,,,,,,,,,,
,,,,,,,,,,,left.png,,w,left,5ec00f62cf12be40ea6fe344,2021-10-27_11h21.49.245,arrow_simon_punish,2021.1.2,Win32,60.08532116,,,,,,,,,,,,,,w,1,1.4352,1.615496795,0,5,1,0,4,2,1,,,,,,,,,,,,,,
,,,,,,,,,,,left.png,,w,right,5ec00f62cf12be40ea6fe344,2021-10-27_11h21.49.245,arrow_simon_punish,2021.1.2,Win32,60.08532116,,,,,,,,,,,,,,p,0,1.6514,2.287098151,1,5,1,1,5,3,1,,,,,,,,,,,,,,
,,,,,,,,,,,left.png,,w,left,5ec00f62cf12be40ea6fe344,2021-10-27_11h21.49.245,arrow_simon_punish,2021.1.2,Win32,60.08532116,,,,,,,,,,,,,,w,1,1.7512,2.473165535,1,5,1,2,6,2,1,,,,,,,,,,,,,,
,,,,,,,,,,,right.png,,p,left,5ec00f62cf12be40ea6fe344,2021-10-27_11h21.49.245,arrow_simon_punish,2021.1.2,Win32,60.08532116,,,,,,,,,,,,,,p,1,1.5013,1.794823683,0,5,1,3,7,0,1,,,,,,,,,,,,,,
,,,,,,,,,,,left.png,,w,left,5ec00f62cf12be40ea6fe344,2021-10-27_11h21.49.245,arrow_simon_punish,2021.1.2,Win32,60.08532116,,,,,,,,,,,,,,w,1,1.3514,1.694058023,1,5,2,0,8,2,1,,,,,,,,,,,,,,
,,,,,,,,,,,left.png,,w,right,5ec00f62cf12be40ea6fe344,2021-10-27_11h21.49.245,arrow_simon_punish,2021.1.2,Win32,60.08532116,,,,,,,,,,,,,,w,1,1.4678,1.81460149,0,5,2,1,9,3,1,,,,,,,,,,,,,,
,,,,,,,,,,,right.png,,p,left,5ec00f62cf12be40ea6fe344,2021-10-27_11h21.49.245,arrow_simon_punish,2021.1.2,Win32,60.08532116,,,,,,,,,,,,,,p,1,1.5179,1.90914547,0,5,2,2,10,0,1,,,,,,,,,,,,,,
,,,,,,,,,,,left.png,,w,left,5ec00f62cf12be40ea6fe344,2021-10-27_11h21.49.245,arrow_simon_punish,2021.1.2,Win32,60.08532116,,,,,,,,,,,,,,w,1,1.7516,2.40608525,1,5,2,3,11,2,1,,,,,,,,,,,,,,
,,,,,,,,,,,right.png,,p,right,5ec00f62cf12be40ea6fe344,2021-10-27_11h21.49.245,arrow_simon_punish,2021.1.2,Win32,60.08532116,,,,,,,,,,,,,,p,1,1.6337,2.295556849,1,5,3,0,12,1,1,,,,,,,,,,,,,,
,,,,,,,,,,,left.png,,w,left,5ec00f62cf12be40ea6fe344,2021-10-27_11h21.49.245,arrow_simon_punish,2021.1.2,Win32,60.08532116,,,,,,,,,,,,,,w,1,1.2351,1.813869663,1,5,3,1,13,2,1,,,,,,,,,,,,,,
,,,,,,,,,,,left.png,,w,left,5ec00f62cf12be40ea6fe344,2021-10-27_11h21.49.245,arrow_simon_punish,2021.1.2,Win32,60.08532116,,,,,,,,,,,,,,w,1,1.6015,2.400497074,1,5,3,2,14,2,1,,,,,,,,,,,,,,
,,,,,,,,,,,left.png,,w,left,5ec00f62cf12be40ea6fe344,2021-10-27_11h21.49.245,arrow_simon_punish,2021.1.2,Win32,60.08532116,,,,,,,,,,,,,,w,1,1.5688,1.743000663,0,5,3,3,15,2,1,,,,,,,,,,,,,,
,,,,,,,,,,,right.png,,p,left,5ec00f62cf12be40ea6fe344,2021-10-27_11h21.49.245,arrow_simon_punish,2021.1.2,Win32,60.08532116,,,,,,,,,,,,,,p,1,1.5354,1.711078221,0,5,4,0,16,0,1,,,,,,,,,,,,,,
,,,,,,,,,,,right.png,,p,left,5ec00f62cf12be40ea6fe344,2021-10-27_11h21.49.245,arrow_simon_punish,2021.1.2,Win32,60.08532116,,,,,,,,,,,,,,p,1,1.5688,1.824058,0,5,4,1,17,0,1,,,,,,,,,,,,,,
,,,,,,,,,,,right.png,,p,left,5ec00f62cf12be40ea6fe344,2021-10-27_11h21.49.245,arrow_simon_punish,2021.1.2,Win32,60.08532116,,,,,,,,,,,,,,w,0,1.5853,2.250934838,1,5,4,2,18,0,1,,,,,,,,,,,,,,
,,,,,,,,,,,left.png,,w,right,5ec00f62cf12be40ea6fe344,2021-10-27_11h21.49.245,arrow_simon_punish,2021.1.2,Win32,60.08532116,,,,,,,,,,,,,,w,1,1.167,1.566620987,1,5,4,3,19,3,1,,,,,,,,,,,,,,
,,,,,,,,,,,right.png,,p,right,5ec00f62cf12be40ea6fe344,2021-10-27_11h21.49.245,arrow_simon_punish,2021.1.2,Win32,60.08532116,,,,,,,,,,,,,,p,1,1.3011,1.685051247,1,5,5,0,20,1,1,,,,,,,,,,,,,,
,,,,,,,,,,,right.png,,p,right,5ec00f62cf12be40ea6fe344,2021-10-27_11h21.49.245,arrow_simon_punish,2021.1.2,Win32,60.08532116,,,,,,,,,,,,,,p,1,1.6337,2.305823045,1,5,5,1,21,1,1,,,,,,,,,,,,,,
,,,,,,,,,,,left.png,,w,right,5ec00f62cf12be40ea6fe344,2021-10-27_11h21.49.245,arrow_simon_punish,2021.1.2,Win32,60.08532116,,,,,,,,,,,,,,w,1,1.4855,1.908440588,0,5,5,2,22,3,1,,,,,,,,,,,,,,
,,,,,,,,,,,right.png,,p,right,5ec00f62cf12be40ea6fe344,2021-10-27_11h21.49.245,arrow_simon_punish,2021.1.2,Win32,60.08532116,,,,,,,,,,,,,,p,1,1.3683,1.505093212,1,5,5,3,23,1,1,,,,,,,,,,,,,,
,,,,,,,,,,,left.png,,w,right,5ec00f62cf12be40ea6fe344,2021-10-27_11h21.49.245,arrow_simon_punish,2021.1.2,Win32,60.08532116,,,,,,,,,,,,,,w,1,1.534,1.810428593,0,5,6,0,24,3,1,,,,,,,,,,,,,,
,,,,,,,,,,,left.png,,w,left,5ec00f62cf12be40ea6fe344,2021-10-27_11h21.49.245,arrow_simon_punish,2021.1.2,Win32,60.08532116,,,,,,,,,,,,,,w,1,1.7852,2.445088452,1,5,6,1,25,2,1,,,,,,,,,,,,,,
,,,,,,,,,,,left.png,,w,right,5ec00f62cf12be40ea6fe344,2021-10-27_11h21.49.245,arrow_simon_punish,2021.1.2,Win32,60.08532116,,,,,,,,,,,,,,w,1,1.9683,2.348762625,1,5,6,2,26,3,1,,,,,,,,,,,,,,
,,,,,,,,,,,right.png,,p,right,5ec00f62cf12be40ea6fe344,2021-10-27_11h21.49.245,arrow_simon_punish,2021.1.2,Win32,60.08532116,,,,,,,,,,,,,,p,1,1.4358,2.089985346,0,5,6,3,27,1,1,,,,,,,,,,,,,,
,,,,,,,,,,,right.png,,p,left,5ec00f62cf12be40ea6fe344,2021-10-27_11h21.49.245,arrow_simon_punish,2021.1.2,Win32,60.08532116,,,,,,,,,,,,,,p,1,1.3186,1.718451836,1,5,7,0,28,0,1,,,,,,,,,,,,,,
,,,,,,,,,,,right.png,,p,left,5ec00f62cf12be40ea6fe344,2021-10-27_11h21.49.245,arrow_simon_punish,2021.1.2,Win32,60.08532116,,,,,,,,,,,,,,p,1,1.4352,1.856609576,0,5,7,1,29,0,1,,,,,,,,,,,,,,
,,,,,,,,,,,right.png,,p,right,5ec00f62cf12be40ea6fe344,2021-10-27_11h21.49.245,arrow_simon_punish,2021.1.2,Win32,60.08532116,,,,,,,,,,,,,,p,1,1.5197,2.067880669,0,5,7,2,30,1,1,,,,,,,,,,,,,,
,,,,,,,,,,,right.png,,p,right,5ec00f62cf12be40ea6fe344,2021-10-27_11h21.49.245,arrow_simon_punish,2021.1.2,Win32,60.08532116,,,,,,,,,,,,,,p,1,1.4019,1.672450522,0,5,7,3,31,1,1,,,,,,,,,,,,,,
,,,,,,,,,,,right.png,,p,right,5ec00f62cf12be40ea6fe344,2021-10-27_11h21.49.245,arrow_simon_punish,2021.1.2,Win32,60.08532116,,,,,,,,,,,,,,p,1,1.3019,1.700252032,1,5,8,0,32,1,1,,,,,,,,,,,,,,
,,,,,,,,,,,left.png,,w,right,5ec00f62cf12be40ea6fe344,2021-10-27_11h21.49.245,arrow_simon_punish,2021.1.2,Win32,60.08532116,,,,,,,,,,,,,,w,1,1.4854,1.650086729,0,5,8,1,33,3,1,,,,,,,,,,,,,,
,,,,,,,,,,,left.png,,w,right,5ec00f62cf12be40ea6fe344,2021-10-27_11h21.49.245,arrow_simon_punish,2021.1.2,Win32,60.08532116,,,,,,,,,,,,,,p,0,1.7187,2.300419087,1,5,8,2,34,3,1,,,,,,,,,,,,,,
,,,,,,,,,,,left.png,,w,left,5ec00f62cf12be40ea6fe344,2021-10-27_11h21.49.245,arrow_simon_punish,2021.1.2,Win32,60.08532116,,,,,,,,,,,,,,w,1,1.7851,2.354844603,1,5,8,3,35,2,1,,,,,,,,,,,,,,
,,,,,,,,,,,right.png,,p,left,5ec00f62cf12be40ea6fe344,2021-10-27_11h21.49.245,arrow_simon_punish,2021.1.2,Win32,60.08532116,,,,,,,,,,,,,,p,1,1.4191,1.658371609,0,5,9,0,36,0,1,,,,,,,,,,,,,,
,,,,,,,,,,,right.png,,p,right,5ec00f62cf12be40ea6fe344,2021-10-27_11h21.49.245,arrow_simon_punish,2021.1.2,Win32,60.08532116,,,,,,,,,,,,,,p,1,1.4194,1.716351639,0,5,9,1,37,1,1,,,,,,,,,,,,,,
,,,,,,,,,,,right.png,,p,left,5ec00f62cf12be40ea6fe344,2021-10-27_11h21.49.245,arrow_simon_punish,2021.1.2,Win32,60.08532116,,,,,,,,,,,,,,w,0,1.5008,2.076776839,1,5,9,2,38,0,1,,,,,,,,,,,,,,
,,,,,,,,,,,left.png,,w,right,5ec00f62cf12be40ea6fe344,2021-10-27_11h21.49.245,arrow_simon_punish,2021.1.2,Win32,60.08532116,,,,,,,,,,,,,,w,1,1.4512,1.852742579,0,5,9,3,39,3,1,,,,,,,,,,,,,,
,,,,,,,,,,,right.png,,p,right,5ec00f62cf12be40ea6fe344,2021-10-27_11h21.49.245,arrow_simon_punish,2021.1.2,Win32,60.08532116,,,,,,,,,,,,,,p,1,1.4844,2.056422902,0,5,10,0,40,1,1,,,,,,,,,,,,,,
,,,,,,,,,,,left.png,,w,right,5ec00f62cf12be40ea6fe344,2021-10-27_11h21.49.245,arrow_simon_punish,2021.1.2,Win32,60.08532116,,,,,,,,,,,,,,w,1,1.4678,1.942885571,0,5,10,1,41,3,1,,,,,,,,,,,,,,
,,,,,,,,,,,right.png,,p,left,5ec00f62cf12be40ea6fe344,2021-10-27_11h21.49.245,arrow_simon_punish,2021.1.2,Win32,60.08532116,,,,,,,,,,,,,,w,0,1.7025,2.468806633,1,5,10,2,42,0,1,,,,,,,,,,,,,,
,,,,,,,,,,,left.png,,w,right,5ec00f62cf12be40ea6fe344,2021-10-27_11h21.49.245,arrow_simon_punish,2021.1.2,Win32,60.08532116,,,,,,,,,,,,,,w,1,1.6512,2.174324197,1,5,10,3,43,3,1,,,,,,,,,,,,,,
,,,,,,,,,,,left.png,,w,right,5ec00f62cf12be40ea6fe344,2021-10-27_11h21.49.245,arrow_simon_punish,2021.1.2,Win32,60.08532116,,,,,,,,,,,,,,w,1,1.3184,1.607433683,1,5,11,0,44,3,1,,,,,,,,,,,,,,
,,,,,,,,,,,left.png,,w,right,5ec00f62cf12be40ea6fe344,2021-10-27_11h21.49.245,arrow_simon_punish,2021.1.2,Win32,60.08532116,,,,,,,,,,,,,,w,1,1.4078,1.548355959,0,5,11,1,45,3,1,,,,,,,,,,,,,,
,,,,,,,,,,,right.png,,p,left,5ec00f62cf12be40ea6fe344,2021-10-27_11h21.49.245,arrow_simon_punish,2021.1.2,Win32,60.08532116,,,,,,,,,,,,,,p,1,1.7854,1.952164349,1,5,11,2,46,0,1,,,,,,,,,,,,,,
,,,,,,,,,,,right.png,,p,right,5ec00f62cf12be40ea6fe344,2021-10-27_11h21.49.245,arrow_simon_punish,2021.1.2,Win32,60.08532116,,,,,,,,,,,,,,p,1,1.8534,2.497379198,1,5,11,3,47,1,1,,,,,,,,,,,,,,
,,,,,,,,,,,right.png,,p,left,5ec00f62cf12be40ea6fe344,2021-10-27_11h21.49.245,arrow_simon_punish,2021.1.2,Win32,60.08532116,,,,,,,,,,,,,,p,1,1.519,1.810520577,0,5,12,0,48,0,1,,,,,,,,,,,,,,
,,,,,,,,,,,left.png,,w,left,5ec00f62cf12be40ea6fe344,2021-10-27_11h21.49.245,arrow_simon_punish,2021.1.2,Win32,60.08532116,,,,,,,,,,,,,,w,1,1.389,2.050012394,1,5,12,1,49,2,1,,,,,,,,,,,,,,
,,,,,,,,,,,left.png,,w,left,5ec00f62cf12be40ea6fe344,2021-10-27_11h21.49.245,arrow_simon_punish,2021.1.2,Win32,60.08532116,,,,,,,,,,,,,,w,1,1.4071,1.648514165,0,5,12,2,50,2,1,,,,,,,,,,,,,,
,,,,,,,,,,,right.png,,p,right,5ec00f62cf12be40ea6fe344,2021-10-27_11h21.49.245,arrow_simon_punish,2021.1.2,Win32,60.08532116,,,,,,,,,,,,,,p,1,1.504,2.263232054,0,5,12,3,51,1,1,,,,,,,,,,,,,,
,,,,,,,,,,,left.png,,w,right,5ec00f62cf12be40ea6fe344,2021-10-27_11h21.49.245,arrow_simon_punish,2021.1.2,Win32,60.08532116,,,,,,,,,,,,,,p,0,1.7543,2.48430003,1,5,13,0,52,3,1,,,,,,,,,,,,,,
,,,,,,,,,,,left.png,,w,left,5ec00f62cf12be40ea6fe344,2021-10-27_11h21.49.245,arrow_simon_punish,2021.1.2,Win32,60.08532116,,,,,,,,,,,,,,w,1,1.4774,1.910241728,0,5,13,1,53,2,1,,,,,,,,,,,,,,
,,,,,,,,,,,right.png,,p,right,5ec00f62cf12be40ea6fe344,2021-10-27_11h21.49.245,arrow_simon_punish,2021.1.2,Win32,60.08532116,,,,,,,,,,,,,,p,1,1.6264,2.264887931,1,5,13,2,54,1,1,,,,,,,,,,,,,,
,,,,,,,,,,,left.png,,w,left,5ec00f62cf12be40ea6fe344,2021-10-27_11h21.49.245,arrow_simon_punish,2021.1.2,Win32,60.08532116,,,,,,,,,,,,,,w,1,1.5443,2.283557158,0,5,13,3,55,2,1,,,,,,,,,,,,,,
,,,,,,,,,,,right.png,,p,left,5ec00f62cf12be40ea6fe344,2021-10-27_11h21.49.245,arrow_simon_punish,2021.1.2,Win32,60.08532116,,,,,,,,,,,,,,p,1,1.4193,1.882794505,0,5,14,0,56,0,1,,,,,,,,,,,,,,
,,,,,,,,,,,right.png,,p,right,5ec00f62cf12be40ea6fe344,2021-10-27_11h21.49.245,arrow_simon_punish,2021.1.2,Win32,60.08532116,,,,,,,,,,,,,,p,1,1.2627,1.668643536,1,5,14,1,57,1,1,,,,,,,,,,,,,,
,,,,,,,,,,,right.png,,p,right,5ec00f62cf12be40ea6fe344,2021-10-27_11h21.49.245,arrow_simon_punish,2021.1.2,Win32,60.08532116,,,,,,,,,,,,,,p,1,1.4439,2.157856052,0,5,14,2,58,1,1,,,,,,,,,,,,,,
,,,,,,,,,,,right.png,,p,left,5ec00f62cf12be40ea6fe344,2021-10-27_11h21.49.245,arrow_simon_punish,2021.1.2,Win32,60.08532116,,,,,,,,,,,,,,p,1,1.5113,1.857249311,0,5,14,3,59,0,1,,,,,,,,,,,,,,
,,,,,,,,,,,,,,,5ec00f62cf12be40ea6fe344,2021-10-27_11h21.49.245,arrow_simon_punish,2021.1.2,Win32,60.08532116,,,,,,,,,,,,,,,,,,,,,,,,,space,27.1516,5,1,1,3,1,1,5,,,,,
,,,,,,,,,,,right.png,,p,left,5ec00f62cf12be40ea6fe344,2021-10-27_11h21.49.245,arrow_simon_punish,2021.1.2,Win32,60.08532116,,,,,,,,,,,,,,p,1,1.9721,2.397247182,1,1,0,0,0,0,1,,,,,,,,,,,,,,
,,,,,,,,,,,right.png,,p,right,5ec00f62cf12be40ea6fe344,2021-10-27_11h21.49.245,arrow_simon_punish,2021.1.2,Win32,60.08532116,,,,,,,,,,,,,,p,1,1.3351,1.978497361,1,1,0,1,1,1,1,,,,,,,,,,,,,,
,,,,,,,,,,,left.png,,w,left,5ec00f62cf12be40ea6fe344,2021-10-27_11h21.49.245,arrow_simon_punish,2021.1.2,Win32,60.08532116,,,,,,,,,,,,,,w,1,1.2931,1.759636928,1,1,0,2,2,2,1,,,,,,,,,,,,,,
,,,,,,,,,,,left.png,,w,right,5ec00f62cf12be40ea6fe344,2021-10-27_11h21.49.245,arrow_simon_punish,2021.1.2,Win32,60.08532116,,,,,,,,,,,,,,w,1,1.4242,1.553724141,0,1,0,3,3,3,1,,,,,,,,,,,,,,
,,,,,,,,,,,right.png,,p,left,5ec00f62cf12be40ea6fe344,2021-10-27_11h21.49.245,arrow_simon_punish,2021.1.2,Win32,60.08532116,,,,,,,,,,,,,,w,0,1.6378,2.274066196,1,1,1,0,4,0,1,,,,,,,,,,,,,,
,,,,,,,,,,,left.png,,w,right,5ec00f62cf12be40ea6fe344,2021-10-27_11h21.49.245,arrow_simon_punish,2021.1.2,Win32,60.08532116,,,,,,,,,,,,,,p,0,1.528,2.17624171,1,1,1,1,5,3,1,,,,,,,,,,,,,,
,,,,,,,,,,,right.png,,p,right,5ec00f62cf12be40ea6fe344,2021-10-27_11h21.49.245,arrow_simon_punish,2021.1.2,Win32,60.08532116,,,,,,,,,,,,,,p,1,1.5267,1.555304554,0,1,1,2,6,1,1,,,,,,,,,,,,,,
,,,,,,,,,,,left.png,,w,left,5ec00f62cf12be40ea6fe344,2021-10-27_11h21.49.245,arrow_simon_punish,2021.1.2,Win32,60.08532116,,,,,,,,,,,,,,w,1,1.7395,2.384360849,1,1,1,3,7,2,1,,,,,,,,,,,,,,
,,,,,,,,,,,left.png,,w,right,5ec00f62cf12be40ea6fe344,2021-10-27_11h21.49.245,arrow_simon_punish,2021.1.2,Win32,60.08532116,,,,,,,,,,,,,,w,1,1.5013,1.904002998,0,1,2,0,8,3,1,,,,,,,,,,,,,,
,,,,,,,,,,,left.png,,w,right,5ec00f62cf12be40ea6fe344,2021-10-27_11h21.49.245,arrow_simon_punish,2021.1.2,Win32,60.08532116,,,,,,,,,,,,,,w,1,1.8267,2.236799118,1,1,2,1,9,3,1,,,,,,,,,,,,,,
,,,,,,,,,,,left.png,,w,right,5ec00f62cf12be40ea6fe344,2021-10-27_11h21.49.245,arrow_simon_punish,2021.1.2,Win32,60.08532116,,,,,,,,,,,,,,w,1,1.4956,1.864351811,0,1,2,2,10,3,1,,,,,,,,,,,,,,
,,,,,,,,,,,right.png,,p,left,5ec00f62cf12be40ea6fe344,2021-10-27_11h21.49.245,arrow_simon_punish,2021.1.2,Win32,60.08532116,,,,,,,,,,,,,,p,1,1.4014,1.725782102,0,1,2,3,11,0,1,,,,,,,,,,,,,,
,,,,,,,,,,,left.png,,w,right,5ec00f62cf12be40ea6fe344,2021-10-27_11h21.49.245,arrow_simon_punish,2021.1.2,Win32,60.08532116,,,,,,,,,,,,,,w,1,1.4623,1.52458211,0,1,3,0,12,3,1,,,,,,,,,,,,,,
,,,,,,,,,,,right.png,,p,left,5ec00f62cf12be40ea6fe344,2021-10-27_11h21.49.245,arrow_simon_punish,2021.1.2,Win32,60.08532116,,,,,,,,,,,,,,w,0,1.6865,2.399559668,1,1,3,1,13,0,1,,,,,,,,,,,,,,
,,,,,,,,,,,left.png,,w,right,5ec00f62cf12be40ea6fe344,2021-10-27_11h21.49.245,arrow_simon_punish,2021.1.2,Win32,60.08532116,,,,,,,,,,,,,,w,1,1.5711,1.565814882,0,1,3,2,14,3,1,,,,,,,,,,,,,,
,,,,,,,,,,,left.png,,w,right,5ec00f62cf12be40ea6fe344,2021-10-27_11h21.49.245,arrow_simon_punish,2021.1.2,Win32,60.08532116,,,,,,,,,,,,,,w,1,1.5124,1.506425422,0,1,3,3,15,3,1,,,,,,,,,,,,,,
,,,,,,,,,,,right.png,,p,right,5ec00f62cf12be40ea6fe344,2021-10-27_11h21.49.245,arrow_simon_punish,2021.1.2,Win32,60.08532116,,,,,,,,,,,,,,p,1,1.4375,2.091919184,0,1,4,0,16,1,1,,,,,,,,,,,,,,
,,,,,,,,,,,left.png,,w,left,5ec00f62cf12be40ea6fe344,2021-10-27_11h21.49.245,arrow_simon_punish,2021.1.2,Win32,60.08532116,,,,,,,,,,,,,,w,1,1.7289,2.438826714,1,1,4,1,17,2,1,,,,,,,,,,,,,,
,,,,,,,,,,,right.png,,p,left,5ec00f62cf12be40ea6fe344,2021-10-27_11h21.49.245,arrow_simon_punish,2021.1.2,Win32,60.08532116,,,,,,,,,,,,,,p,1,1.6621,2.444514417,1,1,4,2,18,0,1,,,,,,,,,,,,,,
,,,,,,,,,,,left.png,,w,left,5ec00f62cf12be40ea6fe344,2021-10-27_11h21.49.245,arrow_simon_punish,2021.1.2,Win32,60.08532116,,,,,,,,,,,,,,w,1,1.6685,2.384231642,1,1,4,3,19,2,1,,,,,,,,,,,,,,
,,,,,,,,,,,left.png,,w,right,5ec00f62cf12be40ea6fe344,2021-10-27_11h21.49.245,arrow_simon_punish,2021.1.2,Win32,60.08532116,,,,,,,,,,,,,,p,0,1.8286,2.499960066,1,1,5,0,20,3,1,,,,,,,,,,,,,,
,,,,,,,,,,,left.png,,w,left,5ec00f62cf12be40ea6fe344,2021-10-27_11h21.49.245,arrow_simon_punish,2021.1.2,Win32,60.08532116,,,,,,,,,,,,,,w,1,1.6069,2.222759297,1,1,5,1,21,2,1,,,,,,,,,,,,,,
,,,,,,,,,,,left.png,,w,right,5ec00f62cf12be40ea6fe344,2021-10-27_11h21.49.245,arrow_simon_punish,2021.1.2,Win32,60.08532116,,,,,,,,,,,,,,w,1,1.4705,1.660476379,0,1,5,2,22,3,1,,,,,,,,,,,,,,
,,,,,,,,,,,right.png,,p,left,5ec00f62cf12be40ea6fe344,2021-10-27_11h21.49.245,arrow_simon_punish,2021.1.2,Win32,60.08532116,,,,,,,,,,,,,,p,1,1.929,1.965280825,1,1,5,3,23,0,1,,,,,,,,,,,,,,
,,,,,,,,,,,left.png,,w,left,5ec00f62cf12be40ea6fe344,2021-10-27_11h21.49.245,arrow_simon_punish,2021.1.2,Win32,60.08532116,,,,,,,,,,,,,,w,1,1.4608,2.242621719,0,1,6,0,24,2,1,,,,,,,,,,,,,,
,,,,,,,,,,,left.png,,w,left,5ec00f62cf12be40ea6fe344,2021-10-27_11h21.49.245,arrow_simon_punish,2021.1.2,Win32,60.08532116,,,,,,,,,,,,,,w,1,1.4845,2.159448828,0,1,6,1,25,2,1,,,,,,,,,,,,,,
,,,,,,,,,,,left.png,,w,left,5ec00f62cf12be40ea6fe344,2021-10-27_11h21.49.245,arrow_simon_punish,2021.1.2,Win32,60.08532116,,,,,,,,,,,,,,p,0,1.3517,1.996915342,1,1,6,2,26,2,1,,,,,,,,,,,,,,
,,,,,,,,,,,right.png,,p,right,5ec00f62cf12be40ea6fe344,2021-10-27_11h21.49.245,arrow_simon_punish,2021.1.2,Win32,60.08532116,,,,,,,,,,,,,,p,1,1.6823,2.265609054,1,1,6,3,27,1,1,,,,,,,,,,,,,,
,,,,,,,,,,,right.png,,p,right,5ec00f62cf12be40ea6fe344,2021-10-27_11h21.49.245,arrow_simon_punish,2021.1.2,Win32,60.08532116,,,,,,,,,,,,,,p,1,1.7024,2.460796967,1,1,7,0,28,1,1,,,,,,,,,,,,,,
,,,,,,,,,,,left.png,,w,left,5ec00f62cf12be40ea6fe344,2021-10-27_11h21.49.245,arrow_simon_punish,2021.1.2,Win32,60.08532116,,,,,,,,,,,,,,w,1,1.5064,2.30734154,0,1,7,1,29,2,1,,,,,,,,,,,,,,
,,,,,,,,,,,right.png,,p,right,5ec00f62cf12be40ea6fe344,2021-10-27_11h21.49.245,arrow_simon_punish,2021.1.2,Win32,60.08532116,,,,,,,,,,,,,,p,1,1.3621,1.915905747,1,1,7,2,30,1,1,,,,,,,,,,,,,,
,,,,,,,,,,,right.png,,p,right,5ec00f62cf12be40ea6fe344,2021-10-27_11h21.49.245,arrow_simon_punish,2021.1.2,Win32,60.08532116,,,,,,,,,,,,,,p,1,1.4765,1.87209807,0,1,7,3,31,1,1,,,,,,,,,,,,,,
,,,,,,,,,,,right.png,,p,right,5ec00f62cf12be40ea6fe344,2021-10-27_11h21.49.245,arrow_simon_punish,2021.1.2,Win32,60.08532116,,,,,,,,,,,,,,p,1,1.2578,1.666268224,1,1,8,0,32,1,1,,,,,,,,,,,,,,
,,,,,,,,,,,right.png,,p,left,5ec00f62cf12be40ea6fe344,2021-10-27_11h21.49.245,arrow_simon_punish,2021.1.2,Win32,60.08532116,,,,,,,,,,,,,,p,1,1.5232,2.329521928,0,1,8,1,33,0,1,,,,,,,,,,,,,,
,,,,,,,,,,,right.png,,p,right,5ec00f62cf12be40ea6fe344,2021-10-27_11h21.49.245,arrow_simon_punish,2021.1.2,Win32,60.08532116,,,,,,,,,,,,,,p,1,1.7852,2.404625704,1,1,8,2,34,1,1,,,,,,,,,,,,,,
,,,,,,,,,,,left.png,,w,left,5ec00f62cf12be40ea6fe344,2021-10-27_11h21.49.245,arrow_simon_punish,2021.1.2,Win32,60.08532116,,,,,,,,,,,,,,w,1,1.4684,2.001580563,0,1,8,3,35,2,1,,,,,,,,,,,,,,
,,,,,,,,,,,left.png,,w,right,5ec00f62cf12be40ea6fe344,2021-10-27_11h21.49.245,arrow_simon_punish,2021.1.2,Win32,60.08532116,,,,,,,,,,,,,,w,1,1.547,2.374171092,0,1,9,0,36,3,1,,,,,,,,,,,,,,
,,,,,,,,,,,right.png,,p,right,5ec00f62cf12be40ea6fe344,2021-10-27_11h21.49.245,arrow_simon_punish,2021.1.2,Win32,60.08532116,,,,,,,,,,,,,,p,1,1.609,2.23420496,1,1,9,1,37,1,1,,,,,,,,,,,,,,
,,,,,,,,,,,right.png,,p,left,5ec00f62cf12be40ea6fe344,2021-10-27_11h21.49.245,arrow_simon_punish,2021.1.2,Win32,60.08532116,,,,,,,,,,,,,,p,1,1.6584,2.444324243,1,1,9,2,38,0,1,,,,,,,,,,,,,,
,,,,,,,,,,,left.png,,w,left,5ec00f62cf12be40ea6fe344,2021-10-27_11h21.49.245,arrow_simon_punish,2021.1.2,Win32,60.08532116,,,,,,,,,,,,,,w,1,1.3402,1.711919417,1,1,9,3,39,2,1,,,,,,,,,,,,,,
,,,,,,,,,,,right.png,,p,right,5ec00f62cf12be40ea6fe344,2021-10-27_11h21.49.245,arrow_simon_punish,2021.1.2,Win32,60.08532116,,,,,,,,,,,,,,p,1,1.5394,1.893859042,0,1,10,0,40,1,1,,,,,,,,,,,,,,
,,,,,,,,,,,right.png,,p,left,5ec00f62cf12be40ea6fe344,2021-10-27_11h21.49.245,arrow_simon_punish,2021.1.2,Win32,60.08532116,,,,,,,,,,,,,,p,1,1.4123,1.671125702,0,1,10,1,41,0,1,,,,,,,,,,,,,,
,,,,,,,,,,,right.png,,p,right,5ec00f62cf12be40ea6fe344,2021-10-27_11h21.49.245,arrow_simon_punish,2021.1.2,Win32,60.08532116,,,,,,,,,,,,,,p,1,1.4108,1.591156357,0,1,10,2,42,1,1,,,,,,,,,,,,,,
,,,,,,,,,,,right.png,,p,left,5ec00f62cf12be40ea6fe344,2021-10-27_11h21.49.245,arrow_simon_punish,2021.1.2,Win32,60.08532116,,,,,,,,,,,,,,p,1,1.475,1.844363081,0,1,10,3,43,0,1,,,,,,,,,,,,,,
,,,,,,,,,,,right.png,,p,right,5ec00f62cf12be40ea6fe344,2021-10-27_11h21.49.245,arrow_simon_punish,2021.1.2,Win32,60.08532116,,,,,,,,,,,,,,p,1,1.6829,2.29544598,1,1,11,0,44,1,1,,,,,,,,,,,,,,
,,,,,,,,,,,left.png,,w,right,5ec00f62cf12be40ea6fe344,2021-10-27_11h21.49.245,arrow_simon_punish,2021.1.2,Win32,60.08532116,,,,,,,,,,,,,,w,1,1.4016,1.705616421,0,1,11,1,45,3,1,,,,,,,,,,,,,,
,,,,,,,,,,,left.png,,w,right,5ec00f62cf12be40ea6fe344,2021-10-27_11h21.49.245,arrow_simon_punish,2021.1.2,Win32,60.08532116,,,,,,,,,,,,,,w,1,1.3848,1.652428443,1,1,11,2,46,3,1,,,,,,,,,,,,,,
,,,,,,,,,,,left.png,,w,right,5ec00f62cf12be40ea6fe344,2021-10-27_11h21.49.245,arrow_simon_punish,2021.1.2,Win32,60.08532116,,,,,,,,,,,,,,w,1,1.5683,1.940986207,0,1,11,3,47,3,1,,,,,,,,,,,,,,
,,,,,,,,,,,right.png,,p,left,5ec00f62cf12be40ea6fe344,2021-10-27_11h21.49.245,arrow_simon_punish,2021.1.2,Win32,60.08532116,,,,,,,,,,,,,,p,1,1.3681,1.748994361,1,1,12,0,48,0,1,,,,,,,,,,,,,,
,,,,,,,,,,,right.png,,p,left,5ec00f62cf12be40ea6fe344,2021-10-27_11h21.49.245,arrow_simon_punish,2021.1.2,Win32,60.08532116,,,,,,,,,,,,,,p,1,1.4204,1.951371027,0,1,12,1,49,0,1,,,,,,,,,,,,,,
,,,,,,,,,,,left.png,,w,right,5ec00f62cf12be40ea6fe344,2021-10-27_11h21.49.245,arrow_simon_punish,2021.1.2,Win32,60.08532116,,,,,,,,,,,,,,w,1,1.4869,1.991326186,0,1,12,2,50,3,1,,,,,,,,,,,,,,
,,,,,,,,,,,right.png,,p,right,5ec00f62cf12be40ea6fe344,2021-10-27_11h21.49.245,arrow_simon_punish,2021.1.2,Win32,60.08532116,,,,,,,,,,,,,,p,1,1.5086,1.911255612,0,1,12,3,51,1,1,,,,,,,,,,,,,,
,,,,,,,,,,,right.png,,p,right,5ec00f62cf12be40ea6fe344,2021-10-27_11h21.49.245,arrow_simon_punish,2021.1.2,Win32,60.08532116,,,,,,,,,,,,,,p,1,1.5846,1.756686566,0,1,13,0,52,1,1,,,,,,,,,,,,,,
,,,,,,,,,,,left.png,,w,left,5ec00f62cf12be40ea6fe344,2021-10-27_11h21.49.245,arrow_simon_punish,2021.1.2,Win32,60.08532116,,,,,,,,,,,,,,w,1,1.5688,2.066339851,0,1,13,1,53,2,1,,,,,,,,,,,,,,
,,,,,,,,,,,left.png,,w,left,5ec00f62cf12be40ea6fe344,2021-10-27_11h21.49.245,arrow_simon_punish,2021.1.2,Win32,60.08532116,,,,,,,,,,,,,,w,1,1.4856,1.549545763,0,1,13,2,54,2,1,,,,,,,,,,,,,,
,,,,,,,,,,,left.png,,w,left,5ec00f62cf12be40ea6fe344,2021-10-27_11h21.49.245,arrow_simon_punish,2021.1.2,Win32,60.08532116,,,,,,,,,,,,,,w,1,1.468,1.892328314,0,1,13,3,55,2,1,,,,,,,,,,,,,,
,,,,,,,,,,,left.png,,w,left,5ec00f62cf12be40ea6fe344,2021-10-27_11h21.49.245,arrow_simon_punish,2021.1.2,Win32,60.08532116,,,,,,,,,,,,,,w,1,1.5267,1.83511923,0,1,14,0,56,2,1,,,,,,,,,,,,,,
,,,,,,,,,,,right.png,,p,left,5ec00f62cf12be40ea6fe344,2021-10-27_11h21.49.245,arrow_simon_punish,2021.1.2,Win32,60.08532116,,,,,,,,,,,,,,p,1,1.6654,1.942577588,1,1,14,1,57,0,1,,,,,,,,,,,,,,
,,,,,,,,,,,right.png,,p,left,5ec00f62cf12be40ea6fe344,2021-10-27_11h21.49.245,arrow_simon_punish,2021.1.2,Win32,60.08532116,,,,,,,,,,,,,,p,1,1.8585,2.40818612,1,1,14,2,58,0,1,,,,,,,,,,,,,,
,,,,,,,,,,,right.png,,p,left,5ec00f62cf12be40ea6fe344,2021-10-27_11h21.49.245,arrow_simon_punish,2021.1.2,Win32,60.08532116,,,,,,,,,,,,,,p,1,1.655,2.035872942,1,1,14,3,59,0,1,,,,,,,,,,,,,,
,,,,,,,,,,,,,,,5ec00f62cf12be40ea6fe344,2021-10-27_11h21.49.245,arrow_simon_punish,2021.1.2,Win32,60.08532116,,,,,,,,,,,,,,,,,,,,,,,,,space,7.3714,6,2,0,4,0,1,1,,,,,
,,,,,,,,,,,left.png,,w,left,5ec00f62cf12be40ea6fe344,2021-10-27_11h21.49.245,arrow_simon_punish,2021.1.2,Win32,60.08532116,,,,,,,,,,,,,,w,1,1.4944,2.092516705,0,5,0,0,0,2,1,,,,,,,,,,,,,,
,,,,,,,,,,,right.png,,p,right,5ec00f62cf12be40ea6fe344,2021-10-27_11h21.49.245,arrow_simon_punish,2021.1.2,Win32,60.08532116,,,,,,,,,,,,,,p,1,1.1197,1.581343967,1,5,0,1,1,1,1,,,,,,,,,,,,,,
,,,,,,,,,,,left.png,,w,right,5ec00f62cf12be40ea6fe344,2021-10-27_11h21.49.245,arrow_simon_punish,2021.1.2,Win32,60.08532116,,,,,,,,,,,,,,p,0,1.6061,2.323506385,1,5,0,2,2,3,1,,,,,,,,,,,,,,
,,,,,,,,,,,right.png,,p,right,5ec00f62cf12be40ea6fe344,2021-10-27_11h21.49.245,arrow_simon_punish,2021.1.2,Win32,60.08532116,,,,,,,,,,,,,,p,1,1.5553,1.519893881,0,5,0,3,3,1,1,,,,,,,,,,,,,,
,,,,,,,,,,,right.png,,p,right,5ec00f62cf12be40ea6fe344,2021-10-27_11h21.49.245,arrow_simon_punish,2021.1.2,Win32,60.08532116,,,,,,,,,,,,,,p,1,1.5434,1.781742194,0,5,1,0,4,1,1,,,,,,,,,,,,,,
,,,,,,,,,,,left.png,,w,right,5ec00f62cf12be40ea6fe344,2021-10-27_11h21.49.245,arrow_simon_punish,2021.1.2,Win32,60.08532116,,,,,,,,,,,,,,w,1,1.4361,1.704367477,0,5,1,1,5,3,1,,,,,,,,,,,,,,
,,,,,,,,,,,right.png,,p,right,5ec00f62cf12be40ea6fe344,2021-10-27_11h21.49.245,arrow_simon_punish,2021.1.2,Win32,60.08532116,,,,,,,,,,,,,,p,1,1.7193,2.084212559,1,5,1,2,6,1,1,,,,,,,,,,,,,,
,,,,,,,,,,,left.png,,w,left,5ec00f62cf12be40ea6fe344,2021-10-27_11h21.49.245,arrow_simon_punish,2021.1.2,Win32,60.08532116,,,,,,,,,,,,,,w,1,1.4683,1.829404967,0,5,1,3,7,2,1,,,,,,,,,,,,,,
,,,,,,,,,,,right.png,,p,left,5ec00f62cf12be40ea6fe344,2021-10-27_11h21.49.245,arrow_simon_punish,2021.1.2,Win32,60.08532116,,,,,,,,,,,,,,p,1,1.5182,1.921496217,0,5,2,0,8,0,1,,,,,,,,,,,,,,
,,,,,,,,,,,left.png,,w,right,5ec00f62cf12be40ea6fe344,2021-10-27_11h21.49.245,arrow_simon_punish,2021.1.2,Win32,60.08532116,,,,,,,,,,,,,,w,1,1.435,1.837028652,0,5,2,1,9,3,1,,,,,,,,,,,,,,
,,,,,,,,,,,left.png,,w,left,5ec00f62cf12be40ea6fe344,2021-10-27_11h21.49.245,arrow_simon_punish,2021.1.2,Win32,60.08532116,,,,,,,,,,,,,,w,1,1.5438,1.591689731,0,5,2,2,10,2,1,,,,,,,,,,,,,,
,,,,,,,,,,,left.png,,w,right,5ec00f62cf12be40ea6fe344,2021-10-27_11h21.49.245,arrow_simon_punish,2021.1.2,Win32,60.08532116,,,,,,,,,,,,,,p,0,1.7455,2.455164336,1,5,2,3,11,3,1,,,,,,,,,,,,,,
,,,,,,,,,,,right.png,,p,right,5ec00f62cf12be40ea6fe344,2021-10-27_11h21.49.245,arrow_simon_punish,2021.1.2,Win32,60.08532116,,,,,,,,,,,,,,p,1,1.8238,2.232401728,1,5,3,0,12,1,1,,,,,,,,,,,,,,
,,,,,,,,,,,left.png,,w,left,5ec00f62cf12be40ea6fe344,2021-10-27_11h21.49.245,arrow_simon_punish,2021.1.2,Win32,60.08532116,,,,,,,,,,,,,,w,1,1.7121,2.379118186,1,5,3,1,13,2,1,,,,,,,,,,,,,,
,,,,,,,,,,,right.png,,p,left,5ec00f62cf12be40ea6fe344,2021-10-27_11h21.49.245,arrow_simon_punish,2021.1.2,Win32,60.08532116,,,,,,,,,,,,,,p,1,1.5855,2.002462409,0,5,3,2,14,0,1,,,,,,,,,,,,,,
,,,,,,,,,,,right.png,,p,left,5ec00f62cf12be40ea6fe344,2021-10-27_11h21.49.245,arrow_simon_punish,2021.1.2,Win32,60.08532116,,,,,,,,,,,,,,p,1,1.219,1.767230317,1,5,3,3,15,0,1,,,,,,,,,,,,,,
,,,,,,,,,,,left.png,,w,left,5ec00f62cf12be40ea6fe344,2021-10-27_11h21.49.245,arrow_simon_punish,2021.1.2,Win32,60.08532116,,,,,,,,,,,,,,w,1,1.527,2.061618791,0,5,4,0,16,2,1,,,,,,,,,,,,,,
,,,,,,,,,,,right.png,,p,left,5ec00f62cf12be40ea6fe344,2021-10-27_11h21.49.245,arrow_simon_punish,2021.1.2,Win32,60.08532116,,,,,,,,,,,,,,p,1,1.3515,1.574999027,1,5,4,1,17,0,1,,,,,,,,,,,,,,
,,,,,,,,,,,right.png,,p,right,5ec00f62cf12be40ea6fe344,2021-10-27_11h21.49.245,arrow_simon_punish,2021.1.2,Win32,60.08532116,,,,,,,,,,,,,,p,1,1.5097,1.582053752,0,5,4,2,18,1,1,,,,,,,,,,,,,,
,,,,,,,,,,,right.png,,p,left,5ec00f62cf12be40ea6fe344,2021-10-27_11h21.49.245,arrow_simon_punish,2021.1.2,Win32,60.08532116,,,,,,,,,,,,,,p,1,1.8256,1.870602531,1,5,4,3,19,0,1,,,,,,,,,,,,,,
,,,,,,,,,,,right.png,,p,right,5ec00f62cf12be40ea6fe344,2021-10-27_11h21.49.245,arrow_simon_punish,2021.1.2,Win32,60.08532116,,,,,,,,,,,,,,p,1,1.2518,1.553892794,1,5,5,0,20,1,1,,,,,,,,,,,,,,
,,,,,,,,,,,left.png,,w,left,5ec00f62cf12be40ea6fe344,2021-10-27_11h21.49.245,arrow_simon_punish,2021.1.2,Win32,60.08532116,,,,,,,,,,,,,,p,0,1.5845,2.392366526,1,5,5,1,21,2,1,,,,,,,,,,,,,,
,,,,,,,,,,,left.png,,w,left,5ec00f62cf12be40ea6fe344,2021-10-27_11h21.49.245,arrow_simon_punish,2021.1.2,Win32,60.08532116,,,,,,,,,,,,,,w,1,1.5854,2.316965394,0,5,5,2,22,2,1,,,,,,,,,,,,,,
,,,,,,,,,,,right.png,,p,left,5ec00f62cf12be40ea6fe344,2021-10-27_11h21.49.245,arrow_simon_punish,2021.1.2,Win32,60.08532116,,,,,,,,,,,,,,w,0,1.6682,2.356859367,1,5,5,3,23,0,1,,,,,,,,,,,,,,
,,,,,,,,,,,right.png,,p,left,5ec00f62cf12be40ea6fe344,2021-10-27_11h21.49.245,arrow_simon_punish,2021.1.2,Win32,60.08532116,,,,,,,,,,,,,,p,1,1.3519,1.81846881,1,5,6,0,24,0,1,,,,,,,,,,,,,,
,,,,,,,,,,,left.png,,w,right,5ec00f62cf12be40ea6fe344,2021-10-27_11h21.49.245,arrow_simon_punish,2021.1.2,Win32,60.08532116,,,,,,,,,,,,,,p,0,1.4845,2.293123452,1,5,6,1,25,3,1,,,,,,,,,,,,,,
,,,,,,,,,,,left.png,,w,right,5ec00f62cf12be40ea6fe344,2021-10-27_11h21.49.245,arrow_simon_punish,2021.1.2,Win32,60.08532116,,,,,,,,,,,,,,w,1,1.3612,1.562505305,1,5,6,2,26,3,1,,,,,,,,,,,,,,
,,,,,,,,,,,right.png,,p,right,5ec00f62cf12be40ea6fe344,2021-10-27_11h21.49.245,arrow_simon_punish,2021.1.2,Win32,60.08532116,,,,,,,,,,,,,,p,1,1.6032,1.763624044,1,5,6,3,27,1,1,,,,,,,,,,,,,,
,,,,,,,,,,,right.png,,p,left,5ec00f62cf12be40ea6fe344,2021-10-27_11h21.49.245,arrow_simon_punish,2021.1.2,Win32,60.08532116,,,,,,,,,,,,,,w,0,1.6257,2.315916651,1,5,7,0,28,0,1,,,,,,,,,,,,,,
,,,,,,,,,,,right.png,,p,right,5ec00f62cf12be40ea6fe344,2021-10-27_11h21.49.245,arrow_simon_punish,2021.1.2,Win32,60.08532116,,,,,,,,,,,,,,p,1,1.4455,1.763198326,0,5,7,1,29,1,1,,,,,,,,,,,,,,
,,,,,,,,,,,left.png,,w,left,5ec00f62cf12be40ea6fe344,2021-10-27_11h21.49.245,arrow_simon_punish,2021.1.2,Win32,60.08532116,,,,,,,,,,,,,,w,1,1.4616,1.576428648,0,5,7,2,30,2,1,,,,,,,,,,,,,,
,,,,,,,,,,,left.png,,w,right,5ec00f62cf12be40ea6fe344,2021-10-27_11h21.49.245,arrow_simon_punish,2021.1.2,Win32,60.08532116,,,,,,,,,,,,,,p,0,1.4558,2.115585325,1,5,7,3,31,3,1,,,,,,,,,,,,,,
,,,,,,,,,,,left.png,,w,left,5ec00f62cf12be40ea6fe344,2021-10-27_11h21.49.245,arrow_simon_punish,2021.1.2,Win32,60.08532116,,,,,,,,,,,,,,w,1,1.4018,2.055616537,0,5,8,0,32,2,1,,,,,,,,,,,,,,
,,,,,,,,,,,left.png,,w,left,5ec00f62cf12be40ea6fe344,2021-10-27_11h21.49.245,arrow_simon_punish,2021.1.2,Win32,60.08532116,,,,,,,,,,,,,,w,1,1.5141,2.26953307,0,5,8,1,33,2,1,,,,,,,,,,,,,,
,,,,,,,,,,,left.png,,w,right,5ec00f62cf12be40ea6fe344,2021-10-27_11h21.49.245,arrow_simon_punish,2021.1.2,Win32,60.08532116,,,,,,,,,,,,,,w,1,1.2853,1.650898003,1,5,8,2,34,3,1,,,,,,,,,,,,,,
,,,,,,,,,,,left.png,,w,right,5ec00f62cf12be40ea6fe344,2021-10-27_11h21.49.245,arrow_simon_punish,2021.1.2,Win32,60.08532116,,,,,,,,,,,,,,p,0,1.4349,2.213175084,1,5,8,3,35,3,1,,,,,,,,,,,,,,
,,,,,,,,,,,left.png,,w,left,5ec00f62cf12be40ea6fe344,2021-10-27_11h21.49.245,arrow_simon_punish,2021.1.2,Win32,60.08532116,,,,,,,,,,,,,,w,1,1.5267,2.448887927,0,5,9,0,36,2,1,,,,,,,,,,,,,,
,,,,,,,,,,,left.png,,w,right,5ec00f62cf12be40ea6fe344,2021-10-27_11h21.49.245,arrow_simon_punish,2021.1.2,Win32,60.08532116,,,,,,,,,,,,,,w,1,1.5242,1.718779294,0,5,9,1,37,3,1,,,,,,,,,,,,,,
,,,,,,,,,,,left.png,,w,right,5ec00f62cf12be40ea6fe344,2021-10-27_11h21.49.245,arrow_simon_punish,2021.1.2,Win32,60.08532116,,,,,,,,,,,,,,w,1,1.6531,1.989209323,1,5,9,2,38,3,1,,,,,,,,,,,,,,
,,,,,,,,,,,right.png,,p,left,5ec00f62cf12be40ea6fe344,2021-10-27_11h21.49.245,arrow_simon_punish,2021.1.2,Win32,60.08532116,,,,,,,,,,,,,,p,1,1.4109,1.575973658,0,5,9,3,39,0,1,,,,,,,,,,,,,,
,,,,,,,,,,,right.png,,p,left,5ec00f62cf12be40ea6fe344,2021-10-27_11h21.49.245,arrow_simon_punish,2021.1.2,Win32,60.08532116,,,,,,,,,,,,,,p,1,1.6517,1.959075069,1,5,10,0,40,0,1,,,,,,,,,,,,,,
,,,,,,,,,,,right.png,,p,left,5ec00f62cf12be40ea6fe344,2021-10-27_11h21.49.245,arrow_simon_punish,2021.1.2,Win32,60.08532116,,,,,,,,,,,,,,p,1,1.8689,2.494540881,1,5,10,1,41,0,1,,,,,,,,,,,,,,
,,,,,,,,,,,left.png,,w,right,5ec00f62cf12be40ea6fe344,2021-10-27_11h21.49.245,arrow_simon_punish,2021.1.2,Win32,60.08532116,,,,,,,,,,,,,,w,1,1.6233,1.995552728,1,5,10,2,42,3,1,,,,,,,,,,,,,,
,,,,,,,,,,,right.png,,p,left,5ec00f62cf12be40ea6fe344,2021-10-27_11h21.49.245,arrow_simon_punish,2021.1.2,Win32,60.08532116,,,,,,,,,,,,,,w,0,1.6784,2.405738169,1,5,10,3,43,0,1,,,,,,,,,,,,,,
,,,,,,,,,,,right.png,,p,right,5ec00f62cf12be40ea6fe344,2021-10-27_11h21.49.245,arrow_simon_punish,2021.1.2,Win32,60.08532116,,,,,,,,,,,,,,p,1,1.3901,2.017407119,1,5,11,0,44,1,1,,,,,,,,,,,,,,
,,,,,,,,,,,left.png,,w,right,5ec00f62cf12be40ea6fe344,2021-10-27_11h21.49.245,arrow_simon_punish,2021.1.2,Win32,60.08532116,,,,,,,,,,,,,,w,1,1.4526,1.943845206,0,5,11,1,45,3,1,,,,,,,,,,,,,,
,,,,,,,,,,,left.png,,w,left,5ec00f62cf12be40ea6fe344,2021-10-27_11h21.49.245,arrow_simon_punish,2021.1.2,Win32,60.08532116,,,,,,,,,,,,,,w,1,1.3687,1.973095916,1,5,11,2,46,2,1,,,,,,,,,,,,,,
,,,,,,,,,,,left.png,,w,left,5ec00f62cf12be40ea6fe344,2021-10-27_11h21.49.245,arrow_simon_punish,2021.1.2,Win32,60.08532116,,,,,,,,,,,,,,w,1,1.5427,1.91268662,0,5,11,3,47,2,1,,,,,,,,,,,,,,
,,,,,,,,,,,right.png,,p,left,5ec00f62cf12be40ea6fe344,2021-10-27_11h21.49.245,arrow_simon_punish,2021.1.2,Win32,60.08532116,,,,,,,,,,,,,,w,0,1.4866,2.246907204,1,5,12,0,48,0,1,,,,,,,,,,,,,,
,,,,,,,,,,,left.png,,w,left,5ec00f62cf12be40ea6fe344,2021-10-27_11h21.49.245,arrow_simon_punish,2021.1.2,Win32,60.08532116,,,,,,,,,,,,,,w,1,1.7923,2.436233735,1,5,12,1,49,2,1,,,,,,,,,,,,,,
,,,,,,,,,,,right.png,,p,right,5ec00f62cf12be40ea6fe344,2021-10-27_11h21.49.245,arrow_simon_punish,2021.1.2,Win32,60.08532116,,,,,,,,,,,,,,p,1,1.5472,2.131449798,0,5,12,2,50,1,1,,,,,,,,,,,,,,
,,,,,,,,,,,left.png,,w,right,5ec00f62cf12be40ea6fe344,2021-10-27_11h21.49.245,arrow_simon_punish,2021.1.2,Win32,60.08532116,,,,,,,,,,,,,,w,1,1.2855,1.601653037,1,5,12,3,51,3,1,,,,,,,,,,,,,,
,,,,,,,,,,,left.png,,w,left,5ec00f62cf12be40ea6fe344,2021-10-27_11h21.49.245,arrow_simon_punish,2021.1.2,Win32,60.08532116,,,,,,,,,,,,,,w,1,1.3355,2.049898383,1,5,13,0,52,2,1,,,,,,,,,,,,,,
,,,,,,,,,,,right.png,,p,right,5ec00f62cf12be40ea6fe344,2021-10-27_11h21.49.245,arrow_simon_punish,2021.1.2,Win32,60.08532116,,,,,,,,,,,,,,p,1,1.4019,1.670722205,0,5,13,1,53,1,1,,,,,,,,,,,,,,
,,,,,,,,,,,right.png,,p,left,5ec00f62cf12be40ea6fe344,2021-10-27_11h21.49.245,arrow_simon_punish,2021.1.2,Win32,60.08532116,,,,,,,,,,,,,,p,1,1.3318,1.520521169,1,5,13,2,54,0,1,,,,,,,,,,,,,,
,,,,,,,,,,,right.png,,p,left,5ec00f62cf12be40ea6fe344,2021-10-27_11h21.49.245,arrow_simon_punish,2021.1.2,Win32,60.08532116,,,,,,,,,,,,,,w,0,1.6706,2.399146096,1,5,13,3,55,0,1,,,,,,,,,,,,,,
,,,,,,,,,,,right.png,,p,right,5ec00f62cf12be40ea6fe344,2021-10-27_11h21.49.245,arrow_simon_punish,2021.1.2,Win32,60.08532116,,,,,,,,,,,,,,p,1,1.4686,1.780780734,0,5,14,0,56,1,1,,,,,,,,,,,,,,
,,,,,,,,,,,right.png,,p,right,5ec00f62cf12be40ea6fe344,2021-10-27_11h21.49.245,arrow_simon_punish,2021.1.2,Win32,60.08532116,,,,,,,,,,,,,,p,1,1.7825,2.370594241,1,5,14,1,57,1,1,,,,,,,,,,,,,,
,,,,,,,,,,,left.png,,w,right,5ec00f62cf12be40ea6fe344,2021-10-27_11h21.49.245,arrow_simon_punish,2021.1.2,Win32,60.08532116,,,,,,,,,,,,,,w,1,1.4346,1.951486461,0,5,14,2,58,3,1,,,,,,,,,,,,,,
,,,,,,,,,,,right.png,,p,right,5ec00f62cf12be40ea6fe344,2021-10-27_11h21.49.245,arrow_simon_punish,2021.1.2,Win32,60.08532116,,,,,,,,,,,,,,p,1,1.3277,1.655400021,1,5,14,3,59,1,1,,,,,,,,,,,,,,
,,,,,,,,,,,,,,,5ec00f62cf12be40ea6fe344,2021-10-27_11h21.49.245,arrow_simon_punish,2021.1.2,Win32,60.08532116,,,,,,,,,,,,,,,,,,,,,,,,,space,6.7539,7,2,1,5,1,1,5,,,,,
,,,,,,,,,,,left.png,,w,left,5ec00f62cf12be40ea6fe344,2021-10-27_11h21.49.245,arrow_simon_punish,2021.1.2,Win32,60.08532116,,,,,,,,,,,,,,w,1,1.6187,2.163753991,1,1,0,0,0,2,1,,,,,,,,,,,,,,
,,,,,,,,,,,right.png,,p,left,5ec00f62cf12be40ea6fe344,2021-10-27_11h21.49.245,arrow_simon_punish,2021.1.2,Win32,60.08532116,,,,,,,,,,,,,,w,0,1.5737,2.270806429,1,1,0,1,1,0,1,,,,,,,,,,,,,,
,,,,,,,,,,,left.png,,w,right,5ec00f62cf12be40ea6fe344,2021-10-27_11h21.49.245,arrow_simon_punish,2021.1.2,Win32,60.08532116,,,,,,,,,,,,,,w,1,1.487,2.030247127,0,1,0,2,2,3,1,,,,,,,,,,,,,,
,,,,,,,,,,,right.png,,p,right,5ec00f62cf12be40ea6fe344,2021-10-27_11h21.49.245,arrow_simon_punish,2021.1.2,Win32,60.08532116,,,,,,,,,,,,,,p,1,1.4854,2.1958965,0,1,0,3,3,1,1,,,,,,,,,,,,,,
,,,,,,,,,,,right.png,,p,right,5ec00f62cf12be40ea6fe344,2021-10-27_11h21.49.245,arrow_simon_punish,2021.1.2,Win32,60.08532116,,,,,,,,,,,,,,p,1,1.4383,1.80210806,0,1,1,0,4,1,1,,,,,,,,,,,,,,
,,,,,,,,,,,left.png,,w,left,5ec00f62cf12be40ea6fe344,2021-10-27_11h21.49.245,arrow_simon_punish,2021.1.2,Win32,60.08532116,,,,,,,,,,,,,,w,1,1.5372,2.18042647,0,1,1,1,5,2,1,,,,,,,,,,,,,,
,,,,,,,,,,,left.png,,w,left,5ec00f62cf12be40ea6fe344,2021-10-27_11h21.49.245,arrow_simon_punish,2021.1.2,Win32,60.08532116,,,,,,,,,,,,,,w,1,1.5258,2.187188535,0,1,1,2,6,2,1,,,,,,,,,,,,,,
,,,,,,,,,,,right.png,,p,left,5ec00f62cf12be40ea6fe344,2021-10-27_11h21.49.245,arrow_simon_punish,2021.1.2,Win32,60.08532116,,,,,,,,,,,,,,w,0,1.4439,2.105043996,1,1,1,3,7,0,1,,,,,,,,,,,,,,
,,,,,,,,,,,left.png,,w,right,5ec00f62cf12be40ea6fe344,2021-10-27_11h21.49.245,arrow_simon_punish,2021.1.2,Win32,60.08532116,,,,,,,,,,,,,,w,1,1.4023,1.768524805,0,1,2,0,8,3,1,,,,,,,,,,,,,,
,,,,,,,,,,,right.png,,p,left,5ec00f62cf12be40ea6fe344,2021-10-27_11h21.49.245,arrow_simon_punish,2021.1.2,Win32,60.08532116,,,,,,,,,,,,,,p,1,1.2774,1.771812741,1,1,2,1,9,0,1,,,,,,,,,,,,,,
,,,,,,,,,,,left.png,,w,right,5ec00f62cf12be40ea6fe344,2021-10-27_11h21.49.245,arrow_simon_punish,2021.1.2,Win32,60.08532116,,,,,,,,,,,,,,p,0,1.6514,2.416460001,1,1,2,2,10,3,1,,,,,,,,,,,,,,
,,,,,,,,,,,right.png,,p,right,5ec00f62cf12be40ea6fe344,2021-10-27_11h21.49.245,arrow_simon_punish,2021.1.2,Win32,60.08532116,,,,,,,,,,,,,,w,0,1.6774,2.372330654,1,1,2,3,11,1,1,,,,,,,,,,,,,,
,,,,,,,,,,,right.png,,p,right,5ec00f62cf12be40ea6fe344,2021-10-27_11h21.49.245,arrow_simon_punish,2021.1.2,Win32,60.08532116,,,,,,,,,,,,,,p,1,1.419,2.046809554,0,1,3,0,12,1,1,,,,,,,,,,,,,,
,,,,,,,,,,,left.png,,w,left,5ec00f62cf12be40ea6fe344,2021-10-27_11h21.49.245,arrow_simon_punish,2021.1.2,Win32,60.08532116,,,,,,,,,,,,,,w,1,1.7782,2.479593125,1,1,3,1,13,2,1,,,,,,,,,,,,,,
,,,,,,,,,,,right.png,,p,right,5ec00f62cf12be40ea6fe344,2021-10-27_11h21.49.245,arrow_simon_punish,2021.1.2,Win32,60.08532116,,,,,,,,,,,,,,p,1,1.9037,2.380362466,1,1,3,2,14,1,1,,,,,,,,,,,,,,
,,,,,,,,,,,left.png,,w,right,5ec00f62cf12be40ea6fe344,2021-10-27_11h21.49.245,arrow_simon_punish,2021.1.2,Win32,60.08532116,,,,,,,,,,,,,,p,0,1.6694,2.322787281,1,1,3,3,15,3,1,,,,,,,,,,,,,,
,,,,,,,,,,,left.png,,w,right,5ec00f62cf12be40ea6fe344,2021-10-27_11h21.49.245,arrow_simon_punish,2021.1.2,Win32,60.08532116,,,,,,,,,,,,,,w,1,1.7255,2.317844283,1,1,4,0,16,3,1,,,,,,,,,,,,,,
,,,,,,,,,,,right.png,,p,right,5ec00f62cf12be40ea6fe344,2021-10-27_11h21.49.245,arrow_simon_punish,2021.1.2,Win32,60.08532116,,,,,,,,,,,,,,p,1,1.1783,1.682763232,1,1,4,1,17,1,1,,,,,,,,,,,,,,
,,,,,,,,,,,left.png,,w,right,5ec00f62cf12be40ea6fe344,2021-10-27_11h21.49.245,arrow_simon_punish,2021.1.2,Win32,60.08532116,,,,,,,,,,,,,,w,1,1.0525,1.570335278,1,1,4,2,18,3,1,,,,,,,,,,,,,,
,,,,,,,,,,,left.png,,w,left,5ec00f62cf12be40ea6fe344,2021-10-27_11h21.49.245,arrow_simon_punish,2021.1.2,Win32,60.08532116,,,,,,,,,,,,,,w,1,1.7096,2.383532496,1,1,4,3,19,2,1,,,,,,,,,,,,,,
,,,,,,,,,,,left.png,,w,right,5ec00f62cf12be40ea6fe344,2021-10-27_11h21.49.245,arrow_simon_punish,2021.1.2,Win32,60.08532116,,,,,,,,,,,,,,w,1,1.4443,1.51650279,0,1,5,0,20,3,1,,,,,,,,,,,,,,
,,,,,,,,,,,right.png,,p,right,5ec00f62cf12be40ea6fe344,2021-10-27_11h21.49.245,arrow_simon_punish,2021.1.2,Win32,60.08532116,,,,,,,,,,,,,,p,1,1.6222,1.944333805,1,1,5,1,21,1,1,,,,,,,,,,,,,,
,,,,,,,,,,,left.png,,w,right,5ec00f62cf12be40ea6fe344,2021-10-27_11h21.49.245,arrow_simon_punish,2021.1.2,Win32,60.08532116,,,,,,,,,,,,,,w,1,1.4533,1.753572905,0,1,5,2,22,3,1,,,,,,,,,,,,,,
,,,,,,,,,,,right.png,,p,left,5ec00f62cf12be40ea6fe344,2021-10-27_11h21.49.245,arrow_simon_punish,2021.1.2,Win32,60.08532116,,,,,,,,,,,,,,p,1,1.3781,1.721152086,1,1,5,3,23,0,1,,,,,,,,,,,,,,
,,,,,,,,,,,right.png,,p,right,5ec00f62cf12be40ea6fe344,2021-10-27_11h21.49.245,arrow_simon_punish,2021.1.2,Win32,60.08532116,,,,,,,,,,,,,,p,1,1.5241,1.675321754,0,1,6,0,24,1,1,,,,,,,,,,,,,,
,,,,,,,,,,,right.png,,p,left,5ec00f62cf12be40ea6fe344,2021-10-27_11h21.49.245,arrow_simon_punish,2021.1.2,Win32,60.08532116,,,,,,,,,,,,,,p,1,1.5456,1.85557623,0,1,6,1,25,0,1,,,,,,,,,,,,,,
,,,,,,,,,,,right.png,,p,right,5ec00f62cf12be40ea6fe344,2021-10-27_11h21.49.245,arrow_simon_punish,2021.1.2,Win32,60.08532116,,,,,,,,,,,,,,p,1,1.4596,2.092638849,0,1,6,2,26,1,1,,,,,,,,,,,,,,
,,,,,,,,,,,right.png,,p,left,5ec00f62cf12be40ea6fe344,2021-10-27_11h21.49.245,arrow_simon_punish,2021.1.2,Win32,60.08532116,,,,,,,,,,,,,,p,1,1.2264,1.620997123,1,1,6,3,27,0,1,,,,,,,,,,,,,,
,,,,,,,,,,,left.png,,w,left,5ec00f62cf12be40ea6fe344,2021-10-27_11h21.49.245,arrow_simon_punish,2021.1.2,Win32,60.08532116,,,,,,,,,,,,,,w,1,1.5404,1.774085488,0,1,7,0,28,2,1,,,,,,,,,,,,,,
,,,,,,,,,,,left.png,,w,right,5ec00f62cf12be40ea6fe344,2021-10-27_11h21.49.245,arrow_simon_punish,2021.1.2,Win32,60.08532116,,,,,,,,,,,,,,p,0,1.6234,2.28548561,1,1,7,1,29,3,1,,,,,,,,,,,,,,
,,,,,,,,,,,right.png,,p,left,5ec00f62cf12be40ea6fe344,2021-10-27_11h21.49.245,arrow_simon_punish,2021.1.2,Win32,60.08532116,,,,,,,,,,,,,,w,0,1.925,2.48302239,1,1,7,2,30,0,1,,,,,,,,,,,,,,
,,,,,,,,,,,right.png,,p,left,5ec00f62cf12be40ea6fe344,2021-10-27_11h21.49.245,arrow_simon_punish,2021.1.2,Win32,60.08532116,,,,,,,,,,,,,,p,1,1.5422,2.011637929,0,1,7,3,31,0,1,,,,,,,,,,,,,,
,,,,,,,,,,,left.png,,w,right,5ec00f62cf12be40ea6fe344,2021-10-27_11h21.49.245,arrow_simon_punish,2021.1.2,Win32,60.08532116,,,,,,,,,,,,,,w,1,1.5883,1.591701839,0,1,8,0,32,3,1,,,,,,,,,,,,,,
,,,,,,,,,,,right.png,,p,right,5ec00f62cf12be40ea6fe344,2021-10-27_11h21.49.245,arrow_simon_punish,2021.1.2,Win32,60.08532116,,,,,,,,,,,,,,p,1,1.7038,2.346284001,1,1,8,1,33,1,1,,,,,,,,,,,,,,
,,,,,,,,,,,right.png,,p,left,5ec00f62cf12be40ea6fe344,2021-10-27_11h21.49.245,arrow_simon_punish,2021.1.2,Win32,60.08532116,,,,,,,,,,,,,,p,1,1.542,1.648178279,0,1,8,2,34,0,1,,,,,,,,,,,,,,
,,,,,,,,,,,left.png,,w,left,5ec00f62cf12be40ea6fe344,2021-10-27_11h21.49.245,arrow_simon_punish,2021.1.2,Win32,60.08532116,,,,,,,,,,,,,,w,1,1.4597,1.992166727,0,1,8,3,35,2,1,,,,,,,,,,,,,,
,,,,,,,,,,,left.png,,w,left,5ec00f62cf12be40ea6fe344,2021-10-27_11h21.49.245,arrow_simon_punish,2021.1.2,Win32,60.08532116,,,,,,,,,,,,,,w,1,1.669,2.293732969,1,1,9,0,36,2,1,,,,,,,,,,,,,,
,,,,,,,,,,,right.png,,p,right,5ec00f62cf12be40ea6fe344,2021-10-27_11h21.49.245,arrow_simon_punish,2021.1.2,Win32,60.08532116,,,,,,,,,,,,,,p,1,1.2053,1.626938412,1,1,9,1,37,1,1,,,,,,,,,,,,,,
,,,,,,,,,,,left.png,,w,right,5ec00f62cf12be40ea6fe344,2021-10-27_11h21.49.245,arrow_simon_punish,2021.1.2,Win32,60.08532116,,,,,,,,,,,,,,p,0,1.5694,2.238743005,1,1,9,2,38,3,1,,,,,,,,,,,,,,
,,,,,,,,,,,right.png,,p,right,5ec00f62cf12be40ea6fe344,2021-10-27_11h21.49.245,arrow_simon_punish,2021.1.2,Win32,60.08532116,,,,,,,,,,,,,,p,1,1.5033,2.109667336,0,1,9,3,39,1,1,,,,,,,,,,,,,,
,,,,,,,,,,,left.png,,w,left,5ec00f62cf12be40ea6fe344,2021-10-27_11h21.49.245,arrow_simon_punish,2021.1.2,Win32,60.08532116,,,,,,,,,,,,,,w,1,1.5851,2.181690279,0,1,10,0,40,2,1,,,,,,,,,,,,,,
,,,,,,,,,,,right.png,,p,left,5ec00f62cf12be40ea6fe344,2021-10-27_11h21.49.245,arrow_simon_punish,2021.1.2,Win32,60.08532116,,,,,,,,,,,,,,p,1,1.5594,2.022959121,0,1,10,1,41,0,1,,,,,,,,,,,,,,
,,,,,,,,,,,right.png,,p,left,5ec00f62cf12be40ea6fe344,2021-10-27_11h21.49.245,arrow_simon_punish,2021.1.2,Win32,60.08532116,,,,,,,,,,,,,,p,1,1.3366,1.795090758,1,1,10,2,42,0,1,,,,,,,,,,,,,,
,,,,,,,,,,,left.png,,w,right,5ec00f62cf12be40ea6fe344,2021-10-27_11h21.49.245,arrow_simon_punish,2021.1.2,Win32,60.08532116,,,,,,,,,,,,,,w,1,1.5522,1.606295612,0,1,10,3,43,3,1,,,,,,,,,,,,,,
,,,,,,,,,,,right.png,,p,left,5ec00f62cf12be40ea6fe344,2021-10-27_11h21.49.245,arrow_simon_punish,2021.1.2,Win32,60.08532116,,,,,,,,,,,,,,p,1,1.5874,2.155006448,0,1,11,0,44,0,1,,,,,,,,,,,,,,
,,,,,,,,,,,right.png,,p,left,5ec00f62cf12be40ea6fe344,2021-10-27_11h21.49.245,arrow_simon_punish,2021.1.2,Win32,60.08532116,,,,,,,,,,,,,,p,1,1.6468,1.735828057,1,1,11,1,45,0,1,,,,,,,,,,,,,,
,,,,,,,,,,,left.png,,w,right,5ec00f62cf12be40ea6fe344,2021-10-27_11h21.49.245,arrow_simon_punish,2021.1.2,Win32,60.08532116,,,,,,,,,,,,,,w,1,1.5215,1.832444972,0,1,11,2,46,3,1,,,,,,,,,,,,,,
,,,,,,,,,,,right.png,,p,left,5ec00f62cf12be40ea6fe344,2021-10-27_11h21.49.245,arrow_simon_punish,2021.1.2,Win32,60.08532116,,,,,,,,,,,,,,p,1,1.536,2.103902924,0,1,11,3,47,0,1,,,,,,,,,,,,,,
,,,,,,,,,,,left.png,,w,left,5ec00f62cf12be40ea6fe344,2021-10-27_11h21.49.245,arrow_simon_punish,2021.1.2,Win32,60.08532116,,,,,,,,,,,,,,w,1,1.7971,2.456862361,1,1,12,0,48,2,1,,,,,,,,,,,,,,
,,,,,,,,,,,left.png,,w,right,5ec00f62cf12be40ea6fe344,2021-10-27_11h21.49.245,arrow_simon_punish,2021.1.2,Win32,60.08532116,,,,,,,,,,,,,,w,1,1.7363,2.266090313,1,1,12,1,49,3,1,,,,,,,,,,,,,,
,,,,,,,,,,,right.png,,p,right,5ec00f62cf12be40ea6fe344,2021-10-27_11h21.49.245,arrow_simon_punish,2021.1.2,Win32,60.08532116,,,,,,,,,,,,,,p,1,1.4053,1.742822893,0,1,12,2,50,1,1,,,,,,,,,,,,,,
,,,,,,,,,,,right.png,,p,left,5ec00f62cf12be40ea6fe344,2021-10-27_11h21.49.245,arrow_simon_punish,2021.1.2,Win32,60.08532116,,,,,,,,,,,,,,p,1,1.4013,1.536979939,0,1,12,3,51,0,1,,,,,,,,,,,,,,
,,,,,,,,,,,right.png,,p,right,5ec00f62cf12be40ea6fe344,2021-10-27_11h21.49.245,arrow_simon_punish,2021.1.2,Win32,60.08532116,,,,,,,,,,,,,,p,1,1.7187,2.441365377,1,1,13,0,52,1,1,,,,,,,,,,,,,,
,,,,,,,,,,,left.png,,w,right,5ec00f62cf12be40ea6fe344,2021-10-27_11h21.49.245,arrow_simon_punish,2021.1.2,Win32,60.08532116,,,,,,,,,,,,,,p,0,1.6351,2.257651487,1,1,13,1,53,3,1,,,,,,,,,,,,,,
,,,,,,,,,,,left.png,,w,left,5ec00f62cf12be40ea6fe344,2021-10-27_11h21.49.245,arrow_simon_punish,2021.1.2,Win32,60.08532116,,,,,,,,,,,,,,w,1,1.687,2.353098805,1,1,13,2,54,2,1,,,,,,,,,,,,,,
,,,,,,,,,,,left.png,,w,left,5ec00f62cf12be40ea6fe344,2021-10-27_11h21.49.245,arrow_simon_punish,2021.1.2,Win32,60.08532116,,,,,,,,,,,,,,w,1,1.5181,2.098471009,0,1,13,3,55,2,1,,,,,,,,,,,,,,
,,,,,,,,,,,left.png,,w,left,5ec00f62cf12be40ea6fe344,2021-10-27_11h21.49.245,arrow_simon_punish,2021.1.2,Win32,60.08532116,,,,,,,,,,,,,,w,1,1.286,1.920293678,1,1,14,0,56,2,1,,,,,,,,,,,,,,
,,,,,,,,,,,left.png,,w,left,5ec00f62cf12be40ea6fe344,2021-10-27_11h21.49.245,arrow_simon_punish,2021.1.2,Win32,60.08532116,,,,,,,,,,,,,,w,1,1.2519,1.873553982,1,1,14,1,57,2,1,,,,,,,,,,,,,,
,,,,,,,,,,,left.png,,w,left,5ec00f62cf12be40ea6fe344,2021-10-27_11h21.49.245,arrow_simon_punish,2021.1.2,Win32,60.08532116,,,,,,,,,,,,,,w,1,1.5516,2.063199652,0,1,14,2,58,2,1,,,,,,,,,,,,,,
,,,,,,,,,,,right.png,,p,right,5ec00f62cf12be40ea6fe344,2021-10-27_11h21.49.245,arrow_simon_punish,2021.1.2,Win32,60.08532116,,,,,,,,,,,,,,p,1,1.8856,2.302898576,1,1,14,3,59,1,1,,,,,,,,,,,,,,
,,,,,,,,,,,,,,,5ec00f62cf12be40ea6fe344,2021-10-27_11h21.49.245,arrow_simon_punish,2021.1.2,Win32,60.08532116,,,,,,,,,,,,,,,,,,,,,,,,,space,123.4516,8,3,0,6,0,1,1,,,,,
,,,,,,,,,,,right.png,,p,left,5ec00f62cf12be40ea6fe344,2021-10-27_11h21.49.245,arrow_simon_punish,2021.1.2,Win32,60.08532116,,,,,,,,,,,,,,p,1,1.6341,2.240063294,1,5,0,0,0,0,1,,,,,,,,,,,,,,
,,,,,,,,,,,left.png,,w,right,5ec00f62cf12be40ea6fe344,2021-10-27_11h21.49.245,arrow_simon_punish,2021.1.2,Win32,60.08532116,,,,,,,,,,,,,,w,1,1.518,2.165125088,0,5,0,1,1,3,1,,,,,,,,,,,,,,
,,,,,,,,,,,right.png,,p,right,5ec00f62cf12be40ea6fe344,2021-10-27_11h21.49.245,arrow_simon_punish,2021.1.2,Win32,60.08532116,,,,,,,,,,,,,,p,1,1.2547,1.504724866,1,5,0,2,2,1,1,,,,,,,,,,,,,,
,,,,,,,,,,,right.png,,p,right,5ec00f62cf12be40ea6fe344,2021-10-27_11h21.49.245,arrow_simon_punish,2021.1.2,Win32,60.08532116,,,,,,,,,,,,,,p,1,1.3984,1.509242765,1,5,0,3,3,1,1,,,,,,,,,,,,,,
,,,,,,,,,,,left.png,,w,right,5ec00f62cf12be40ea6fe344,2021-10-27_11h21.49.245,arrow_simon_punish,2021.1.2,Win32,60.08532116,,,,,,,,,,,,,,w,1,1.7667,1.648592522,1,5,1,0,4,3,1,,,,,,,,,,,,,,
,,,,,,,,,,,right.png,,p,right,5ec00f62cf12be40ea6fe344,2021-10-27_11h21.49.245,arrow_simon_punish,2021.1.2,Win32,60.08532116,,,,,,,,,,,,,,p,1,1.801,2.493814381,1,5,1,1,5,1,1,,,,,,,,,,,,,,
,,,,,,,,,,,left.png,,w,right,5ec00f62cf12be40ea6fe344,2021-10-27_11h21.49.245,arrow_simon_punish,2021.1.2,Win32,60.08532116,,,,,,,,,,,,,,p,0,1.7018,2.411259372,1,5,1,2,6,3,1,,,,,,,,,,,,,,
,,,,,,,,,,,right.png,,p,right,5ec00f62cf12be40ea6fe344,2021-10-27_11h21.49.245,arrow_simon_punish,2021.1.2,Win32,60.08532116,,,,,,,,,,,,,,p,1,1.3015,1.780351382,1,5,1,3,7,1,1,,,,,,,,,,,,,,
