instruct_resp_simon.keys,instruct_resp_simon.corr,instruct_resp_simon.rt,trial_resp_simon.keys,trial_resp_simon.corr,trial_resp_simon.rt,trials_train_simon.thisRepN,trials_train_simon.thisTrialN,trials_train_simon.thisN,trials_train_simon.thisIndex,trials_train_simon.ran,target_file,target_pos,target_resp,target_side,participant,date,expName,psychopyVersion,OS,frameRate,instruct_resp_timing.keys,instruct_resp_timing.corr,instruct_resp_timing.rt,trial_resp_timing.keys,trial_resp_timing.rt,trials_train_timing.thisRepN,trials_train_timing.thisTrialN,trials_train_timing.thisN,trials_train_timing.thisIndex,trials_train_timing.ran,instruct_resp.keys,instruct_resp.corr,instruct_resp.rt,trial_resp.keys,trial_resp.corr,trial_resp.rt,target_onset,err,pun,trials.thisRepN,trials.thisTrialN,trials.thisN,trials.thisIndex,trials.ran,block_note_resp.keys,block_note_resp.rt,block_num,blocks.thisRepN,blocks.thisTrialN,blocks.thisN,blocks.thisIndex,blocks.ran,punish,complete_resp.keys,complete_resp.rt,raffle_trial,raffle_err,raffle_rew
space,0,59.657,p,1,1.869,0,0,0,1,1,right.png,,p,right,5ed9c285b8c16356b385a97f,2021-10-22_16h20.24.725,arrow_simon_punish,2021.1.2,Win32,59.88023952,,,,,,,,,,,,,,,,,,,,,,,,,,,,,,,,,,,,,,
,,,w,1,1.642,0,1,1,2,1,left.png,,w,left,5ed9c285b8c16356b385a97f,2021-10-22_16h20.24.725,arrow_simon_punish,2021.1.2,Win32,59.88023952,,,,,,,,,,,,,,,,,,,,,,,,,,,,,,,,,,,,,,
,,,w,1,2.39,0,2,2,3,1,left.png,,w,right,5ed9c285b8c16356b385a97f,2021-10-22_16h20.24.725,arrow_simon_punish,2021.1.2,Win32,59.88023952,,,,,,,,,,,,,,,,,,,,,,,,,,,,,,,,,,,,,,
,,,p,1,0.86,0,3,3,0,1,right.png,,p,left,5ed9c285b8c16356b385a97f,2021-10-22_16h20.24.725,arrow_simon_punish,2021.1.2,Win32,59.88023952,,,,,,,,,,,,,,,,,,,,,,,,,,,,,,,,,,,,,,
,,,w,1,0.776,1,0,4,2,1,left.png,,w,left,5ed9c285b8c16356b385a97f,2021-10-22_16h20.24.725,arrow_simon_punish,2021.1.2,Win32,59.88023952,,,,,,,,,,,,,,,,,,,,,,,,,,,,,,,,,,,,,,
,,,w,0,1.523,1,1,5,0,1,right.png,,p,left,5ed9c285b8c16356b385a97f,2021-10-22_16h20.24.725,arrow_simon_punish,2021.1.2,Win32,59.88023952,,,,,,,,,,,,,,,,,,,,,,,,,,,,,,,,,,,,,,
,,,w,1,1.56,1,2,6,3,1,left.png,,w,right,5ed9c285b8c16356b385a97f,2021-10-22_16h20.24.725,arrow_simon_punish,2021.1.2,Win32,59.88023952,,,,,,,,,,,,,,,,,,,,,,,,,,,,,,,,,,,,,,
,,,p,1,1.103,1,3,7,1,1,right.png,,p,right,5ed9c285b8c16356b385a97f,2021-10-22_16h20.24.725,arrow_simon_punish,2021.1.2,Win32,59.88023952,,,,,,,,,,,,,,,,,,,,,,,,,,,,,,,,,,,,,,
,,,w,1,1.57,2,0,8,2,1,left.png,,w,left,5ed9c285b8c16356b385a97f,2021-10-22_16h20.24.725,arrow_simon_punish,2021.1.2,Win32,59.88023952,,,,,,,,,,,,,,,,,,,,,,,,,,,,,,,,,,,,,,
,,,p,1,1.603,2,1,9,1,1,right.png,,p,right,5ed9c285b8c16356b385a97f,2021-10-22_16h20.24.725,arrow_simon_punish,2021.1.2,Win32,59.88023952,,,,,,,,,,,,,,,,,,,,,,,,,,,,,,,,,,,,,,
,,,p,1,1.952,2,2,10,0,1,right.png,,p,left,5ed9c285b8c16356b385a97f,2021-10-22_16h20.24.725,arrow_simon_punish,2021.1.2,Win32,59.88023952,,,,,,,,,,,,,,,,,,,,,,,,,,,,,,,,,,,,,,
,,,w,1,1.357,2,3,11,3,1,left.png,,w,right,5ed9c285b8c16356b385a97f,2021-10-22_16h20.24.725,arrow_simon_punish,2021.1.2,Win32,59.88023952,,,,,,,,,,,,,,,,,,,,,,,,,,,,,,,,,,,,,,
,,,w,1,1.405,3,0,12,3,1,left.png,,w,right,5ed9c285b8c16356b385a97f,2021-10-22_16h20.24.725,arrow_simon_punish,2021.1.2,Win32,59.88023952,,,,,,,,,,,,,,,,,,,,,,,,,,,,,,,,,,,,,,
,,,p,1,1.537,3,1,13,1,1,right.png,,p,right,5ed9c285b8c16356b385a97f,2021-10-22_16h20.24.725,arrow_simon_punish,2021.1.2,Win32,59.88023952,,,,,,,,,,,,,,,,,,,,,,,,,,,,,,,,,,,,,,
,,,w,1,1.476,3,2,14,2,1,left.png,,w,left,5ed9c285b8c16356b385a97f,2021-10-22_16h20.24.725,arrow_simon_punish,2021.1.2,Win32,59.88023952,,,,,,,,,,,,,,,,,,,,,,,,,,,,,,,,,,,,,,
,,,p,1,1.358,3,3,15,0,1,right.png,,p,left,5ed9c285b8c16356b385a97f,2021-10-22_16h20.24.725,arrow_simon_punish,2021.1.2,Win32,59.88023952,,,,,,,,,,,,,,,,,,,,,,,,,,,,,,,,,,,,,,
,,,p,1,2.053,4,0,16,0,1,right.png,,p,left,5ed9c285b8c16356b385a97f,2021-10-22_16h20.24.725,arrow_simon_punish,2021.1.2,Win32,59.88023952,,,,,,,,,,,,,,,,,,,,,,,,,,,,,,,,,,,,,,
,,,p,1,1.019,4,1,17,1,1,right.png,,p,right,5ed9c285b8c16356b385a97f,2021-10-22_16h20.24.725,arrow_simon_punish,2021.1.2,Win32,59.88023952,,,,,,,,,,,,,,,,,,,,,,,,,,,,,,,,,,,,,,
,,,w,1,0.87,4,2,18,2,1,left.png,,w,left,5ed9c285b8c16356b385a97f,2021-10-22_16h20.24.725,arrow_simon_punish,2021.1.2,Win32,59.88023952,,,,,,,,,,,,,,,,,,,,,,,,,,,,,,,,,,,,,,
,,,w,1,1.753,4,3,19,3,1,left.png,,w,right,5ed9c285b8c16356b385a97f,2021-10-22_16h20.24.725,arrow_simon_punish,2021.1.2,Win32,59.88023952,,,,,,,,,,,,,,,,,,,,,,,,,,,,,,,,,,,,,,
,,,w,1,1.669,5,0,20,3,1,left.png,,w,right,5ed9c285b8c16356b385a97f,2021-10-22_16h20.24.725,arrow_simon_punish,2021.1.2,Win32,59.88023952,,,,,,,,,,,,,,,,,,,,,,,,,,,,,,,,,,,,,,
,,,w,1,1.069,5,1,21,2,1,left.png,,w,left,5ed9c285b8c16356b385a97f,2021-10-22_16h20.24.725,arrow_simon_punish,2021.1.2,Win32,59.88023952,,,,,,,,,,,,,,,,,,,,,,,,,,,,,,,,,,,,,,
,,,p,1,0.856,5,2,22,0,1,right.png,,p,left,5ed9c285b8c16356b385a97f,2021-10-22_16h20.24.725,arrow_simon_punish,2021.1.2,Win32,59.88023952,,,,,,,,,,,,,,,,,,,,,,,,,,,,,,,,,,,,,,
,,,p,1,1.086,5,3,23,1,1,right.png,,p,right,5ed9c285b8c16356b385a97f,2021-10-22_16h20.24.725,arrow_simon_punish,2021.1.2,Win32,59.88023952,,,,,,,,,,,,,,,,,,,,,,,,,,,,,,,,,,,,,,
,,,p,1,1.036,6,0,24,0,1,right.png,,p,left,5ed9c285b8c16356b385a97f,2021-10-22_16h20.24.725,arrow_simon_punish,2021.1.2,Win32,59.88023952,,,,,,,,,,,,,,,,,,,,,,,,,,,,,,,,,,,,,,
,,,w,1,0.785,6,1,25,2,1,left.png,,w,left,5ed9c285b8c16356b385a97f,2021-10-22_16h20.24.725,arrow_simon_punish,2021.1.2,Win32,59.88023952,,,,,,,,,,,,,,,,,,,,,,,,,,,,,,,,,,,,,,
,,,p,1,0.919,6,2,26,1,1,right.png,,p,right,5ed9c285b8c16356b385a97f,2021-10-22_16h20.24.725,arrow_simon_punish,2021.1.2,Win32,59.88023952,,,,,,,,,,,,,,,,,,,,,,,,,,,,,,,,,,,,,,
,,,w,1,0.908,6,3,27,3,1,left.png,,w,right,5ed9c285b8c16356b385a97f,2021-10-22_16h20.24.725,arrow_simon_punish,2021.1.2,Win32,59.88023952,,,,,,,,,,,,,,,,,,,,,,,,,,,,,,,,,,,,,,
,,,w,1,2.103,7,0,28,2,1,left.png,,w,left,5ed9c285b8c16356b385a97f,2021-10-22_16h20.24.725,arrow_simon_punish,2021.1.2,Win32,59.88023952,,,,,,,,,,,,,,,,,,,,,,,,,,,,,,,,,,,,,,
,,,w,1,1.303,7,1,29,3,1,left.png,,w,right,5ed9c285b8c16356b385a97f,2021-10-22_16h20.24.725,arrow_simon_punish,2021.1.2,Win32,59.88023952,,,,,,,,,,,,,,,,,,,,,,,,,,,,,,,,,,,,,,
,,,p,1,1.16,7,2,30,1,1,right.png,,p,right,5ed9c285b8c16356b385a97f,2021-10-22_16h20.24.725,arrow_simon_punish,2021.1.2,Win32,59.88023952,,,,,,,,,,,,,,,,,,,,,,,,,,,,,,,,,,,,,,
,,,p,1,1.689,7,3,31,0,1,right.png,,p,left,5ed9c285b8c16356b385a97f,2021-10-22_16h20.24.725,arrow_simon_punish,2021.1.2,Win32,59.88023952,,,,,,,,,,,,,,,,,,,,,,,,,,,,,,,,,,,,,,
,,,w,1,1.42,8,0,32,3,1,left.png,,w,right,5ed9c285b8c16356b385a97f,2021-10-22_16h20.24.725,arrow_simon_punish,2021.1.2,Win32,59.88023952,,,,,,,,,,,,,,,,,,,,,,,,,,,,,,,,,,,,,,
,,,p,1,0.853,8,1,33,0,1,right.png,,p,left,5ed9c285b8c16356b385a97f,2021-10-22_16h20.24.725,arrow_simon_punish,2021.1.2,Win32,59.88023952,,,,,,,,,,,,,,,,,,,,,,,,,,,,,,,,,,,,,,
,,,p,1,1.004,8,2,34,1,1,right.png,,p,right,5ed9c285b8c16356b385a97f,2021-10-22_16h20.24.725,arrow_simon_punish,2021.1.2,Win32,59.88023952,,,,,,,,,,,,,,,,,,,,,,,,,,,,,,,,,,,,,,
,,,w,1,1.318,8,3,35,2,1,left.png,,w,left,5ed9c285b8c16356b385a97f,2021-10-22_16h20.24.725,arrow_simon_punish,2021.1.2,Win32,59.88023952,,,,,,,,,,,,,,,,,,,,,,,,,,,,,,,,,,,,,,
,,,p,1,0.77,9,0,36,0,1,right.png,,p,left,5ed9c285b8c16356b385a97f,2021-10-22_16h20.24.725,arrow_simon_punish,2021.1.2,Win32,59.88023952,,,,,,,,,,,,,,,,,,,,,,,,,,,,,,,,,,,,,,
,,,w,1,1.595,9,1,37,3,1,left.png,,w,right,5ed9c285b8c16356b385a97f,2021-10-22_16h20.24.725,arrow_simon_punish,2021.1.2,Win32,59.88023952,,,,,,,,,,,,,,,,,,,,,,,,,,,,,,,,,,,,,,
,,,w,1,1.089,9,2,38,2,1,left.png,,w,left,5ed9c285b8c16356b385a97f,2021-10-22_16h20.24.725,arrow_simon_punish,2021.1.2,Win32,59.88023952,,,,,,,,,,,,,,,,,,,,,,,,,,,,,,,,,,,,,,
,,,p,1,1.103,9,3,39,1,1,right.png,,p,right,5ed9c285b8c16356b385a97f,2021-10-22_16h20.24.725,arrow_simon_punish,2021.1.2,Win32,59.88023952,,,,,,,,,,,,,,,,,,,,,,,,,,,,,,,,,,,,,,
,,,,,,,,,,,,,,,5ed9c285b8c16356b385a97f,2021-10-22_16h20.24.725,arrow_simon_punish,2021.1.2,Win32,59.88023952,space,0,86.52,w,3.823,0,0,0,0,1,,,,,,,,,,,,,,,,,,,,,,,,,,,,
,,,,,,,,,,,,,,,5ed9c285b8c16356b385a97f,2021-10-22_16h20.24.725,arrow_simon_punish,2021.1.2,Win32,59.88023952,,,,p,3.172,1,0,1,0,1,,,,,,,,,,,,,,,,,,,,,,,,,,,,
,,,,,,,,,,,,,,,5ed9c285b8c16356b385a97f,2021-10-22_16h20.24.725,arrow_simon_punish,2021.1.2,Win32,59.88023952,,,,w,2.088,2,0,2,0,1,,,,,,,,,,,,,,,,,,,,,,,,,,,,
,,,,,,,,,,,,,,,5ed9c285b8c16356b385a97f,2021-10-22_16h20.24.725,arrow_simon_punish,2021.1.2,Win32,59.88023952,,,,p,2.742,3,0,3,0,1,,,,,,,,,,,,,,,,,,,,,,,,,,,,
,,,,,,,,,,,,,,,5ed9c285b8c16356b385a97f,2021-10-22_16h20.24.725,arrow_simon_punish,2021.1.2,Win32,59.88023952,,,,w,2.788,4,0,4,0,1,,,,,,,,,,,,,,,,,,,,,,,,,,,,
,,,,,,,,,,,,,,,5ed9c285b8c16356b385a97f,2021-10-22_16h20.24.725,arrow_simon_punish,2021.1.2,Win32,59.88023952,,,,p,2.321,5,0,5,0,1,,,,,,,,,,,,,,,,,,,,,,,,,,,,
,,,,,,,,,,,,,,,5ed9c285b8c16356b385a97f,2021-10-22_16h20.24.725,arrow_simon_punish,2021.1.2,Win32,59.88023952,,,,w,2.803,6,0,6,0,1,,,,,,,,,,,,,,,,,,,,,,,,,,,,
,,,,,,,,,,,,,,,5ed9c285b8c16356b385a97f,2021-10-22_16h20.24.725,arrow_simon_punish,2021.1.2,Win32,59.88023952,,,,p,2.938,7,0,7,0,1,,,,,,,,,,,,,,,,,,,,,,,,,,,,
,,,,,,,,,,,,,,,5ed9c285b8c16356b385a97f,2021-10-22_16h20.24.725,arrow_simon_punish,2021.1.2,Win32,59.88023952,,,,w,2.153,8,0,8,0,1,,,,,,,,,,,,,,,,,,,,,,,,,,,,
,,,,,,,,,,,,,,,5ed9c285b8c16356b385a97f,2021-10-22_16h20.24.725,arrow_simon_punish,2021.1.2,Win32,59.88023952,,,,w,2.742,9,0,9,0,1,,,,,,,,,,,,,,,,,,,,,,,,,,,,
,,,,,,,,,,,,,,,5ed9c285b8c16356b385a97f,2021-10-22_16h20.24.725,arrow_simon_punish,2021.1.2,Win32,59.88023952,,,,p,3.045,10,0,10,0,1,,,,,,,,,,,,,,,,,,,,,,,,,,,,
,,,,,,,,,,,,,,,5ed9c285b8c16356b385a97f,2021-10-22_16h20.24.725,arrow_simon_punish,2021.1.2,Win32,59.88023952,,,,w,2.754,11,0,11,0,1,,,,,,,,,,,,,,,,,,,,,,,,,,,,
,,,,,,,,,,,,,,,5ed9c285b8c16356b385a97f,2021-10-22_16h20.24.725,arrow_simon_punish,2021.1.2,Win32,59.88023952,,,,p,2.829,12,0,12,0,1,,,,,,,,,,,,,,,,,,,,,,,,,,,,
,,,,,,,,,,,,,,,5ed9c285b8c16356b385a97f,2021-10-22_16h20.24.725,arrow_simon_punish,2021.1.2,Win32,59.88023952,,,,w,2.272,13,0,13,0,1,,,,,,,,,,,,,,,,,,,,,,,,,,,,
,,,,,,,,,,,,,,,5ed9c285b8c16356b385a97f,2021-10-22_16h20.24.725,arrow_simon_punish,2021.1.2,Win32,59.88023952,,,,p,2.889,14,0,14,0,1,,,,,,,,,,,,,,,,,,,,,,,,,,,,
,,,,,,,,,,,,,,,5ed9c285b8c16356b385a97f,2021-10-22_16h20.24.725,arrow_simon_punish,2021.1.2,Win32,59.88023952,,,,w,2.87,15,0,15,0,1,,,,,,,,,,,,,,,,,,,,,,,,,,,,
,,,,,,,,,,,,,,,5ed9c285b8c16356b385a97f,2021-10-22_16h20.24.725,arrow_simon_punish,2021.1.2,Win32,59.88023952,,,,p,2.892,16,0,16,0,1,,,,,,,,,,,,,,,,,,,,,,,,,,,,
,,,,,,,,,,,,,,,5ed9c285b8c16356b385a97f,2021-10-22_16h20.24.725,arrow_simon_punish,2021.1.2,Win32,59.88023952,,,,w,2.621,17,0,17,0,1,,,,,,,,,,,,,,,,,,,,,,,,,,,,
,,,,,,,,,,,,,,,5ed9c285b8c16356b385a97f,2021-10-22_16h20.24.725,arrow_simon_punish,2021.1.2,Win32,59.88023952,,,,p,2.856,18,0,18,0,1,,,,,,,,,,,,,,,,,,,,,,,,,,,,
,,,,,,,,,,,,,,,5ed9c285b8c16356b385a97f,2021-10-22_16h20.24.725,arrow_simon_punish,2021.1.2,Win32,59.88023952,,,,w,2.303,19,0,19,0,1,,,,,,,,,,,,,,,,,,,,,,,,,,,,
,,,,,,,,,,,,,,,5ed9c285b8c16356b385a97f,2021-10-22_16h20.24.725,arrow_simon_punish,2021.1.2,Win32,59.88023952,,,,p,2.82,20,0,20,0,1,,,,,,,,,,,,,,,,,,,,,,,,,,,,
,,,,,,,,,,,,,,,5ed9c285b8c16356b385a97f,2021-10-22_16h20.24.725,arrow_simon_punish,2021.1.2,Win32,59.88023952,,,,w,2.821,21,0,21,0,1,,,,,,,,,,,,,,,,,,,,,,,,,,,,
,,,,,,,,,,,,,,,5ed9c285b8c16356b385a97f,2021-10-22_16h20.24.725,arrow_simon_punish,2021.1.2,Win32,59.88023952,,,,p,2.776,22,0,22,0,1,,,,,,,,,,,,,,,,,,,,,,,,,,,,
,,,,,,,,,,,,,,,5ed9c285b8c16356b385a97f,2021-10-22_16h20.24.725,arrow_simon_punish,2021.1.2,Win32,59.88023952,,,,w,2.806,23,0,23,0,1,,,,,,,,,,,,,,,,,,,,,,,,,,,,
,,,,,,,,,,,,,,,5ed9c285b8c16356b385a97f,2021-10-22_16h20.24.725,arrow_simon_punish,2021.1.2,Win32,59.88023952,,,,p,2.871,24,0,24,0,1,,,,,,,,,,,,,,,,,,,,,,,,,,,,
,,,,,,,,,,,,,,,5ed9c285b8c16356b385a97f,2021-10-22_16h20.24.725,arrow_simon_punish,2021.1.2,Win32,59.88023952,,,,w,2.27,25,0,25,0,1,,,,,,,,,,,,,,,,,,,,,,,,,,,,
,,,,,,,,,,,,,,,5ed9c285b8c16356b385a97f,2021-10-22_16h20.24.725,arrow_simon_punish,2021.1.2,Win32,59.88023952,,,,p,3.038,26,0,26,0,1,,,,,,,,,,,,,,,,,,,,,,,,,,,,
,,,,,,,,,,,,,,,5ed9c285b8c16356b385a97f,2021-10-22_16h20.24.725,arrow_simon_punish,2021.1.2,Win32,59.88023952,,,,w,2.623,27,0,27,0,1,,,,,,,,,,,,,,,,,,,,,,,,,,,,
,,,,,,,,,,,,,,,5ed9c285b8c16356b385a97f,2021-10-22_16h20.24.725,arrow_simon_punish,2021.1.2,Win32,59.88023952,,,,p,2.074,28,0,28,0,1,,,,,,,,,,,,,,,,,,,,,,,,,,,,
,,,,,,,,,,,,,,,5ed9c285b8c16356b385a97f,2021-10-22_16h20.24.725,arrow_simon_punish,2021.1.2,Win32,59.88023952,,,,w,2.893,29,0,29,0,1,,,,,,,,,,,,,,,,,,,,,,,,,,,,
,,,,,,,,,,,,,,,5ed9c285b8c16356b385a97f,2021-10-22_16h20.24.725,arrow_simon_punish,2021.1.2,Win32,59.88023952,,,,p,2.726,30,0,30,0,1,,,,,,,,,,,,,,,,,,,,,,,,,,,,
,,,,,,,,,,,,,,,5ed9c285b8c16356b385a97f,2021-10-22_16h20.24.725,arrow_simon_punish,2021.1.2,Win32,59.88023952,,,,w,2.74,31,0,31,0,1,,,,,,,,,,,,,,,,,,,,,,,,,,,,
,,,,,,,,,,,,,,,5ed9c285b8c16356b385a97f,2021-10-22_16h20.24.725,arrow_simon_punish,2021.1.2,Win32,59.88023952,,,,p,2.255,32,0,32,0,1,,,,,,,,,,,,,,,,,,,,,,,,,,,,
,,,,,,,,,,,,,,,5ed9c285b8c16356b385a97f,2021-10-22_16h20.24.725,arrow_simon_punish,2021.1.2,Win32,59.88023952,,,,w,2.911,33,0,33,0,1,,,,,,,,,,,,,,,,,,,,,,,,,,,,
,,,,,,,,,,,,,,,5ed9c285b8c16356b385a97f,2021-10-22_16h20.24.725,arrow_simon_punish,2021.1.2,Win32,59.88023952,,,,p,2.788,34,0,34,0,1,,,,,,,,,,,,,,,,,,,,,,,,,,,,
,,,,,,,,,,,,,,,5ed9c285b8c16356b385a97f,2021-10-22_16h20.24.725,arrow_simon_punish,2021.1.2,Win32,59.88023952,,,,w,2.838,35,0,35,0,1,,,,,,,,,,,,,,,,,,,,,,,,,,,,
,,,,,,,,,,,,,,,5ed9c285b8c16356b385a97f,2021-10-22_16h20.24.725,arrow_simon_punish,2021.1.2,Win32,59.88023952,,,,p,2.813,36,0,36,0,1,,,,,,,,,,,,,,,,,,,,,,,,,,,,
,,,,,,,,,,,,,,,5ed9c285b8c16356b385a97f,2021-10-22_16h20.24.725,arrow_simon_punish,2021.1.2,Win32,59.88023952,,,,w,2.793,37,0,37,0,1,,,,,,,,,,,,,,,,,,,,,,,,,,,,
,,,,,,,,,,,,,,,5ed9c285b8c16356b385a97f,2021-10-22_16h20.24.725,arrow_simon_punish,2021.1.2,Win32,59.88023952,,,,p,2.74,38,0,38,0,1,,,,,,,,,,,,,,,,,,,,,,,,,,,,
,,,,,,,,,,,,,,,5ed9c285b8c16356b385a97f,2021-10-22_16h20.24.725,arrow_simon_punish,2021.1.2,Win32,59.88023952,,,,w,2.812,39,0,39,0,1,,,,,,,,,,,,,,,,,,,,,,,,,,,,
,,,,,,,,,,,,,,,5ed9c285b8c16356b385a97f,2021-10-22_16h20.24.725,arrow_simon_punish,2021.1.2,Win32,59.88023952,,,,p,2.854,40,0,40,0,1,,,,,,,,,,,,,,,,,,,,,,,,,,,,
,,,,,,,,,,,,,,,5ed9c285b8c16356b385a97f,2021-10-22_16h20.24.725,arrow_simon_punish,2021.1.2,Win32,59.88023952,,,,w,3.026,41,0,41,0,1,,,,,,,,,,,,,,,,,,,,,,,,,,,,
,,,,,,,,,,,,,,,5ed9c285b8c16356b385a97f,2021-10-22_16h20.24.725,arrow_simon_punish,2021.1.2,Win32,59.88023952,,,,p,2.787,42,0,42,0,1,,,,,,,,,,,,,,,,,,,,,,,,,,,,
,,,,,,,,,,,,,,,5ed9c285b8c16356b385a97f,2021-10-22_16h20.24.725,arrow_simon_punish,2021.1.2,Win32,59.88023952,,,,w,2.89,43,0,43,0,1,,,,,,,,,,,,,,,,,,,,,,,,,,,,
,,,,,,,,,,,,,,,5ed9c285b8c16356b385a97f,2021-10-22_16h20.24.725,arrow_simon_punish,2021.1.2,Win32,59.88023952,,,,p,2.303,44,0,44,0,1,,,,,,,,,,,,,,,,,,,,,,,,,,,,
,,,,,,,,,,,,,,,5ed9c285b8c16356b385a97f,2021-10-22_16h20.24.725,arrow_simon_punish,2021.1.2,Win32,59.88023952,,,,w,2.827,45,0,45,0,1,,,,,,,,,,,,,,,,,,,,,,,,,,,,
,,,,,,,,,,,,,,,5ed9c285b8c16356b385a97f,2021-10-22_16h20.24.725,arrow_simon_punish,2021.1.2,Win32,59.88023952,,,,p,2.904,46,0,46,0,1,,,,,,,,,,,,,,,,,,,,,,,,,,,,
,,,,,,,,,,,,,,,5ed9c285b8c16356b385a97f,2021-10-22_16h20.24.725,arrow_simon_punish,2021.1.2,Win32,59.88023952,,,,w,2.988,47,0,47,0,1,,,,,,,,,,,,,,,,,,,,,,,,,,,,
,,,,,,,,,,,,,,,5ed9c285b8c16356b385a97f,2021-10-22_16h20.24.725,arrow_simon_punish,2021.1.2,Win32,59.88023952,,,,p,2.888,48,0,48,0,1,,,,,,,,,,,,,,,,,,,,,,,,,,,,
,,,,,,,,,,,,,,,5ed9c285b8c16356b385a97f,2021-10-22_16h20.24.725,arrow_simon_punish,2021.1.2,Win32,59.88023952,,,,w,2.722,49,0,49,0,1,,,,,,,,,,,,,,,,,,,,,,,,,,,,
,,,,,,,,,,,,,,,5ed9c285b8c16356b385a97f,2021-10-22_16h20.24.725,arrow_simon_punish,2021.1.2,Win32,59.88023952,,,,p,3.058,50,0,50,0,1,,,,,,,,,,,,,,,,,,,,,,,,,,,,
,,,,,,,,,,,,,,,5ed9c285b8c16356b385a97f,2021-10-22_16h20.24.725,arrow_simon_punish,2021.1.2,Win32,59.88023952,,,,w,2.303,51,0,51,0,1,,,,,,,,,,,,,,,,,,,,,,,,,,,,
,,,,,,,,,,,,,,,5ed9c285b8c16356b385a97f,2021-10-22_16h20.24.725,arrow_simon_punish,2021.1.2,Win32,59.88023952,,,,p,2.854,52,0,52,0,1,,,,,,,,,,,,,,,,,,,,,,,,,,,,
,,,,,,,,,,,,,,,5ed9c285b8c16356b385a97f,2021-10-22_16h20.24.725,arrow_simon_punish,2021.1.2,Win32,59.88023952,,,,w,2.888,53,0,53,0,1,,,,,,,,,,,,,,,,,,,,,,,,,,,,
,,,,,,,,,,,,,,,5ed9c285b8c16356b385a97f,2021-10-22_16h20.24.725,arrow_simon_punish,2021.1.2,Win32,59.88023952,,,,p,2.654,54,0,54,0,1,,,,,,,,,,,,,,,,,,,,,,,,,,,,
,,,,,,,,,,,,,,,5ed9c285b8c16356b385a97f,2021-10-22_16h20.24.725,arrow_simon_punish,2021.1.2,Win32,59.88023952,,,,w,2.653,55,0,55,0,1,,,,,,,,,,,,,,,,,,,,,,,,,,,,
,,,,,,,,,,,,,,,5ed9c285b8c16356b385a97f,2021-10-22_16h20.24.725,arrow_simon_punish,2021.1.2,Win32,59.88023952,,,,p,2.92,56,0,56,0,1,,,,,,,,,,,,,,,,,,,,,,,,,,,,
,,,,,,,,,,,,,,,5ed9c285b8c16356b385a97f,2021-10-22_16h20.24.725,arrow_simon_punish,2021.1.2,Win32,59.88023952,,,,w,2.653,57,0,57,0,1,,,,,,,,,,,,,,,,,,,,,,,,,,,,
,,,,,,,,,,,,,,,5ed9c285b8c16356b385a97f,2021-10-22_16h20.24.725,arrow_simon_punish,2021.1.2,Win32,59.88023952,,,,p,2.936,58,0,58,0,1,,,,,,,,,,,,,,,,,,,,,,,,,,,,
,,,,,,,,,,,,,,,5ed9c285b8c16356b385a97f,2021-10-22_16h20.24.725,arrow_simon_punish,2021.1.2,Win32,59.88023952,,,,w,2.922,59,0,59,0,1,,,,,,,,,,,,,,,,,,,,,,,,,,,,
,,,,,,,,,,,right.png,,p,right,5ed9c285b8c16356b385a97f,2021-10-22_16h20.24.725,arrow_simon_punish,2021.1.2,Win32,59.88023952,,,,,,,,,,,space,0,82.264,p,1,1.849,2.018695784,1,1,0,0,0,1,1,,,,,,,,,,,,,,
,,,,,,,,,,,right.png,,p,right,5ed9c285b8c16356b385a97f,2021-10-22_16h20.24.725,arrow_simon_punish,2021.1.2,Win32,59.88023952,,,,,,,,,,,,,,p,1,1.343,1.874490786,1,1,0,1,1,1,1,,,,,,,,,,,,,,
,,,,,,,,,,,right.png,,p,right,5ed9c285b8c16356b385a97f,2021-10-22_16h20.24.725,arrow_simon_punish,2021.1.2,Win32,59.88023952,,,,,,,,,,,,,,p,1,1.588,2.136649463,0,1,0,2,2,1,1,,,,,,,,,,,,,,
,,,,,,,,,,,left.png,,w,right,5ed9c285b8c16356b385a97f,2021-10-22_16h20.24.725,arrow_simon_punish,2021.1.2,Win32,59.88023952,,,,,,,,,,,,,,w,1,2.154,2.281185701,1,1,0,3,3,3,1,,,,,,,,,,,,,,
,,,,,,,,,,,left.png,,w,right,5ed9c285b8c16356b385a97f,2021-10-22_16h20.24.725,arrow_simon_punish,2021.1.2,Win32,59.88023952,,,,,,,,,,,,,,w,1,1.236,1.601024465,1,1,1,0,4,3,1,,,,,,,,,,,,,,
,,,,,,,,,,,left.png,,w,right,5ed9c285b8c16356b385a97f,2021-10-22_16h20.24.725,arrow_simon_punish,2021.1.2,Win32,59.88023952,,,,,,,,,,,,,,w,1,2.105,2.436701794,1,1,1,1,5,3,1,,,,,,,,,,,,,,
,,,,,,,,,,,left.png,,w,left,5ed9c285b8c16356b385a97f,2021-10-22_16h20.24.725,arrow_simon_punish,2021.1.2,Win32,59.88023952,,,,,,,,,,,,,,w,1,2.521,2.375379596,1,1,1,2,6,2,1,,,,,,,,,,,,,,
,,,,,,,,,,,right.png,,p,right,5ed9c285b8c16356b385a97f,2021-10-22_16h20.24.725,arrow_simon_punish,2021.1.2,Win32,59.88023952,,,,,,,,,,,,,,p,1,1.62,2.005192832,1,1,1,3,7,1,1,,,,,,,,,,,,,,
,,,,,,,,,,,left.png,,w,left,5ed9c285b8c16356b385a97f,2021-10-22_16h20.24.725,arrow_simon_punish,2021.1.2,Win32,59.88023952,,,,,,,,,,,,,,w,1,1.119,1.62996387,1,1,2,0,8,2,1,,,,,,,,,,,,,,
,,,,,,,,,,,left.png,,w,left,5ed9c285b8c16356b385a97f,2021-10-22_16h20.24.725,arrow_simon_punish,2021.1.2,Win32,59.88023952,,,,,,,,,,,,,,w,1,1.202,1.521929571,1,1,2,1,9,2,1,,,,,,,,,,,,,,
,,,,,,,,,,,left.png,,w,right,5ed9c285b8c16356b385a97f,2021-10-22_16h20.24.725,arrow_simon_punish,2021.1.2,Win32,59.88023952,,,,,,,,,,,,,,w,1,2.254,2.140355506,1,1,2,2,10,3,1,,,,,,,,,,,,,,
,,,,,,,,,,,left.png,,w,left,5ed9c285b8c16356b385a97f,2021-10-22_16h20.24.725,arrow_simon_punish,2021.1.2,Win32,59.88023952,,,,,,,,,,,,,,w,1,1.392,1.73922365,1,1,2,3,11,2,1,,,,,,,,,,,,,,
,,,,,,,,,,,right.png,,p,right,5ed9c285b8c16356b385a97f,2021-10-22_16h20.24.725,arrow_simon_punish,2021.1.2,Win32,59.88023952,,,,,,,,,,,,,,p,1,1.541,2.060035909,0,1,3,0,12,1,1,,,,,,,,,,,,,,
,,,,,,,,,,,right.png,,p,left,5ed9c285b8c16356b385a97f,2021-10-22_16h20.24.725,arrow_simon_punish,2021.1.2,Win32,59.88023952,,,,,,,,,,,,,,p,1,1.477,1.735949769,0,1,3,1,13,0,1,,,,,,,,,,,,,,
,,,,,,,,,,,right.png,,p,left,5ed9c285b8c16356b385a97f,2021-10-22_16h20.24.725,arrow_simon_punish,2021.1.2,Win32,59.88023952,,,,,,,,,,,,,,p,1,2.071,2.497831762,1,1,3,2,14,0,1,,,,,,,,,,,,,,
,,,,,,,,,,,left.png,,w,left,5ed9c285b8c16356b385a97f,2021-10-22_16h20.24.725,arrow_simon_punish,2021.1.2,Win32,59.88023952,,,,,,,,,,,,,,w,1,1.47,2.011875626,0,1,3,3,15,2,1,,,,,,,,,,,,,,
,,,,,,,,,,,left.png,,w,right,5ed9c285b8c16356b385a97f,2021-10-22_16h20.24.725,arrow_simon_punish,2021.1.2,Win32,59.88023952,,,,,,,,,,,,,,w,1,2.375,2.386302972,1,1,4,0,16,3,1,,,,,,,,,,,,,,
,,,,,,,,,,,right.png,,p,right,5ed9c285b8c16356b385a97f,2021-10-22_16h20.24.725,arrow_simon_punish,2021.1.2,Win32,59.88023952,,,,,,,,,,,,,,p,1,1.238,1.61015183,1,1,4,1,17,1,1,,,,,,,,,,,,,,
,,,,,,,,,,,left.png,,w,right,5ed9c285b8c16356b385a97f,2021-10-22_16h20.24.725,arrow_simon_punish,2021.1.2,Win32,59.88023952,,,,,,,,,,,,,,w,1,1.336,1.70886077,1,1,4,2,18,3,1,,,,,,,,,,,,,,
,,,,,,,,,,,left.png,,w,left,5ed9c285b8c16356b385a97f,2021-10-22_16h20.24.725,arrow_simon_punish,2021.1.2,Win32,59.88023952,,,,,,,,,,,,,,w,1,1.587,1.766722725,0,1,4,3,19,2,1,,,,,,,,,,,,,,
,,,,,,,,,,,left.png,,w,left,5ed9c285b8c16356b385a97f,2021-10-22_16h20.24.725,arrow_simon_punish,2021.1.2,Win32,59.88023952,,,,,,,,,,,,,,w,1,1.122,1.646926149,1,1,5,0,20,2,1,,,,,,,,,,,,,,
,,,,,,,,,,,right.png,,p,left,5ed9c285b8c16356b385a97f,2021-10-22_16h20.24.725,arrow_simon_punish,2021.1.2,Win32,59.88023952,,,,,,,,,,,,,,p,1,2.161,2.454224709,1,1,5,1,21,0,1,,,,,,,,,,,,,,
,,,,,,,,,,,left.png,,w,right,5ed9c285b8c16356b385a97f,2021-10-22_16h20.24.725,arrow_simon_punish,2021.1.2,Win32,59.88023952,,,,,,,,,,,,,,w,1,2.087,2.453002248,1,1,5,2,22,3,1,,,,,,,,,,,,,,
,,,,,,,,,,,left.png,,w,left,5ed9c285b8c16356b385a97f,2021-10-22_16h20.24.725,arrow_simon_punish,2021.1.2,Win32,59.88023952,,,,,,,,,,,,,,w,1,1.671,1.834445047,1,1,5,3,23,2,1,,,,,,,,,,,,,,
,,,,,,,,,,,left.png,,w,right,5ed9c285b8c16356b385a97f,2021-10-22_16h20.24.725,arrow_simon_punish,2021.1.2,Win32,59.88023952,,,,,,,,,,,,,,w,1,1.654,1.875996547,1,1,6,0,24,3,1,,,,,,,,,,,,,,
,,,,,,,,,,,right.png,,p,left,5ed9c285b8c16356b385a97f,2021-10-22_16h20.24.725,arrow_simon_punish,2021.1.2,Win32,59.88023952,,,,,,,,,,,,,,p,1,2.088,2.378311964,1,1,6,1,25,0,1,,,,,,,,,,,,,,
,,,,,,,,,,,left.png,,w,left,5ed9c285b8c16356b385a97f,2021-10-22_16h20.24.725,arrow_simon_punish,2021.1.2,Win32,59.88023952,,,,,,,,,,,,,,w,1,1.554,2.029502047,0,1,6,2,26,2,1,,,,,,,,,,,,,,
,,,,,,,,,,,right.png,,p,right,5ed9c285b8c16356b385a97f,2021-10-22_16h20.24.725,arrow_simon_punish,2021.1.2,Win32,59.88023952,,,,,,,,,,,,,,p,1,1.455,1.898308807,0,1,6,3,27,1,1,,,,,,,,,,,,,,
,,,,,,,,,,,right.png,,p,left,5ed9c285b8c16356b385a97f,2021-10-22_16h20.24.725,arrow_simon_punish,2021.1.2,Win32,59.88023952,,,,,,,,,,,,,,p,1,1.22,1.524380355,1,1,7,0,28,0,1,,,,,,,,,,,,,,
,,,,,,,,,,,right.png,,p,right,5ed9c285b8c16356b385a97f,2021-10-22_16h20.24.725,arrow_simon_punish,2021.1.2,Win32,59.88023952,,,,,,,,,,,,,,p,1,1.26,1.590241296,1,1,7,1,29,1,1,,,,,,,,,,,,,,
,,,,,,,,,,,left.png,,w,right,5ed9c285b8c16356b385a97f,2021-10-22_16h20.24.725,arrow_simon_punish,2021.1.2,Win32,59.88023952,,,,,,,,,,,,,,w,1,1.671,1.983049359,1,1,7,2,30,3,1,,,,,,,,,,,,,,
,,,,,,,,,,,right.png,,p,right,5ed9c285b8c16356b385a97f,2021-10-22_16h20.24.725,arrow_simon_punish,2021.1.2,Win32,59.88023952,,,,,,,,,,,,,,p,1,1.804,2.201042662,1,1,7,3,31,1,1,,,,,,,,,,,,,,
,,,,,,,,,,,right.png,,p,left,5ed9c285b8c16356b385a97f,2021-10-22_16h20.24.725,arrow_simon_punish,2021.1.2,Win32,59.88023952,,,,,,,,,,,,,,p,1,2.287,2.406608328,1,1,8,0,32,0,1,,,,,,,,,,,,,,
,,,,,,,,,,,right.png,,p,left,5ed9c285b8c16356b385a97f,2021-10-22_16h20.24.725,arrow_simon_punish,2021.1.2,Win32,59.88023952,,,,,,,,,,,,,,p,1,1.723,2.127675013,1,1,8,1,33,0,1,,,,,,,,,,,,,,
,,,,,,,,,,,right.png,,p,right,5ed9c285b8c16356b385a97f,2021-10-22_16h20.24.725,arrow_simon_punish,2021.1.2,Win32,59.88023952,,,,,,,,,,,,,,p,1,1.704,1.963346745,1,1,8,2,34,1,1,,,,,,,,,,,,,,
,,,,,,,,,,,right.png,,p,left,5ed9c285b8c16356b385a97f,2021-10-22_16h20.24.725,arrow_simon_punish,2021.1.2,Win32,59.88023952,,,,,,,,,,,,,,p,1,1.658,1.975081194,1,1,8,3,35,0,1,,,,,,,,,,,,,,
,,,,,,,,,,,left.png,,w,right,5ed9c285b8c16356b385a97f,2021-10-22_16h20.24.725,arrow_simon_punish,2021.1.2,Win32,59.88023952,,,,,,,,,,,,,,w,1,1.643,1.904547319,1,1,9,0,36,3,1,,,,,,,,,,,,,,
,,,,,,,,,,,right.png,,p,left,5ed9c285b8c16356b385a97f,2021-10-22_16h20.24.725,arrow_simon_punish,2021.1.2,Win32,59.88023952,,,,,,,,,,,,,,p,1,1.237,1.556622491,1,1,9,1,37,0,1,,,,,,,,,,,,,,
,,,,,,,,,,,right.png,,p,left,5ed9c285b8c16356b385a97f,2021-10-22_16h20.24.725,arrow_simon_punish,2021.1.2,Win32,59.88023952,,,,,,,,,,,,,,p,1,2.09,1.989961453,1,1,9,2,38,0,1,,,,,,,,,,,,,,
,,,,,,,,,,,left.png,,w,left,5ed9c285b8c16356b385a97f,2021-10-22_16h20.24.725,arrow_simon_punish,2021.1.2,Win32,59.88023952,,,,,,,,,,,,,,w,1,1.593,2.00002079,0,1,9,3,39,2,1,,,,,,,,,,,,,,
,,,,,,,,,,,left.png,,w,right,5ed9c285b8c16356b385a97f,2021-10-22_16h20.24.725,arrow_simon_punish,2021.1.2,Win32,59.88023952,,,,,,,,,,,,,,w,1,1.31,1.546490159,1,1,10,0,40,3,1,,,,,,,,,,,,,,
,,,,,,,,,,,left.png,,w,left,5ed9c285b8c16356b385a97f,2021-10-22_16h20.24.725,arrow_simon_punish,2021.1.2,Win32,59.88023952,,,,,,,,,,,,,,w,1,1.911,1.62832317,1,1,10,1,41,2,1,,,,,,,,,,,,,,
,,,,,,,,,,,right.png,,p,right,5ed9c285b8c16356b385a97f,2021-10-22_16h20.24.725,arrow_simon_punish,2021.1.2,Win32,59.88023952,,,,,,,,,,,,,,p,1,1.774,2.072431794,1,1,10,2,42,1,1,,,,,,,,,,,,,,
,,,,,,,,,,,left.png,,w,left,5ed9c285b8c16356b385a97f,2021-10-22_16h20.24.725,arrow_simon_punish,2021.1.2,Win32,59.88023952,,,,,,,,,,,,,,w,1,2.221,1.938345009,1,1,10,3,43,2,1,,,,,,,,,,,,,,
,,,,,,,,,,,right.png,,p,right,5ed9c285b8c16356b385a97f,2021-10-22_16h20.24.725,arrow_simon_punish,2021.1.2,Win32,59.88023952,,,,,,,,,,,,,,p,1,1.336,1.761721812,1,1,11,0,44,1,1,,,,,,,,,,,,,,
,,,,,,,,,,,right.png,,p,right,5ed9c285b8c16356b385a97f,2021-10-22_16h20.24.725,arrow_simon_punish,2021.1.2,Win32,59.88023952,,,,,,,,,,,,,,p,1,2.088,2.270883908,1,1,11,1,45,1,1,,,,,,,,,,,,,,
,,,,,,,,,,,left.png,,w,right,5ed9c285b8c16356b385a97f,2021-10-22_16h20.24.725,arrow_simon_punish,2021.1.2,Win32,59.88023952,,,,,,,,,,,,,,w,1,2.205,2.398368262,1,1,11,2,46,3,1,,,,,,,,,,,,,,
,,,,,,,,,,,right.png,,p,left,5ed9c285b8c16356b385a97f,2021-10-22_16h20.24.725,arrow_simon_punish,2021.1.2,Win32,59.88023952,,,,,,,,,,,,,,p,1,1.788,1.950971659,1,1,11,3,47,0,1,,,,,,,,,,,,,,
,,,,,,,,,,,right.png,,p,left,5ed9c285b8c16356b385a97f,2021-10-22_16h20.24.725,arrow_simon_punish,2021.1.2,Win32,59.88023952,,,,,,,,,,,,,,p,1,2.139,2.291222483,1,1,12,0,48,0,1,,,,,,,,,,,,,,
,,,,,,,,,,,left.png,,w,left,5ed9c285b8c16356b385a97f,2021-10-22_16h20.24.725,arrow_simon_punish,2021.1.2,Win32,59.88023952,,,,,,,,,,,,,,w,1,2.178,2.313243268,1,1,12,1,49,2,1,,,,,,,,,,,,,,
,,,,,,,,,,,left.png,,w,left,5ed9c285b8c16356b385a97f,2021-10-22_16h20.24.725,arrow_simon_punish,2021.1.2,Win32,59.88023952,,,,,,,,,,,,,,w,1,1.71,1.936076853,1,1,12,2,50,2,1,,,,,,,,,,,,,,
,,,,,,,,,,,left.png,,w,right,5ed9c285b8c16356b385a97f,2021-10-22_16h20.24.725,arrow_simon_punish,2021.1.2,Win32,59.88023952,,,,,,,,,,,,,,w,1,2.072,2.298317596,1,1,12,3,51,3,1,,,,,,,,,,,,,,
,,,,,,,,,,,right.png,,p,left,5ed9c285b8c16356b385a97f,2021-10-22_16h20.24.725,arrow_simon_punish,2021.1.2,Win32,59.88023952,,,,,,,,,,,,,,p,1,1.284,1.750940419,1,1,13,0,52,0,1,,,,,,,,,,,,,,
,,,,,,,,,,,left.png,,w,left,5ed9c285b8c16356b385a97f,2021-10-22_16h20.24.725,arrow_simon_punish,2021.1.2,Win32,59.88023952,,,,,,,,,,,,,,w,1,1.974,1.948135218,1,1,13,1,53,2,1,,,,,,,,,,,,,,
,,,,,,,,,,,left.png,,w,right,5ed9c285b8c16356b385a97f,2021-10-22_16h20.24.725,arrow_simon_punish,2021.1.2,Win32,59.88023952,,,,,,,,,,,,,,w,1,1.803,1.579687096,1,1,13,2,54,3,1,,,,,,,,,,,,,,
,,,,,,,,,,,right.png,,p,right,5ed9c285b8c16356b385a97f,2021-10-22_16h20.24.725,arrow_simon_punish,2021.1.2,Win32,59.88023952,,,,,,,,,,,,,,p,1,1.371,1.687961583,1,1,13,3,55,1,1,,,,,,,,,,,,,,
,,,,,,,,,,,right.png,,p,left,5ed9c285b8c16356b385a97f,2021-10-22_16h20.24.725,arrow_simon_punish,2021.1.2,Win32,59.88023952,,,,,,,,,,,,,,p,1,2.054,1.790484712,1,1,14,0,56,0,1,,,,,,,,,,,,,,
,,,,,,,,,,,right.png,,p,left,5ed9c285b8c16356b385a97f,2021-10-22_16h20.24.725,arrow_simon_punish,2021.1.2,Win32,59.88023952,,,,,,,,,,,,,,p,1,2.137,2.210928906,1,1,14,1,57,0,1,,,,,,,,,,,,,,
,,,,,,,,,,,left.png,,w,right,5ed9c285b8c16356b385a97f,2021-10-22_16h20.24.725,arrow_simon_punish,2021.1.2,Win32,59.88023952,,,,,,,,,,,,,,w,1,1.953,1.823699506,1,1,14,2,58,3,1,,,,,,,,,,,,,,
,,,,,,,,,,,right.png,,p,right,5ed9c285b8c16356b385a97f,2021-10-22_16h20.24.725,arrow_simon_punish,2021.1.2,Win32,59.88023952,,,,,,,,,,,,,,p,1,2.041,2.291626638,1,1,14,3,59,1,1,,,,,,,,,,,,,,
,,,,,,,,,,,,,,,5ed9c285b8c16356b385a97f,2021-10-22_16h20.24.725,arrow_simon_punish,2021.1.2,Win32,59.88023952,,,,,,,,,,,,,,,,,,,,,,,,,space,27.202,2,0,0,0,0,1,1,,,,,
,,,,,,,,,,,right.png,,p,left,5ed9c285b8c16356b385a97f,2021-10-22_16h20.24.725,arrow_simon_punish,2021.1.2,Win32,59.88023952,,,,,,,,,,,,,,p,1,1.837,1.73501643,1,5,0,0,0,0,1,,,,,,,,,,,,,,
,,,,,,,,,,,left.png,,w,left,5ed9c285b8c16356b385a97f,2021-10-22_16h20.24.725,arrow_simon_punish,2021.1.2,Win32,59.88023952,,,,,,,,,,,,,,w,1,2.105,2.481240468,1,5,0,1,1,2,1,,,,,,,,,,,,,,
,,,,,,,,,,,left.png,,w,left,5ed9c285b8c16356b385a97f,2021-10-22_16h20.24.725,arrow_simon_punish,2021.1.2,Win32,59.88023952,,,,,,,,,,,,,,w,1,1.906,1.984946304,1,5,0,2,2,2,1,,,,,,,,,,,,,,
,,,,,,,,,,,right.png,,p,left,5ed9c285b8c16356b385a97f,2021-10-22_16h20.24.725,arrow_simon_punish,2021.1.2,Win32,59.88023952,,,,,,,,,,,,,,p,1,2.305,2.402763298,1,5,0,3,3,0,1,,,,,,,,,,,,,,
,,,,,,,,,,,left.png,,w,left,5ed9c285b8c16356b385a97f,2021-10-22_16h20.24.725,arrow_simon_punish,2021.1.2,Win32,59.88023952,,,,,,,,,,,,,,w,1,1.523,1.940410938,0,5,1,0,4,2,1,,,,,,,,,,,,,,
,,,,,,,,,,,left.png,,w,left,5ed9c285b8c16356b385a97f,2021-10-22_16h20.24.725,arrow_simon_punish,2021.1.2,Win32,59.88023952,,,,,,,,,,,,,,w,1,1.922,2.200114785,1,5,1,1,5,2,1,,,,,,,,,,,,,,
,,,,,,,,,,,right.png,,p,right,5ed9c285b8c16356b385a97f,2021-10-22_16h20.24.725,arrow_simon_punish,2021.1.2,Win32,59.88023952,,,,,,,,,,,,,,p,1,1.587,2.009934924,0,5,1,2,6,1,1,,,,,,,,,,,,,,
,,,,,,,,,,,right.png,,p,right,5ed9c285b8c16356b385a97f,2021-10-22_16h20.24.725,arrow_simon_punish,2021.1.2,Win32,59.88023952,,,,,,,,,,,,,,p,1,2.105,2.368403196,1,5,1,3,7,1,1,,,,,,,,,,,,,,
,,,,,,,,,,,right.png,,p,right,5ed9c285b8c16356b385a97f,2021-10-22_16h20.24.725,arrow_simon_punish,2021.1.2,Win32,59.88023952,,,,,,,,,,,,,,p,1,2.058,2.479138989,1,5,2,0,8,1,1,,,,,,,,,,,,,,
,,,,,,,,,,,right.png,,p,left,5ed9c285b8c16356b385a97f,2021-10-22_16h20.24.725,arrow_simon_punish,2021.1.2,Win32,59.88023952,,,,,,,,,,,,,,p,1,2.054,1.700454673,1,5,2,1,9,0,1,,,,,,,,,,,,,,
,,,,,,,,,,,right.png,,p,right,5ed9c285b8c16356b385a97f,2021-10-22_16h20.24.725,arrow_simon_punish,2021.1.2,Win32,59.88023952,,,,,,,,,,,,,,p,1,1.887,1.550977413,1,5,2,2,10,1,1,,,,,,,,,,,,,,
,,,,,,,,,,,right.png,,p,left,5ed9c285b8c16356b385a97f,2021-10-22_16h20.24.725,arrow_simon_punish,2021.1.2,Win32,59.88023952,,,,,,,,,,,,,,p,1,2.021,1.726673653,1,5,2,3,11,0,1,,,,,,,,,,,,,,
,,,,,,,,,,,right.png,,p,right,5ed9c285b8c16356b385a97f,2021-10-22_16h20.24.725,arrow_simon_punish,2021.1.2,Win32,59.88023952,,,,,,,,,,,,,,p,1,1.957,1.96166729,1,5,3,0,12,1,1,,,,,,,,,,,,,,
,,,,,,,,,,,left.png,,w,left,5ed9c285b8c16356b385a97f,2021-10-22_16h20.24.725,arrow_simon_punish,2021.1.2,Win32,59.88023952,,,,,,,,,,,,,,w,1,1.821,1.588994796,1,5,3,1,13,2,1,,,,,,,,,,,,,,
,,,,,,,,,,,left.png,,w,right,5ed9c285b8c16356b385a97f,2021-10-22_16h20.24.725,arrow_simon_punish,2021.1.2,Win32,59.88023952,,,,,,,,,,,,,,w,1,1.51,1.760002534,0,5,3,2,14,3,1,,,,,,,,,,,,,,
,,,,,,,,,,,right.png,,p,left,5ed9c285b8c16356b385a97f,2021-10-22_16h20.24.725,arrow_simon_punish,2021.1.2,Win32,59.88023952,,,,,,,,,,,,,,p,1,1.887,1.960369944,1,5,3,3,15,0,1,,,,,,,,,,,,,,
,,,,,,,,,,,left.png,,w,right,5ed9c285b8c16356b385a97f,2021-10-22_16h20.24.725,arrow_simon_punish,2021.1.2,Win32,59.88023952,,,,,,,,,,,,,,w,1,1.86,2.023010966,1,5,4,0,16,3,1,,,,,,,,,,,,,,
,,,,,,,,,,,left.png,,w,right,5ed9c285b8c16356b385a97f,2021-10-22_16h20.24.725,arrow_simon_punish,2021.1.2,Win32,59.88023952,,,,,,,,,,,,,,w,1,2.637,2.475437322,1,5,4,1,17,3,1,,,,,,,,,,,,,,
,,,,,,,,,,,right.png,,p,right,5ed9c285b8c16356b385a97f,2021-10-22_16h20.24.725,arrow_simon_punish,2021.1.2,Win32,59.88023952,,,,,,,,,,,,,,p,1,2.039,1.779177085,1,5,4,2,18,1,1,,,,,,,,,,,,,,
,,,,,,,,,,,right.png,,p,right,5ed9c285b8c16356b385a97f,2021-10-22_16h20.24.725,arrow_simon_punish,2021.1.2,Win32,59.88023952,,,,,,,,,,,,,,p,1,2.024,1.836235612,1,5,4,3,19,1,1,,,,,,,,,,,,,,
,,,,,,,,,,,left.png,,w,left,5ed9c285b8c16356b385a97f,2021-10-22_16h20.24.725,arrow_simon_punish,2021.1.2,Win32,59.88023952,,,,,,,,,,,,,,w,1,1.837,2.009500906,1,5,5,0,20,2,1,,,,,,,,,,,,,,
,,,,,,,,,,,right.png,,p,left,5ed9c285b8c16356b385a97f,2021-10-22_16h20.24.725,arrow_simon_punish,2021.1.2,Win32,59.88023952,,,,,,,,,,,,,,p,1,2.176,2.493305596,1,5,5,1,21,0,1,,,,,,,,,,,,,,
,,,,,,,,,,,right.png,,p,left,5ed9c285b8c16356b385a97f,2021-10-22_16h20.24.725,arrow_simon_punish,2021.1.2,Win32,59.88023952,,,,,,,,,,,,,,p,1,2.037,2.298880249,1,5,5,2,22,0,1,,,,,,,,,,,,,,
,,,,,,,,,,,right.png,,p,left,5ed9c285b8c16356b385a97f,2021-10-22_16h20.24.725,arrow_simon_punish,2021.1.2,Win32,59.88023952,,,,,,,,,,,,,,p,1,1.839,1.557199742,1,5,5,3,23,0,1,,,,,,,,,,,,,,
,,,,,,,,,,,left.png,,w,right,5ed9c285b8c16356b385a97f,2021-10-22_16h20.24.725,arrow_simon_punish,2021.1.2,Win32,59.88023952,,,,,,,,,,,,,,w,1,2.011,1.811963119,1,5,6,0,24,3,1,,,,,,,,,,,,,,
,,,,,,,,,,,right.png,,p,right,5ed9c285b8c16356b385a97f,2021-10-22_16h20.24.725,arrow_simon_punish,2021.1.2,Win32,59.88023952,,,,,,,,,,,,,,p,1,1.589,1.587694529,0,5,6,1,25,1,1,,,,,,,,,,,,,,
,,,,,,,,,,,left.png,,w,left,5ed9c285b8c16356b385a97f,2021-10-22_16h20.24.725,arrow_simon_punish,2021.1.2,Win32,59.88023952,,,,,,,,,,,,,,w,1,1.837,1.607693034,1,5,6,2,26,2,1,,,,,,,,,,,,,,
,,,,,,,,,,,right.png,,p,left,5ed9c285b8c16356b385a97f,2021-10-22_16h20.24.725,arrow_simon_punish,2021.1.2,Win32,59.88023952,,,,,,,,,,,,,,p,1,1.987,2.330956783,1,5,6,3,27,0,1,,,,,,,,,,,,,,
,,,,,,,,,,,right.png,,p,left,5ed9c285b8c16356b385a97f,2021-10-22_16h20.24.725,arrow_simon_punish,2021.1.2,Win32,59.88023952,,,,,,,,,,,,,,p,1,1.945,1.55791716,1,5,7,0,28,0,1,,,,,,,,,,,,,,
,,,,,,,,,,,right.png,,p,right,5ed9c285b8c16356b385a97f,2021-10-22_16h20.24.725,arrow_simon_punish,2021.1.2,Win32,59.88023952,,,,,,,,,,,,,,p,1,1.91,1.986805995,1,5,7,1,29,1,1,,,,,,,,,,,,,,
,,,,,,,,,,,right.png,,p,left,5ed9c285b8c16356b385a97f,2021-10-22_16h20.24.725,arrow_simon_punish,2021.1.2,Win32,59.88023952,,,,,,,,,,,,,,p,1,1.326,1.773956098,1,5,7,2,30,0,1,,,,,,,,,,,,,,
,,,,,,,,,,,right.png,,p,left,5ed9c285b8c16356b385a97f,2021-10-22_16h20.24.725,arrow_simon_punish,2021.1.2,Win32,59.88023952,,,,,,,,,,,,,,p,1,2.104,2.269765492,1,5,7,3,31,0,1,,,,,,,,,,,,,,
,,,,,,,,,,,right.png,,p,right,5ed9c285b8c16356b385a97f,2021-10-22_16h20.24.725,arrow_simon_punish,2021.1.2,Win32,59.88023952,,,,,,,,,,,,,,p,1,2.371,2.278779356,1,5,8,0,32,1,1,,,,,,,,,,,,,,
,,,,,,,,,,,left.png,,w,left,5ed9c285b8c16356b385a97f,2021-10-22_16h20.24.725,arrow_simon_punish,2021.1.2,Win32,59.88023952,,,,,,,,,,,,,,w,1,2.122,2.265523992,1,5,8,1,33,2,1,,,,,,,,,,,,,,
,,,,,,,,,,,right.png,,p,left,5ed9c285b8c16356b385a97f,2021-10-22_16h20.24.725,arrow_simon_punish,2021.1.2,Win32,59.88023952,,,,,,,,,,,,,,p,1,1.943,2.162470331,1,5,8,2,34,0,1,,,,,,,,,,,,,,
,,,,,,,,,,,left.png,,w,left,5ed9c285b8c16356b385a97f,2021-10-22_16h20.24.725,arrow_simon_punish,2021.1.2,Win32,59.88023952,,,,,,,,,,,,,,w,1,1.787,1.730263501,1,5,8,3,35,2,1,,,,,,,,,,,,,,
,,,,,,,,,,,right.png,,p,right,5ed9c285b8c16356b385a97f,2021-10-22_16h20.24.725,arrow_simon_punish,2021.1.2,Win32,59.88023952,,,,,,,,,,,,,,p,1,1.956,2.301682601,1,5,9,0,36,1,1,,,,,,,,,,,,,,
,,,,,,,,,,,left.png,,w,right,5ed9c285b8c16356b385a97f,2021-10-22_16h20.24.725,arrow_simon_punish,2021.1.2,Win32,59.88023952,,,,,,,,,,,,,,w,1,2.105,2.328970536,1,5,9,1,37,3,1,,,,,,,,,,,,,,
,,,,,,,,,,,left.png,,w,left,5ed9c285b8c16356b385a97f,2021-10-22_16h20.24.725,arrow_simon_punish,2021.1.2,Win32,59.88023952,,,,,,,,,,,,,,w,1,1.91,2.430978441,1,5,9,2,38,2,1,,,,,,,,,,,,,,
,,,,,,,,,,,left.png,,w,right,5ed9c285b8c16356b385a97f,2021-10-22_16h20.24.725,arrow_simon_punish,2021.1.2,Win32,59.88023952,,,,,,,,,,,,,,w,1,2.272,1.630577659,1,5,9,3,39,3,1,,,,,,,,,,,,,,
,,,,,,,,,,,right.png,,p,left,5ed9c285b8c16356b385a97f,2021-10-22_16h20.24.725,arrow_simon_punish,2021.1.2,Win32,59.88023952,,,,,,,,,,,,,,p,1,1.354,1.557612413,1,5,10,0,40,0,1,,,,,,,,,,,,,,
,,,,,,,,,,,left.png,,w,right,5ed9c285b8c16356b385a97f,2021-10-22_16h20.24.725,arrow_simon_punish,2021.1.2,Win32,59.88023952,,,,,,,,,,,,,,w,1,1.954,2.144235462,1,5,10,1,41,3,1,,,,,,,,,,,,,,
,,,,,,,,,,,left.png,,w,left,5ed9c285b8c16356b385a97f,2021-10-22_16h20.24.725,arrow_simon_punish,2021.1.2,Win32,59.88023952,,,,,,,,,,,,,,w,1,1.805,1.857515137,1,5,10,2,42,2,1,,,,,,,,,,,,,,
,,,,,,,,,,,left.png,,w,right,5ed9c285b8c16356b385a97f,2021-10-22_16h20.24.725,arrow_simon_punish,2021.1.2,Win32,59.88023952,,,,,,,,,,,,,,w,1,2.239,1.562007695,1,5,10,3,43,3,1,,,,,,,,,,,,,,
,,,,,,,,,,,left.png,,w,right,5ed9c285b8c16356b385a97f,2021-10-22_16h20.24.725,arrow_simon_punish,2021.1.2,Win32,59.88023952,,,,,,,,,,,,,,w,1,2.103,2.36631765,1,5,11,0,44,3,1,,,,,,,,,,,,,,
,,,,,,,,,,,left.png,,w,left,5ed9c285b8c16356b385a97f,2021-10-22_16h20.24.725,arrow_simon_punish,2021.1.2,Win32,59.88023952,,,,,,,,,,,,,,w,1,2.037,2.241468995,1,5,11,1,45,2,1,,,,,,,,,,,,,,
,,,,,,,,,,,left.png,,w,right,5ed9c285b8c16356b385a97f,2021-10-22_16h20.24.725,arrow_simon_punish,2021.1.2,Win32,59.88023952,,,,,,,,,,,,,,w,1,1.993,2.204250844,1,5,11,2,46,3,1,,,,,,,,,,,,,,
,,,,,,,,,,,left.png,,w,right,5ed9c285b8c16356b385a97f,2021-10-22_16h20.24.725,arrow_simon_punish,2021.1.2,Win32,59.88023952,,,,,,,,,,,,,,w,1,1.91,1.719501985,1,5,11,3,47,3,1,,,,,,,,,,,,,,
,,,,,,,,,,,right.png,,p,right,5ed9c285b8c16356b385a97f,2021-10-22_16h20.24.725,arrow_simon_punish,2021.1.2,Win32,59.88023952,,,,,,,,,,,,,,p,1,1.186,1.538967387,1,5,12,0,48,1,1,,,,,,,,,,,,,,
,,,,,,,,,,,left.png,,w,right,5ed9c285b8c16356b385a97f,2021-10-22_16h20.24.725,arrow_simon_punish,2021.1.2,Win32,59.88023952,,,,,,,,,,,,,,w,1,2.042,2.296015246,1,5,12,1,49,3,1,,,,,,,,,,,,,,
,,,,,,,,,,,right.png,,p,right,5ed9c285b8c16356b385a97f,2021-10-22_16h20.24.725,arrow_simon_punish,2021.1.2,Win32,59.88023952,,,,,,,,,,,,,,p,1,2.739,2.451390434,1,5,12,2,50,1,1,,,,,,,,,,,,,,
,,,,,,,,,,,right.png,,p,right,5ed9c285b8c16356b385a97f,2021-10-22_16h20.24.725,arrow_simon_punish,2021.1.2,Win32,59.88023952,,,,,,,,,,,,,,w,0,2.162,2.318049767,1,5,12,3,51,1,1,,,,,,,,,,,,,,
,,,,,,,,,,,right.png,,p,left,5ed9c285b8c16356b385a97f,2021-10-22_16h20.24.725,arrow_simon_punish,2021.1.2,Win32,59.88023952,,,,,,,,,,,,,,p,1,1.839,2.237700955,1,5,13,0,52,0,1,,,,,,,,,,,,,,
,,,,,,,,,,,left.png,,w,left,5ed9c285b8c16356b385a97f,2021-10-22_16h20.24.725,arrow_simon_punish,2021.1.2,Win32,59.88023952,,,,,,,,,,,,,,w,1,1.793,2.114020547,1,5,13,1,53,2,1,,,,,,,,,,,,,,
,,,,,,,,,,,right.png,,p,right,5ed9c285b8c16356b385a97f,2021-10-22_16h20.24.725,arrow_simon_punish,2021.1.2,Win32,59.88023952,,,,,,,,,,,,,,p,1,1.572,1.861378894,0,5,13,2,54,1,1,,,,,,,,,,,,,,
,,,,,,,,,,,left.png,,w,right,5ed9c285b8c16356b385a97f,2021-10-22_16h20.24.725,arrow_simon_punish,2021.1.2,Win32,59.88023952,,,,,,,,,,,,,,w,1,1.67,1.642269591,1,5,13,3,55,3,1,,,,,,,,,,,,,,
,,,,,,,,,,,left.png,,w,left,5ed9c285b8c16356b385a97f,2021-10-22_16h20.24.725,arrow_simon_punish,2021.1.2,Win32,59.88023952,,,,,,,,,,,,,,w,1,1.973,1.657265228,1,5,14,0,56,2,1,,,,,,,,,,,,,,
,,,,,,,,,,,left.png,,w,right,5ed9c285b8c16356b385a97f,2021-10-22_16h20.24.725,arrow_simon_punish,2021.1.2,Win32,59.88023952,,,,,,,,,,,,,,w,1,2.361,2.421285046,1,5,14,1,57,3,1,,,,,,,,,,,,,,
,,,,,,,,,,,left.png,,w,left,5ed9c285b8c16356b385a97f,2021-10-22_16h20.24.725,arrow_simon_punish,2021.1.2,Win32,59.88023952,,,,,,,,,,,,,,w,1,1.606,1.704453159,1,5,14,2,58,2,1,,,,,,,,,,,,,,
,,,,,,,,,,,left.png,,w,right,5ed9c285b8c16356b385a97f,2021-10-22_16h20.24.725,arrow_simon_punish,2021.1.2,Win32,59.88023952,,,,,,,,,,,,,,w,1,2.038,2.214236612,1,5,14,3,59,3,1,,,,,,,,,,,,,,
,,,,,,,,,,,,,,,5ed9c285b8c16356b385a97f,2021-10-22_16h20.24.725,arrow_simon_punish,2021.1.2,Win32,59.88023952,,,,,,,,,,,,,,,,,,,,,,,,,space,24.517,3,0,1,1,1,1,5,,,,,
,,,,,,,,,,,left.png,,w,left,5ed9c285b8c16356b385a97f,2021-10-22_16h20.24.725,arrow_simon_punish,2021.1.2,Win32,59.88023952,,,,,,,,,,,,,,w,1,1.404,1.763771436,0,1,0,0,0,2,1,,,,,,,,,,,,,,
,,,,,,,,,,,left.png,,w,right,5ed9c285b8c16356b385a97f,2021-10-22_16h20.24.725,arrow_simon_punish,2021.1.2,Win32,59.88023952,,,,,,,,,,,,,,w,1,2.388,2.306163393,1,1,0,1,1,3,1,,,,,,,,,,,,,,
,,,,,,,,,,,right.png,,p,left,5ed9c285b8c16356b385a97f,2021-10-22_16h20.24.725,arrow_simon_punish,2021.1.2,Win32,59.88023952,,,,,,,,,,,,,,p,1,1.504,1.821573071,0,1,0,2,2,0,1,,,,,,,,,,,,,,
,,,,,,,,,,,right.png,,p,left,5ed9c285b8c16356b385a97f,2021-10-22_16h20.24.725,arrow_simon_punish,2021.1.2,Win32,59.88023952,,,,,,,,,,,,,,p,1,2.16,2.44536483,1,1,0,3,3,0,1,,,,,,,,,,,,,,
,,,,,,,,,,,left.png,,w,right,5ed9c285b8c16356b385a97f,2021-10-22_16h20.24.725,arrow_simon_punish,2021.1.2,Win32,59.88023952,,,,,,,,,,,,,,w,1,1.836,2.004653459,1,1,1,0,4,3,1,,,,,,,,,,,,,,
,,,,,,,,,,,left.png,,w,right,5ed9c285b8c16356b385a97f,2021-10-22_16h20.24.725,arrow_simon_punish,2021.1.2,Win32,59.88023952,,,,,,,,,,,,,,w,1,1.921,2.09692748,1,1,1,1,5,3,1,,,,,,,,,,,,,,
,,,,,,,,,,,right.png,,p,right,5ed9c285b8c16356b385a97f,2021-10-22_16h20.24.725,arrow_simon_punish,2021.1.2,Win32,59.88023952,,,,,,,,,,,,,,p,1,2.071,2.24469037,1,1,1,2,6,1,1,,,,,,,,,,,,,,
,,,,,,,,,,,left.png,,w,right,5ed9c285b8c16356b385a97f,2021-10-22_16h20.24.725,arrow_simon_punish,2021.1.2,Win32,59.88023952,,,,,,,,,,,,,,w,1,1.988,1.618106064,1,1,1,3,7,3,1,,,,,,,,,,,,,,
,,,,,,,,,,,left.png,,w,right,5ed9c285b8c16356b385a97f,2021-10-22_16h20.24.725,arrow_simon_punish,2021.1.2,Win32,59.88023952,,,,,,,,,,,,,,w,1,1.924,1.851399067,1,1,2,0,8,3,1,,,,,,,,,,,,,,
,,,,,,,,,,,right.png,,p,left,5ed9c285b8c16356b385a97f,2021-10-22_16h20.24.725,arrow_simon_punish,2021.1.2,Win32,59.88023952,,,,,,,,,,,,,,p,1,1.956,1.687756327,1,1,2,1,9,0,1,,,,,,,,,,,,,,
,,,,,,,,,,,left.png,,w,left,5ed9c285b8c16356b385a97f,2021-10-22_16h20.24.725,arrow_simon_punish,2021.1.2,Win32,59.88023952,,,,,,,,,,,,,,w,1,1.305,1.590467587,1,1,2,2,10,2,1,,,,,,,,,,,,,,
,,,,,,,,,,,right.png,,p,left,5ed9c285b8c16356b385a97f,2021-10-22_16h20.24.725,arrow_simon_punish,2021.1.2,Win32,59.88023952,,,,,,,,,,,,,,p,1,1.903,1.991708249,1,1,2,3,11,0,1,,,,,,,,,,,,,,
,,,,,,,,,,,left.png,,w,left,5ed9c285b8c16356b385a97f,2021-10-22_16h20.24.725,arrow_simon_punish,2021.1.2,Win32,59.88023952,,,,,,,,,,,,,,w,1,2.055,2.266561613,1,1,3,0,12,2,1,,,,,,,,,,,,,,
,,,,,,,,,,,right.png,,p,right,5ed9c285b8c16356b385a97f,2021-10-22_16h20.24.725,arrow_simon_punish,2021.1.2,Win32,59.88023952,,,,,,,,,,,,,,p,1,1.778,2.033794836,1,1,3,1,13,1,1,,,,,,,,,,,,,,
,,,,,,,,,,,left.png,,w,left,5ed9c285b8c16356b385a97f,2021-10-22_16h20.24.725,arrow_simon_punish,2021.1.2,Win32,59.88023952,,,,,,,,,,,,,,w,1,1.805,2.157344039,1,1,3,2,14,2,1,,,,,,,,,,,,,,
,,,,,,,,,,,right.png,,p,left,5ed9c285b8c16356b385a97f,2021-10-22_16h20.24.725,arrow_simon_punish,2021.1.2,Win32,59.88023952,,,,,,,,,,,,,,p,1,2.058,2.46901803,1,1,3,3,15,0,1,,,,,,,,,,,,,,
,,,,,,,,,,,left.png,,w,right,5ed9c285b8c16356b385a97f,2021-10-22_16h20.24.725,arrow_simon_punish,2021.1.2,Win32,59.88023952,,,,,,,,,,,,,,w,1,1.572,1.876076954,0,1,4,0,16,3,1,,,,,,,,,,,,,,
,,,,,,,,,,,right.png,,p,left,5ed9c285b8c16356b385a97f,2021-10-22_16h20.24.725,arrow_simon_punish,2021.1.2,Win32,59.88023952,,,,,,,,,,,,,,p,1,1.754,1.833367656,1,1,4,1,17,0,1,,,,,,,,,,,,,,
,,,,,,,,,,,right.png,,p,right,5ed9c285b8c16356b385a97f,2021-10-22_16h20.24.725,arrow_simon_punish,2021.1.2,Win32,59.88023952,,,,,,,,,,,,,,w,0,1.737,2.174289842,1,1,4,2,18,1,1,,,,,,,,,,,,,,
,,,,,,,,,,,right.png,,p,left,5ed9c285b8c16356b385a97f,2021-10-22_16h20.24.725,arrow_simon_punish,2021.1.2,Win32,59.88023952,,,,,,,,,,,,,,p,1,1.337,1.563229732,1,1,4,3,19,0,1,,,,,,,,,,,,,,
,,,,,,,,,,,left.png,,w,left,5ed9c285b8c16356b385a97f,2021-10-22_16h20.24.725,arrow_simon_punish,2021.1.2,Win32,59.88023952,,,,,,,,,,,,,,w,1,1.844,1.690164523,1,1,5,0,20,2,1,,,,,,,,,,,,,,
,,,,,,,,,,,left.png,,w,left,5ed9c285b8c16356b385a97f,2021-10-22_16h20.24.725,arrow_simon_punish,2021.1.2,Win32,59.88023952,,,,,,,,,,,,,,w,1,1.909,1.727310445,1,1,5,1,21,2,1,,,,,,,,,,,,,,
,,,,,,,,,,,left.png,,w,right,5ed9c285b8c16356b385a97f,2021-10-22_16h20.24.725,arrow_simon_punish,2021.1.2,Win32,59.88023952,,,,,,,,,,,,,,w,1,1.621,1.819659934,1,1,5,2,22,3,1,,,,,,,,,,,,,,
,,,,,,,,,,,left.png,,w,right,5ed9c285b8c16356b385a97f,2021-10-22_16h20.24.725,arrow_simon_punish,2021.1.2,Win32,59.88023952,,,,,,,,,,,,,,w,1,1.87,1.979189269,1,1,5,3,23,3,1,,,,,,,,,,,,,,
,,,,,,,,,,,right.png,,p,left,5ed9c285b8c16356b385a97f,2021-10-22_16h20.24.725,arrow_simon_punish,2021.1.2,Win32,59.88023952,,,,,,,,,,,,,,p,1,1.922,1.878800133,1,1,6,0,24,0,1,,,,,,,,,,,,,,
,,,,,,,,,,,right.png,,p,right,5ed9c285b8c16356b385a97f,2021-10-22_16h20.24.725,arrow_simon_punish,2021.1.2,Win32,59.88023952,,,,,,,,,,,,,,p,1,1.921,1.886579411,1,1,6,1,25,1,1,,,,,,,,,,,,,,
,,,,,,,,,,,left.png,,w,left,5ed9c285b8c16356b385a97f,2021-10-22_16h20.24.725,arrow_simon_punish,2021.1.2,Win32,59.88023952,,,,,,,,,,,,,,w,1,1.959,2.176473463,1,1,6,2,26,2,1,,,,,,,,,,,,,,
,,,,,,,,,,,right.png,,p,right,5ed9c285b8c16356b385a97f,2021-10-22_16h20.24.725,arrow_simon_punish,2021.1.2,Win32,59.88023952,,,,,,,,,,,,,,p,1,1.437,1.688037234,0,1,6,3,27,1,1,,,,,,,,,,,,,,
,,,,,,,,,,,right.png,,p,left,5ed9c285b8c16356b385a97f,2021-10-22_16h20.24.725,arrow_simon_punish,2021.1.2,Win32,59.88023952,,,,,,,,,,,,,,p,1,2.188,2.130183013,1,1,7,0,28,0,1,,,,,,,,,,,,,,
,,,,,,,,,,,left.png,,w,left,5ed9c285b8c16356b385a97f,2021-10-22_16h20.24.725,arrow_simon_punish,2021.1.2,Win32,59.88023952,,,,,,,,,,,,,,w,1,1.92,2.213941662,1,1,7,1,29,2,1,,,,,,,,,,,,,,
,,,,,,,,,,,right.png,,p,left,5ed9c285b8c16356b385a97f,2021-10-22_16h20.24.725,arrow_simon_punish,2021.1.2,Win32,59.88023952,,,,,,,,,,,,,,p,1,1.705,1.662495931,1,1,7,2,30,0,1,,,,,,,,,,,,,,
,,,,,,,,,,,right.png,,p,right,5ed9c285b8c16356b385a97f,2021-10-22_16h20.24.725,arrow_simon_punish,2021.1.2,Win32,59.88023952,,,,,,,,,,,,,,p,1,2.154,2.186843535,1,1,7,3,31,1,1,,,,,,,,,,,,,,
,,,,,,,,,,,right.png,,p,right,5ed9c285b8c16356b385a97f,2021-10-22_16h20.24.725,arrow_simon_punish,2021.1.2,Win32,59.88023952,,,,,,,,,,,,,,p,1,1.703,1.727561618,1,1,8,0,32,1,1,,,,,,,,,,,,,,
,,,,,,,,,,,left.png,,w,left,5ed9c285b8c16356b385a97f,2021-10-22_16h20.24.725,arrow_simon_punish,2021.1.2,Win32,59.88023952,,,,,,,,,,,,,,w,1,1.971,2.351178362,1,1,8,1,33,2,1,,,,,,,,,,,,,,
,,,,,,,,,,,left.png,,w,right,5ed9c285b8c16356b385a97f,2021-10-22_16h20.24.725,arrow_simon_punish,2021.1.2,Win32,59.88023952,,,,,,,,,,,,,,w,1,2.205,2.317608411,1,1,8,2,34,3,1,,,,,,,,,,,,,,
,,,,,,,,,,,left.png,,w,right,5ed9c285b8c16356b385a97f,2021-10-22_16h20.24.725,arrow_simon_punish,2021.1.2,Win32,59.88023952,,,,,,,,,,,,,,w,1,1.704,1.840064811,1,1,8,3,35,3,1,,,,,,,,,,,,,,
,,,,,,,,,,,left.png,,w,right,5ed9c285b8c16356b385a97f,2021-10-22_16h20.24.725,arrow_simon_punish,2021.1.2,Win32,59.88023952,,,,,,,,,,,,,,w,1,1.71,1.556263039,1,1,9,0,36,3,1,,,,,,,,,,,,,,
,,,,,,,,,,,left.png,,w,left,5ed9c285b8c16356b385a97f,2021-10-22_16h20.24.725,arrow_simon_punish,2021.1.2,Win32,59.88023952,,,,,,,,,,,,,,w,1,1.894,1.620661852,1,1,9,1,37,2,1,,,,,,,,,,,,,,
,,,,,,,,,,,right.png,,p,right,5ed9c285b8c16356b385a97f,2021-10-22_16h20.24.725,arrow_simon_punish,2021.1.2,Win32,59.88023952,,,,,,,,,,,,,,p,1,1.974,1.704464965,1,1,9,2,38,1,1,,,,,,,,,,,,,,
,,,,,,,,,,,right.png,,p,right,5ed9c285b8c16356b385a97f,2021-10-22_16h20.24.725,arrow_simon_punish,2021.1.2,Win32,59.88023952,,,,,,,,,,,,,,p,1,1.954,2.247746817,1,1,9,3,39,1,1,,,,,,,,,,,,,,
,,,,,,,,,,,right.png,,p,right,5ed9c285b8c16356b385a97f,2021-10-22_16h20.24.725,arrow_simon_punish,2021.1.2,Win32,59.88023952,,,,,,,,,,,,,,p,1,2.057,2.409854601,1,1,10,0,40,1,1,,,,,,,,,,,,,,
,,,,,,,,,,,left.png,,w,left,5ed9c285b8c16356b385a97f,2021-10-22_16h20.24.725,arrow_simon_punish,2021.1.2,Win32,59.88023952,,,,,,,,,,,,,,w,1,1.97,2.383581798,1,1,10,1,41,2,1,,,,,,,,,,,,,,
,,,,,,,,,,,right.png,,p,right,5ed9c285b8c16356b385a97f,2021-10-22_16h20.24.725,arrow_simon_punish,2021.1.2,Win32,59.88023952,,,,,,,,,,,,,,p,1,1.537,2.044268311,0,1,10,2,42,1,1,,,,,,,,,,,,,,
,,,,,,,,,,,right.png,,p,left,5ed9c285b8c16356b385a97f,2021-10-22_16h20.24.725,arrow_simon_punish,2021.1.2,Win32,59.88023952,,,,,,,,,,,,,,p,1,1.654,1.81657767,1,1,10,3,43,0,1,,,,,,,,,,,,,,
,,,,,,,,,,,left.png,,w,right,5ed9c285b8c16356b385a97f,2021-10-22_16h20.24.725,arrow_simon_punish,2021.1.2,Win32,59.88023952,,,,,,,,,,,,,,w,1,1.82,1.901053704,1,1,11,0,44,3,1,,,,,,,,,,,,,,
,,,,,,,,,,,right.png,,p,left,5ed9c285b8c16356b385a97f,2021-10-22_16h20.24.725,arrow_simon_punish,2021.1.2,Win32,59.88023952,,,,,,,,,,,,,,p,1,1.788,1.929814992,1,1,11,1,45,0,1,,,,,,,,,,,,,,
,,,,,,,,,,,left.png,,w,right,5ed9c285b8c16356b385a97f,2021-10-22_16h20.24.725,arrow_simon_punish,2021.1.2,Win32,59.88023952,,,,,,,,,,,,,,w,1,2.021,2.261553993,1,1,11,2,46,3,1,,,,,,,,,,,,,,
,,,,,,,,,,,left.png,,w,right,5ed9c285b8c16356b385a97f,2021-10-22_16h20.24.725,arrow_simon_punish,2021.1.2,Win32,59.88023952,,,,,,,,,,,,,,w,1,1.522,1.948920761,0,1,11,3,47,3,1,,,,,,,,,,,,,,
,,,,,,,,,,,right.png,,p,right,5ed9c285b8c16356b385a97f,2021-10-22_16h20.24.725,arrow_simon_punish,2021.1.2,Win32,59.88023952,,,,,,,,,,,,,,p,1,1.97,2.195271152,1,1,12,0,48,1,1,,,,,,,,,,,,,,
,,,,,,,,,,,left.png,,w,left,5ed9c285b8c16356b385a97f,2021-10-22_16h20.24.725,arrow_simon_punish,2021.1.2,Win32,59.88023952,,,,,,,,,,,,,,w,1,1.189,1.593740091,1,1,12,1,49,2,1,,,,,,,,,,,,,,
,,,,,,,,,,,left.png,,w,left,5ed9c285b8c16356b385a97f,2021-10-22_16h20.24.725,arrow_simon_punish,2021.1.2,Win32,59.88023952,,,,,,,,,,,,,,w,1,2.244,1.807931457,1,1,12,2,50,2,1,,,,,,,,,,,,,,
,,,,,,,,,,,left.png,,w,right,5ed9c285b8c16356b385a97f,2021-10-22_16h20.24.725,arrow_simon_punish,2021.1.2,Win32,59.88023952,,,,,,,,,,,,,,w,1,2.14,2.422533067,1,1,12,3,51,3,1,,,,,,,,,,,,,,
,,,,,,,,,,,right.png,,p,right,5ed9c285b8c16356b385a97f,2021-10-22_16h20.24.725,arrow_simon_punish,2021.1.2,Win32,59.88023952,,,,,,,,,,,,,,p,1,1.237,1.503741941,1,1,13,0,52,1,1,,,,,,,,,,,,,,
,,,,,,,,,,,right.png,,p,left,5ed9c285b8c16356b385a97f,2021-10-22_16h20.24.725,arrow_simon_punish,2021.1.2,Win32,59.88023952,,,,,,,,,,,,,,p,1,2.153,1.795654966,1,1,13,1,53,0,1,,,,,,,,,,,,,,
,,,,,,,,,,,right.png,,p,right,5ed9c285b8c16356b385a97f,2021-10-22_16h20.24.725,arrow_simon_punish,2021.1.2,Win32,59.88023952,,,,,,,,,,,,,,p,1,2.059,2.017109477,1,1,13,2,54,1,1,,,,,,,,,,,,,,
,,,,,,,,,,,right.png,,p,left,5ed9c285b8c16356b385a97f,2021-10-22_16h20.24.725,arrow_simon_punish,2021.1.2,Win32,59.88023952,,,,,,,,,,,,,,p,1,1.572,1.683788384,0,1,13,3,55,0,1,,,,,,,,,,,,,,
,,,,,,,,,,,right.png,,p,right,5ed9c285b8c16356b385a97f,2021-10-22_16h20.24.725,arrow_simon_punish,2021.1.2,Win32,59.88023952,,,,,,,,,,,,,,p,1,1.62,1.889031154,1,1,14,0,56,1,1,,,,,,,,,,,,,,
,,,,,,,,,,,left.png,,w,left,5ed9c285b8c16356b385a97f,2021-10-22_16h20.24.725,arrow_simon_punish,2021.1.2,Win32,59.88023952,,,,,,,,,,,,,,w,1,1.586,1.870803348,0,1,14,1,57,2,1,,,,,,,,,,,,,,
,,,,,,,,,,,left.png,,w,left,5ed9c285b8c16356b385a97f,2021-10-22_16h20.24.725,arrow_simon_punish,2021.1.2,Win32,59.88023952,,,,,,,,,,,,,,w,1,3.29,1.892636824,1,1,14,2,58,2,1,,,,,,,,,,,,,,
,,,,,,,,,,,right.png,,p,left,5ed9c285b8c16356b385a97f,2021-10-22_16h20.24.725,arrow_simon_punish,2021.1.2,Win32,59.88023952,,,,,,,,,,,,,,p,1,1.904,1.901466439,1,1,14,3,59,0,1,,,,,,,,,,,,,,
,,,,,,,,,,,,,,,5ed9c285b8c16356b385a97f,2021-10-22_16h20.24.725,arrow_simon_punish,2021.1.2,Win32,59.88023952,,,,,,,,,,,,,,,,,,,,,,,,,space,18.335,4,1,0,2,0,1,1,,,,,
,,,,,,,,,,,right.png,,p,right,5ed9c285b8c16356b385a97f,2021-10-22_16h20.24.725,arrow_simon_punish,2021.1.2,Win32,59.88023952,,,,,,,,,,,,,,p,1,1.327,1.804930213,1,5,0,0,0,1,1,,,,,,,,,,,,,,
,,,,,,,,,,,left.png,,w,right,5ed9c285b8c16356b385a97f,2021-10-22_16h20.24.725,arrow_simon_punish,2021.1.2,Win32,59.88023952,,,,,,,,,,,,,,w,1,1.587,1.985276523,0,5,0,1,1,3,1,,,,,,,,,,,,,,
,,,,,,,,,,,right.png,,p,right,5ed9c285b8c16356b385a97f,2021-10-22_16h20.24.725,arrow_simon_punish,2021.1.2,Win32,59.88023952,,,,,,,,,,,,,,p,1,1.058,1.503775455,1,5,0,2,2,1,1,,,,,,,,,,,,,,
,,,,,,,,,,,left.png,,w,right,5ed9c285b8c16356b385a97f,2021-10-22_16h20.24.725,arrow_simon_punish,2021.1.2,Win32,59.88023952,,,,,,,,,,,,,,w,1,1.373,1.661178705,1,5,0,3,3,3,1,,,,,,,,,,,,,,
,,,,,,,,,,,left.png,,w,right,5ed9c285b8c16356b385a97f,2021-10-22_16h20.24.725,arrow_simon_punish,2021.1.2,Win32,59.88023952,,,,,,,,,,,,,,w,1,1.87,2.204502526,1,5,1,0,4,3,1,,,,,,,,,,,,,,
,,,,,,,,,,,right.png,,p,left,5ed9c285b8c16356b385a97f,2021-10-22_16h20.24.725,arrow_simon_punish,2021.1.2,Win32,59.88023952,,,,,,,,,,,,,,p,1,1.772,2.123744488,1,5,1,1,5,0,1,,,,,,,,,,,,,,
,,,,,,,,,,,right.png,,p,right,5ed9c285b8c16356b385a97f,2021-10-22_16h20.24.725,arrow_simon_punish,2021.1.2,Win32,59.88023952,,,,,,,,,,,,,,p,1,1.804,2.223496143,1,5,1,2,6,1,1,,,,,,,,,,,,,,
,,,,,,,,,,,right.png,,p,right,5ed9c285b8c16356b385a97f,2021-10-22_16h20.24.725,arrow_simon_punish,2021.1.2,Win32,59.88023952,,,,,,,,,,,,,,p,1,1.103,1.620308709,1,5,1,3,7,1,1,,,,,,,,,,,,,,
,,,,,,,,,,,right.png,,p,right,5ed9c285b8c16356b385a97f,2021-10-22_16h20.24.725,arrow_simon_punish,2021.1.2,Win32,59.88023952,,,,,,,,,,,,,,p,1,1.604,2.146114031,1,5,2,0,8,1,1,,,,,,,,,,,,,,
,,,,,,,,,,,left.png,,w,right,5ed9c285b8c16356b385a97f,2021-10-22_16h20.24.725,arrow_simon_punish,2021.1.2,Win32,59.88023952,,,,,,,,,,,,,,w,1,1.224,1.734891802,1,5,2,1,9,3,1,,,,,,,,,,,,,,
,,,,,,,,,,,left.png,,w,right,5ed9c285b8c16356b385a97f,2021-10-22_16h20.24.725,arrow_simon_punish,2021.1.2,Win32,59.88023952,,,,,,,,,,,,,,w,1,2.307,2.442728713,1,5,2,2,10,3,1,,,,,,,,,,,,,,
,,,,,,,,,,,left.png,,w,right,5ed9c285b8c16356b385a97f,2021-10-22_16h20.24.725,arrow_simon_punish,2021.1.2,Win32,59.88023952,,,,,,,,,,,,,,w,1,2.154,2.058602223,1,5,2,3,11,3,1,,,,,,,,,,,,,,
,,,,,,,,,,,right.png,,p,left,5ed9c285b8c16356b385a97f,2021-10-22_16h20.24.725,arrow_simon_punish,2021.1.2,Win32,59.88023952,,,,,,,,,,,,,,p,1,1.159,1.580250055,1,5,3,0,12,0,1,,,,,,,,,,,,,,
,,,,,,,,,,,right.png,,p,right,5ed9c285b8c16356b385a97f,2021-10-22_16h20.24.725,arrow_simon_punish,2021.1.2,Win32,59.88023952,,,,,,,,,,,,,,w,0,2.087,2.2257576,1,5,3,1,13,1,1,,,,,,,,,,,,,,
,,,,,,,,,,,left.png,,w,right,5ed9c285b8c16356b385a97f,2021-10-22_16h20.24.725,arrow_simon_punish,2021.1.2,Win32,59.88023952,,,,,,,,,,,,,,w,1,1.373,1.626747006,1,5,3,2,14,3,1,,,,,,,,,,,,,,
,,,,,,,,,,,left.png,,w,left,5ed9c285b8c16356b385a97f,2021-10-22_16h20.24.725,arrow_simon_punish,2021.1.2,Win32,59.88023952,,,,,,,,,,,,,,w,1,1.77,1.979126829,1,5,3,3,15,2,1,,,,,,,,,,,,,,
,,,,,,,,,,,right.png,,p,left,5ed9c285b8c16356b385a97f,2021-10-22_16h20.24.725,arrow_simon_punish,2021.1.2,Win32,59.88023952,,,,,,,,,,,,,,p,1,1.873,1.565835222,1,5,4,0,16,0,1,,,,,,,,,,,,,,
,,,,,,,,,,,left.png,,w,left,5ed9c285b8c16356b385a97f,2021-10-22_16h20.24.725,arrow_simon_punish,2021.1.2,Win32,59.88023952,,,,,,,,,,,,,,w,1,1.905,1.5537091,1,5,4,1,17,2,1,,,,,,,,,,,,,,
,,,,,,,,,,,right.png,,p,left,5ed9c285b8c16356b385a97f,2021-10-22_16h20.24.725,arrow_simon_punish,2021.1.2,Win32,59.88023952,,,,,,,,,,,,,,p,1,1.419,1.64718882,0,5,4,2,18,0,1,,,,,,,,,,,,,,
,,,,,,,,,,,right.png,,p,left,5ed9c285b8c16356b385a97f,2021-10-22_16h20.24.725,arrow_simon_punish,2021.1.2,Win32,59.88023952,,,,,,,,,,,,,,p,1,1.336,1.714062347,1,5,4,3,19,0,1,,,,,,,,,,,,,,
,,,,,,,,,,,left.png,,w,left,5ed9c285b8c16356b385a97f,2021-10-22_16h20.24.725,arrow_simon_punish,2021.1.2,Win32,59.88023952,,,,,,,,,,,,,,w,1,1.772,2.3202305,1,5,5,0,20,2,1,,,,,,,,,,,,,,
,,,,,,,,,,,right.png,,p,left,5ed9c285b8c16356b385a97f,2021-10-22_16h20.24.725,arrow_simon_punish,2021.1.2,Win32,59.88023952,,,,,,,,,,,,,,p,1,1.439,1.886893134,0,5,5,1,21,0,1,,,,,,,,,,,,,,
,,,,,,,,,,,right.png,,p,right,5ed9c285b8c16356b385a97f,2021-10-22_16h20.24.725,arrow_simon_punish,2021.1.2,Win32,59.88023952,,,,,,,,,,,,,,p,1,1.995,2.261520872,1,5,5,2,22,1,1,,,,,,,,,,,,,,
,,,,,,,,,,,right.png,,p,right,5ed9c285b8c16356b385a97f,2021-10-22_16h20.24.725,arrow_simon_punish,2021.1.2,Win32,59.88023952,,,,,,,,,,,,,,p,1,1.574,1.775519999,0,5,5,3,23,1,1,,,,,,,,,,,,,,
,,,,,,,,,,,right.png,,p,right,5ed9c285b8c16356b385a97f,2021-10-22_16h20.24.725,arrow_simon_punish,2021.1.2,Win32,59.88023952,,,,,,,,,,,,,,p,1,1.876,1.860838669,1,5,6,0,24,1,1,,,,,,,,,,,,,,
,,,,,,,,,,,right.png,,p,right,5ed9c285b8c16356b385a97f,2021-10-22_16h20.24.725,arrow_simon_punish,2021.1.2,Win32,59.88023952,,,,,,,,,,,,,,p,1,2.005,2.069157963,1,5,6,1,25,1,1,,,,,,,,,,,,,,
,,,,,,,,,,,left.png,,w,right,5ed9c285b8c16356b385a97f,2021-10-22_16h20.24.725,arrow_simon_punish,2021.1.2,Win32,59.88023952,,,,,,,,,,,,,,w,1,2.288,2.354915753,1,5,6,2,26,3,1,,,,,,,,,,,,,,
,,,,,,,,,,,left.png,,w,left,5ed9c285b8c16356b385a97f,2021-10-22_16h20.24.725,arrow_simon_punish,2021.1.2,Win32,59.88023952,,,,,,,,,,,,,,w,1,2.338,2.059863668,1,5,6,3,27,2,1,,,,,,,,,,,,,,
,,,,,,,,,,,left.png,,w,right,5ed9c285b8c16356b385a97f,2021-10-22_16h20.24.725,arrow_simon_punish,2021.1.2,Win32,59.88023952,,,,,,,,,,,,,,w,1,1.254,1.500851118,1,5,7,0,28,3,1,,,,,,,,,,,,,,
,,,,,,,,,,,left.png,,w,right,5ed9c285b8c16356b385a97f,2021-10-22_16h20.24.725,arrow_simon_punish,2021.1.2,Win32,59.88023952,,,,,,,,,,,,,,w,1,1.944,2.021098081,1,5,7,1,29,3,1,,,,,,,,,,,,,,
,,,,,,,,,,,left.png,,w,left,5ed9c285b8c16356b385a97f,2021-10-22_16h20.24.725,arrow_simon_punish,2021.1.2,Win32,59.88023952,,,,,,,,,,,,,,w,1,1.971,2.116442662,1,5,7,2,30,2,1,,,,,,,,,,,,,,
,,,,,,,,,,,right.png,,p,left,5ed9c285b8c16356b385a97f,2021-10-22_16h20.24.725,arrow_simon_punish,2021.1.2,Win32,59.88023952,,,,,,,,,,,,,,p,1,2.075,2.105393691,1,5,7,3,31,0,1,,,,,,,,,,,,,,
,,,,,,,,,,,left.png,,w,right,5ed9c285b8c16356b385a97f,2021-10-22_16h20.24.725,arrow_simon_punish,2021.1.2,Win32,59.88023952,,,,,,,,,,,,,,w,1,1.72,2.057689836,1,5,8,0,32,3,1,,,,,,,,,,,,,,
,,,,,,,,,,,left.png,,w,left,5ed9c285b8c16356b385a97f,2021-10-22_16h20.24.725,arrow_simon_punish,2021.1.2,Win32,59.88023952,,,,,,,,,,,,,,w,1,2.271,2.225318725,1,5,8,1,33,2,1,,,,,,,,,,,,,,
,,,,,,,,,,,right.png,,p,right,5ed9c285b8c16356b385a97f,2021-10-22_16h20.24.725,arrow_simon_punish,2021.1.2,Win32,59.88023952,,,,,,,,,,,,,,p,1,1.621,1.913121368,1,5,8,2,34,1,1,,,,,,,,,,,,,,
,,,,,,,,,,,left.png,,w,left,5ed9c285b8c16356b385a97f,2021-10-22_16h20.24.725,arrow_simon_punish,2021.1.2,Win32,59.88023952,,,,,,,,,,,,,,w,1,1.837,2.048957082,1,5,8,3,35,2,1,,,,,,,,,,,,,,
,,,,,,,,,,,left.png,,w,left,5ed9c285b8c16356b385a97f,2021-10-22_16h20.24.725,arrow_simon_punish,2021.1.2,Win32,59.88023952,,,,,,,,,,,,,,w,1,1.99,1.630361293,1,5,9,0,36,2,1,,,,,,,,,,,,,,
,,,,,,,,,,,left.png,,w,left,5ed9c285b8c16356b385a97f,2021-10-22_16h20.24.725,arrow_simon_punish,2021.1.2,Win32,59.88023952,,,,,,,,,,,,,,w,1,1.269,1.553571857,1,5,9,1,37,2,1,,,,,,,,,,,,,,
,,,,,,,,,,,right.png,,p,right,5ed9c285b8c16356b385a97f,2021-10-22_16h20.24.725,arrow_simon_punish,2021.1.2,Win32,59.88023952,,,,,,,,,,,,,,p,1,1.174,1.558132836,1,5,9,2,38,1,1,,,,,,,,,,,,,,
,,,,,,,,,,,left.png,,w,right,5ed9c285b8c16356b385a97f,2021-10-22_16h20.24.725,arrow_simon_punish,2021.1.2,Win32,59.88023952,,,,,,,,,,,,,,w,1,1.907,1.769232966,1,5,9,3,39,3,1,,,,,,,,,,,,,,
,,,,,,,,,,,right.png,,p,right,5ed9c285b8c16356b385a97f,2021-10-22_16h20.24.725,arrow_simon_punish,2021.1.2,Win32,59.88023952,,,,,,,,,,,,,,p,1,1.97,2.216839629,1,5,10,0,40,1,1,,,,,,,,,,,,,,
,,,,,,,,,,,right.png,,p,left,5ed9c285b8c16356b385a97f,2021-10-22_16h20.24.725,arrow_simon_punish,2021.1.2,Win32,59.88023952,,,,,,,,,,,,,,p,1,2.139,1.630438315,1,5,10,1,41,0,1,,,,,,,,,,,,,,
,,,,,,,,,,,left.png,,w,right,5ed9c285b8c16356b385a97f,2021-10-22_16h20.24.725,arrow_simon_punish,2021.1.2,Win32,59.88023952,,,,,,,,,,,,,,w,1,1.994,2.055379141,1,5,10,2,42,3,1,,,,,,,,,,,,,,
,,,,,,,,,,,right.png,,p,left,5ed9c285b8c16356b385a97f,2021-10-22_16h20.24.725,arrow_simon_punish,2021.1.2,Win32,59.88023952,,,,,,,,,,,,,,p,1,2.142,2.277543801,1,5,10,3,43,0,1,,,,,,,,,,,,,,
,,,,,,,,,,,left.png,,w,left,5ed9c285b8c16356b385a97f,2021-10-22_16h20.24.725,arrow_simon_punish,2021.1.2,Win32,59.88023952,,,,,,,,,,,,,,w,1,2.087,2.260158175,1,5,11,0,44,2,1,,,,,,,,,,,,,,
,,,,,,,,,,,right.png,,p,left,5ed9c285b8c16356b385a97f,2021-10-22_16h20.24.725,arrow_simon_punish,2021.1.2,Win32,59.88023952,,,,,,,,,,,,,,p,1,2.07,2.210398956,1,5,11,1,45,0,1,,,,,,,,,,,,,,
,,,,,,,,,,,left.png,,w,right,5ed9c285b8c16356b385a97f,2021-10-22_16h20.24.725,arrow_simon_punish,2021.1.2,Win32,59.88023952,,,,,,,,,,,,,,w,1,2.02,1.84931379,1,5,11,2,46,3,1,,,,,,,,,,,,,,
,,,,,,,,,,,right.png,,p,left,5ed9c285b8c16356b385a97f,2021-10-22_16h20.24.725,arrow_simon_punish,2021.1.2,Win32,59.88023952,,,,,,,,,,,,,,p,1,1.937,1.509507386,1,5,11,3,47,0,1,,,,,,,,,,,,,,
,,,,,,,,,,,left.png,,w,left,5ed9c285b8c16356b385a97f,2021-10-22_16h20.24.725,arrow_simon_punish,2021.1.2,Win32,59.88023952,,,,,,,,,,,,,,w,1,2.31,1.798165416,1,5,12,0,48,2,1,,,,,,,,,,,,,,
,,,,,,,,,,,left.png,,w,left,5ed9c285b8c16356b385a97f,2021-10-22_16h20.24.725,arrow_simon_punish,2021.1.2,Win32,59.88023952,,,,,,,,,,,,,,w,1,2.139,2.46484,1,5,12,1,49,2,1,,,,,,,,,,,,,,
,,,,,,,,,,,left.png,,w,left,5ed9c285b8c16356b385a97f,2021-10-22_16h20.24.725,arrow_simon_punish,2021.1.2,Win32,59.88023952,,,,,,,,,,,,,,w,1,1.203,1.590809942,1,5,12,2,50,2,1,,,,,,,,,,,,,,
,,,,,,,,,,,right.png,,p,right,5ed9c285b8c16356b385a97f,2021-10-22_16h20.24.725,arrow_simon_punish,2021.1.2,Win32,59.88023952,,,,,,,,,,,,,,p,1,1.911,2.180884892,1,5,12,3,51,1,1,,,,,,,,,,,,,,
,,,,,,,,,,,right.png,,p,right,5ed9c285b8c16356b385a97f,2021-10-22_16h20.24.725,arrow_simon_punish,2021.1.2,Win32,59.88023952,,,,,,,,,,,,,,p,1,2.187,2.437991397,1,5,13,0,52,1,1,,,,,,,,,,,,,,
,,,,,,,,,,,left.png,,w,left,5ed9c285b8c16356b385a97f,2021-10-22_16h20.24.725,arrow_simon_punish,2021.1.2,Win32,59.88023952,,,,,,,,,,,,,,w,1,1.843,1.734978382,1,5,13,1,53,2,1,,,,,,,,,,,,,,
,,,,,,,,,,,left.png,,w,right,5ed9c285b8c16356b385a97f,2021-10-22_16h20.24.725,arrow_simon_punish,2021.1.2,Win32,59.88023952,,,,,,,,,,,,,,w,1,2.029,1.616002795,1,5,13,2,54,3,1,,,,,,,,,,,,,,
,,,,,,,,,,,right.png,,p,left,5ed9c285b8c16356b385a97f,2021-10-22_16h20.24.725,arrow_simon_punish,2021.1.2,Win32,59.88023952,,,,,,,,,,,,,,p,1,2.022,1.549288146,1,5,13,3,55,0,1,,,,,,,,,,,,,,
,,,,,,,,,,,left.png,,w,left,5ed9c285b8c16356b385a97f,2021-10-22_16h20.24.725,arrow_simon_punish,2021.1.2,Win32,59.88023952,,,,,,,,,,,,,,w,1,1.286,1.513505152,1,5,14,0,56,2,1,,,,,,,,,,,,,,
,,,,,,,,,,,right.png,,p,left,5ed9c285b8c16356b385a97f,2021-10-22_16h20.24.725,arrow_simon_punish,2021.1.2,Win32,59.88023952,,,,,,,,,,,,,,p,1,2.011,2.197302797,1,5,14,1,57,0,1,,,,,,,,,,,,,,
,,,,,,,,,,,right.png,,p,left,5ed9c285b8c16356b385a97f,2021-10-22_16h20.24.725,arrow_simon_punish,2021.1.2,Win32,59.88023952,,,,,,,,,,,,,,p,1,2.104,2.369586832,1,5,14,2,58,0,1,,,,,,,,,,,,,,
,,,,,,,,,,,right.png,,p,left,5ed9c285b8c16356b385a97f,2021-10-22_16h20.24.725,arrow_simon_punish,2021.1.2,Win32,59.88023952,,,,,,,,,,,,,,p,1,2.021,2.288077612,1,5,14,3,59,0,1,,,,,,,,,,,,,,
,,,,,,,,,,,,,,,5ed9c285b8c16356b385a97f,2021-10-22_16h20.24.725,arrow_simon_punish,2021.1.2,Win32,59.88023952,,,,,,,,,,,,,,,,,,,,,,,,,space,38.953,5,1,1,3,1,1,5,,,,,
,,,,,,,,,,,right.png,,p,right,5ed9c285b8c16356b385a97f,2021-10-22_16h20.24.725,arrow_simon_punish,2021.1.2,Win32,59.88023952,,,,,,,,,,,,,,p,1,1.236,1.537903646,1,1,0,0,0,1,1,,,,,,,,,,,,,,
,,,,,,,,,,,left.png,,w,right,5ed9c285b8c16356b385a97f,2021-10-22_16h20.24.725,arrow_simon_punish,2021.1.2,Win32,59.88023952,,,,,,,,,,,,,,w,1,1.945,2.097230606,1,1,0,1,1,3,1,,,,,,,,,,,,,,
,,,,,,,,,,,right.png,,p,left,5ed9c285b8c16356b385a97f,2021-10-22_16h20.24.725,arrow_simon_punish,2021.1.2,Win32,59.88023952,,,,,,,,,,,,,,p,1,1.803,1.991342753,1,1,0,2,2,0,1,,,,,,,,,,,,,,
,,,,,,,,,,,right.png,,p,left,5ed9c285b8c16356b385a97f,2021-10-22_16h20.24.725,arrow_simon_punish,2021.1.2,Win32,59.88023952,,,,,,,,,,,,,,p,1,1.892,1.773245531,1,1,0,3,3,0,1,,,,,,,,,,,,,,
,,,,,,,,,,,left.png,,w,left,5ed9c285b8c16356b385a97f,2021-10-22_16h20.24.725,arrow_simon_punish,2021.1.2,Win32,59.88023952,,,,,,,,,,,,,,p,0,1.956,2.036453332,1,1,1,0,4,2,1,,,,,,,,,,,,,,
,,,,,,,,,,,left.png,,w,left,5ed9c285b8c16356b385a97f,2021-10-22_16h20.24.725,arrow_simon_punish,2021.1.2,Win32,59.88023952,,,,,,,,,,,,,,w,1,1.84,2.116843583,1,1,1,1,5,2,1,,,,,,,,,,,,,,
,,,,,,,,,,,right.png,,p,left,5ed9c285b8c16356b385a97f,2021-10-22_16h20.24.725,arrow_simon_punish,2021.1.2,Win32,59.88023952,,,,,,,,,,,,,,p,1,1.836,1.578445743,1,1,1,2,6,0,1,,,,,,,,,,,,,,
,,,,,,,,,,,left.png,,w,left,5ed9c285b8c16356b385a97f,2021-10-22_16h20.24.725,arrow_simon_punish,2021.1.2,Win32,59.88023952,,,,,,,,,,,,,,w,1,1.737,1.631197538,1,1,1,3,7,2,1,,,,,,,,,,,,,,
,,,,,,,,,,,left.png,,w,left,5ed9c285b8c16356b385a97f,2021-10-22_16h20.24.725,arrow_simon_punish,2021.1.2,Win32,59.88023952,,,,,,,,,,,,,,w,1,1.855,2.297788558,1,1,2,0,8,2,1,,,,,,,,,,,,,,
,,,,,,,,,,,left.png,,w,left,5ed9c285b8c16356b385a97f,2021-10-22_16h20.24.725,arrow_simon_punish,2021.1.2,Win32,59.88023952,,,,,,,,,,,,,,w,1,1.294,1.686404674,1,1,2,1,9,2,1,,,,,,,,,,,,,,
,,,,,,,,,,,left.png,,w,right,5ed9c285b8c16356b385a97f,2021-10-22_16h20.24.725,arrow_simon_punish,2021.1.2,Win32,59.88023952,,,,,,,,,,,,,,w,1,1.921,1.999826527,1,1,2,2,10,3,1,,,,,,,,,,,,,,
,,,,,,,,,,,left.png,,w,right,5ed9c285b8c16356b385a97f,2021-10-22_16h20.24.725,arrow_simon_punish,2021.1.2,Win32,59.88023952,,,,,,,,,,,,,,w,1,1.957,2.232228883,1,1,2,3,11,3,1,,,,,,,,,,,,,,
,,,,,,,,,,,right.png,,p,right,5ed9c285b8c16356b385a97f,2021-10-22_16h20.24.725,arrow_simon_punish,2021.1.2,Win32,59.88023952,,,,,,,,,,,,,,p,1,2.171,2.395807617,1,1,3,0,12,1,1,,,,,,,,,,,,,,
,,,,,,,,,,,left.png,,w,right,5ed9c285b8c16356b385a97f,2021-10-22_16h20.24.725,arrow_simon_punish,2021.1.2,Win32,59.88023952,,,,,,,,,,,,,,w,1,1.821,1.983507897,1,1,3,1,13,3,1,,,,,,,,,,,,,,
,,,,,,,,,,,right.png,,p,left,5ed9c285b8c16356b385a97f,2021-10-22_16h20.24.725,arrow_simon_punish,2021.1.2,Win32,59.88023952,,,,,,,,,,,,,,p,1,2.072,2.307053583,1,1,3,2,14,0,1,,,,,,,,,,,,,,
,,,,,,,,,,,left.png,,w,left,5ed9c285b8c16356b385a97f,2021-10-22_16h20.24.725,arrow_simon_punish,2021.1.2,Win32,59.88023952,,,,,,,,,,,,,,w,1,2.036,2.223816546,1,1,3,3,15,2,1,,,,,,,,,,,,,,
,,,,,,,,,,,right.png,,p,left,5ed9c285b8c16356b385a97f,2021-10-22_16h20.24.725,arrow_simon_punish,2021.1.2,Win32,59.88023952,,,,,,,,,,,,,,p,1,2.141,2.470052519,1,1,4,0,16,0,1,,,,,,,,,,,,,,
,,,,,,,,,,,right.png,,p,left,5ed9c285b8c16356b385a97f,2021-10-22_16h20.24.725,arrow_simon_punish,2021.1.2,Win32,59.88023952,,,,,,,,,,,,,,p,1,2.345,2.077131606,1,1,4,1,17,0,1,,,,,,,,,,,,,,
,,,,,,,,,,,left.png,,w,left,5ed9c285b8c16356b385a97f,2021-10-22_16h20.24.725,arrow_simon_punish,2021.1.2,Win32,59.88023952,,,,,,,,,,,,,,w,1,1.971,2.225944814,1,1,4,2,18,2,1,,,,,,,,,,,,,,
,,,,,,,,,,,right.png,,p,right,5ed9c285b8c16356b385a97f,2021-10-22_16h20.24.725,arrow_simon_punish,2021.1.2,Win32,59.88023952,,,,,,,,,,,,,,p,1,1.971,1.932712208,1,1,4,3,19,1,1,,,,,,,,,,,,,,
,,,,,,,,,,,left.png,,w,left,5ed9c285b8c16356b385a97f,2021-10-22_16h20.24.725,arrow_simon_punish,2021.1.2,Win32,59.88023952,,,,,,,,,,,,,,w,1,2.12,2.44184884,1,1,5,0,20,2,1,,,,,,,,,,,,,,
,,,,,,,,,,,left.png,,w,right,5ed9c285b8c16356b385a97f,2021-10-22_16h20.24.725,arrow_simon_punish,2021.1.2,Win32,59.88023952,,,,,,,,,,,,,,w,1,2.22,2.437579733,1,1,5,1,21,3,1,,,,,,,,,,,,,,
,,,,,,,,,,,left.png,,w,right,5ed9c285b8c16356b385a97f,2021-10-22_16h20.24.725,arrow_simon_punish,2021.1.2,Win32,59.88023952,,,,,,,,,,,,,,w,1,1.954,1.949985548,1,1,5,2,22,3,1,,,,,,,,,,,,,,
,,,,,,,,,,,right.png,,p,left,5ed9c285b8c16356b385a97f,2021-10-22_16h20.24.725,arrow_simon_punish,2021.1.2,Win32,59.88023952,,,,,,,,,,,,,,p,1,1.854,1.707167715,1,1,5,3,23,0,1,,,,,,,,,,,,,,
,,,,,,,,,,,left.png,,w,right,5ed9c285b8c16356b385a97f,2021-10-22_16h20.24.725,arrow_simon_punish,2021.1.2,Win32,59.88023952,,,,,,,,,,,,,,w,1,2.129,2.322304958,1,1,6,0,24,3,1,,,,,,,,,,,,,,
,,,,,,,,,,,right.png,,p,right,5ed9c285b8c16356b385a97f,2021-10-22_16h20.24.725,arrow_simon_punish,2021.1.2,Win32,59.88023952,,,,,,,,,,,,,,p,1,1.687,1.918464625,1,1,6,1,25,1,1,,,,,,,,,,,,,,
,,,,,,,,,,,left.png,,w,right,5ed9c285b8c16356b385a97f,2021-10-22_16h20.24.725,arrow_simon_punish,2021.1.2,Win32,59.88023952,,,,,,,,,,,,,,w,1,1.787,1.844898674,1,1,6,2,26,3,1,,,,,,,,,,,,,,
,,,,,,,,,,,right.png,,p,left,5ed9c285b8c16356b385a97f,2021-10-22_16h20.24.725,arrow_simon_punish,2021.1.2,Win32,59.88023952,,,,,,,,,,,,,,p,1,2.038,1.939611078,1,1,6,3,27,0,1,,,,,,,,,,,,,,
,,,,,,,,,,,right.png,,p,right,5ed9c285b8c16356b385a97f,2021-10-22_16h20.24.725,arrow_simon_punish,2021.1.2,Win32,59.88023952,,,,,,,,,,,,,,p,1,1.721,2.005416242,1,1,7,0,28,1,1,,,,,,,,,,,,,,
,,,,,,,,,,,left.png,,w,left,5ed9c285b8c16356b385a97f,2021-10-22_16h20.24.725,arrow_simon_punish,2021.1.2,Win32,59.88023952,,,,,,,,,,,,,,w,1,1.773,2.079659198,1,1,7,1,29,2,1,,,,,,,,,,,,,,
,,,,,,,,,,,right.png,,p,right,5ed9c285b8c16356b385a97f,2021-10-22_16h20.24.725,arrow_simon_punish,2021.1.2,Win32,59.88023952,,,,,,,,,,,,,,p,1,1.536,1.967945201,0,1,7,2,30,1,1,,,,,,,,,,,,,,
,,,,,,,,,,,left.png,,w,right,5ed9c285b8c16356b385a97f,2021-10-22_16h20.24.725,arrow_simon_punish,2021.1.2,Win32,59.88023952,,,,,,,,,,,,,,w,1,1.336,1.54185336,1,1,7,3,31,3,1,,,,,,,,,,,,,,
,,,,,,,,,,,left.png,,w,right,5ed9c285b8c16356b385a97f,2021-10-22_16h20.24.725,arrow_simon_punish,2021.1.2,Win32,59.88023952,,,,,,,,,,,,,,w,1,2.257,1.88224876,1,1,8,0,32,3,1,,,,,,,,,,,,,,
,,,,,,,,,,,left.png,,w,right,5ed9c285b8c16356b385a97f,2021-10-22_16h20.24.725,arrow_simon_punish,2021.1.2,Win32,59.88023952,,,,,,,,,,,,,,w,1,2.554,2.478861542,1,1,8,1,33,3,1,,,,,,,,,,,,,,
,,,,,,,,,,,right.png,,p,right,5ed9c285b8c16356b385a97f,2021-10-22_16h20.24.725,arrow_simon_punish,2021.1.2,Win32,59.88023952,,,,,,,,,,,,,,p,1,1.31,1.654126476,1,1,8,2,34,1,1,,,,,,,,,,,,,,
,,,,,,,,,,,left.png,,w,left,5ed9c285b8c16356b385a97f,2021-10-22_16h20.24.725,arrow_simon_punish,2021.1.2,Win32,59.88023952,,,,,,,,,,,,,,w,1,1.99,2.154908909,1,1,8,3,35,2,1,,,,,,,,,,,,,,
,,,,,,,,,,,right.png,,p,right,5ed9c285b8c16356b385a97f,2021-10-22_16h20.24.725,arrow_simon_punish,2021.1.2,Win32,59.88023952,,,,,,,,,,,,,,p,1,1.995,1.712606087,1,1,9,0,36,1,1,,,,,,,,,,,,,,
,,,,,,,,,,,right.png,,p,right,5ed9c285b8c16356b385a97f,2021-10-22_16h20.24.725,arrow_simon_punish,2021.1.2,Win32,59.88023952,,,,,,,,,,,,,,p,1,2.171,2.268371261,1,1,9,1,37,1,1,,,,,,,,,,,,,,
,,,,,,,,,,,right.png,,p,right,5ed9c285b8c16356b385a97f,2021-10-22_16h20.24.725,arrow_simon_punish,2021.1.2,Win32,59.88023952,,,,,,,,,,,,,,p,1,1.195,1.620573439,1,1,9,2,38,1,1,,,,,,,,,,,,,,
,,,,,,,,,,,right.png,,p,left,5ed9c285b8c16356b385a97f,2021-10-22_16h20.24.725,arrow_simon_punish,2021.1.2,Win32,59.88023952,,,,,,,,,,,,,,p,1,2.36,2.102846519,1,1,9,3,39,0,1,,,,,,,,,,,,,,
,,,,,,,,,,,right.png,,p,left,5ed9c285b8c16356b385a97f,2021-10-22_16h20.24.725,arrow_simon_punish,2021.1.2,Win32,59.88023952,,,,,,,,,,,,,,w,0,2.028,2.12809229,1,1,10,0,40,0,1,,,,,,,,,,,,,,
,,,,,,,,,,,right.png,,p,right,5ed9c285b8c16356b385a97f,2021-10-22_16h20.24.725,arrow_simon_punish,2021.1.2,Win32,59.88023952,,,,,,,,,,,,,,p,1,1.593,1.547714084,0,1,10,1,41,1,1,,,,,,,,,,,,,,
,,,,,,,,,,,left.png,,w,left,5ed9c285b8c16356b385a97f,2021-10-22_16h20.24.725,arrow_simon_punish,2021.1.2,Win32,59.88023952,,,,,,,,,,,,,,w,1,1.47,1.564543641,0,1,10,2,42,2,1,,,,,,,,,,,,,,
,,,,,,,,,,,left.png,,w,left,5ed9c285b8c16356b385a97f,2021-10-22_16h20.24.725,arrow_simon_punish,2021.1.2,Win32,59.88023952,,,,,,,,,,,,,,w,1,1.504,1.830589054,0,1,10,3,43,2,1,,,,,,,,,,,,,,
,,,,,,,,,,,left.png,,w,right,5ed9c285b8c16356b385a97f,2021-10-22_16h20.24.725,arrow_simon_punish,2021.1.2,Win32,59.88023952,,,,,,,,,,,,,,w,1,1.555,1.588286704,0,1,11,0,44,3,1,,,,,,,,,,,,,,
,,,,,,,,,,,left.png,,w,right,5ed9c285b8c16356b385a97f,2021-10-22_16h20.24.725,arrow_simon_punish,2021.1.2,Win32,59.88023952,,,,,,,,,,,,,,w,1,2.058,2.363600424,1,1,11,1,45,3,1,,,,,,,,,,,,,,
,,,,,,,,,,,right.png,,p,left,5ed9c285b8c16356b385a97f,2021-10-22_16h20.24.725,arrow_simon_punish,2021.1.2,Win32,59.88023952,,,,,,,,,,,,,,p,1,1.388,1.726150458,1,1,11,2,46,0,1,,,,,,,,,,,,,,
,,,,,,,,,,,right.png,,p,right,5ed9c285b8c16356b385a97f,2021-10-22_16h20.24.725,arrow_simon_punish,2021.1.2,Win32,59.88023952,,,,,,,,,,,,,,p,1,1.84,1.71600748,1,1,11,3,47,1,1,,,,,,,,,,,,,,
,,,,,,,,,,,left.png,,w,left,5ed9c285b8c16356b385a97f,2021-10-22_16h20.24.725,arrow_simon_punish,2021.1.2,Win32,59.88023952,,,,,,,,,,,,,,w,1,4.64,2.465983182,1,1,12,0,48,2,1,,,,,,,,,,,,,,
,,,,,,,,,,,right.png,,p,left,5ed9c285b8c16356b385a97f,2021-10-22_16h20.24.725,arrow_simon_punish,2021.1.2,Win32,59.88023952,,,,,,,,,,,,,,p,1,2.454,2.474091067,1,1,12,1,49,0,1,,,,,,,,,,,,,,
,,,,,,,,,,,right.png,,p,right,5ed9c285b8c16356b385a97f,2021-10-22_16h20.24.725,arrow_simon_punish,2021.1.2,Win32,59.88023952,,,,,,,,,,,,,,p,1,1.92,2.273909266,1,1,12,2,50,1,1,,,,,,,,,,,,,,
,,,,,,,,,,,left.png,,w,left,5ed9c285b8c16356b385a97f,2021-10-22_16h20.24.725,arrow_simon_punish,2021.1.2,Win32,59.88023952,,,,,,,,,,,,,,w,1,1.471,1.644112478,0,1,12,3,51,2,1,,,,,,,,,,,,,,
,,,,,,,,,,,right.png,,p,left,5ed9c285b8c16356b385a97f,2021-10-22_16h20.24.725,arrow_simon_punish,2021.1.2,Win32,59.88023952,,,,,,,,,,,,,,p,1,1.923,1.800094583,1,1,13,0,52,0,1,,,,,,,,,,,,,,
,,,,,,,,,,,left.png,,w,right,5ed9c285b8c16356b385a97f,2021-10-22_16h20.24.725,arrow_simon_punish,2021.1.2,Win32,59.88023952,,,,,,,,,,,,,,w,1,1.858,2.08121303,1,1,13,1,53,3,1,,,,,,,,,,,,,,
,,,,,,,,,,,left.png,,w,right,5ed9c285b8c16356b385a97f,2021-10-22_16h20.24.725,arrow_simon_punish,2021.1.2,Win32,59.88023952,,,,,,,,,,,,,,w,1,1.924,2.179746672,1,1,13,2,54,3,1,,,,,,,,,,,,,,
,,,,,,,,,,,right.png,,p,left,5ed9c285b8c16356b385a97f,2021-10-22_16h20.24.725,arrow_simon_punish,2021.1.2,Win32,59.88023952,,,,,,,,,,,,,,p,1,1.739,1.779542928,1,1,13,3,55,0,1,,,,,,,,,,,,,,
,,,,,,,,,,,left.png,,w,left,5ed9c285b8c16356b385a97f,2021-10-22_16h20.24.725,arrow_simon_punish,2021.1.2,Win32,59.88023952,,,,,,,,,,,,,,w,1,1.776,1.517116845,1,1,14,0,56,2,1,,,,,,,,,,,,,,
,,,,,,,,,,,right.png,,p,right,5ed9c285b8c16356b385a97f,2021-10-22_16h20.24.725,arrow_simon_punish,2021.1.2,Win32,59.88023952,,,,,,,,,,,,,,p,1,2.021,2.039378497,1,1,14,1,57,1,1,,,,,,,,,,,,,,
,,,,,,,,,,,right.png,,p,left,5ed9c285b8c16356b385a97f,2021-10-22_16h20.24.725,arrow_simon_punish,2021.1.2,Win32,59.88023952,,,,,,,,,,,,,,w,0,1.954,1.951914079,1,1,14,2,58,0,1,,,,,,,,,,,,,,
,,,,,,,,,,,right.png,,p,right,5ed9c285b8c16356b385a97f,2021-10-22_16h20.24.725,arrow_simon_punish,2021.1.2,Win32,59.88023952,,,,,,,,,,,,,,p,1,2.446,2.289287344,1,1,14,3,59,1,1,,,,,,,,,,,,,,
,,,,,,,,,,,,,,,5ed9c285b8c16356b385a97f,2021-10-22_16h20.24.725,arrow_simon_punish,2021.1.2,Win32,59.88023952,,,,,,,,,,,,,,,,,,,,,,,,,space,149.041,6,2,0,4,0,1,1,,,,,
,,,,,,,,,,,right.png,,p,right,5ed9c285b8c16356b385a97f,2021-10-22_16h20.24.725,arrow_simon_punish,2021.1.2,Win32,59.88023952,,,,,,,,,,,,,,p,1,2.022,1.945448765,1,5,0,0,0,1,1,,,,,,,,,,,,,,
,,,,,,,,,,,left.png,,w,right,5ed9c285b8c16356b385a97f,2021-10-22_16h20.24.725,arrow_simon_punish,2021.1.2,Win32,59.88023952,,,,,,,,,,,,,,w,1,2.155,2.346828349,1,5,0,1,1,3,1,,,,,,,,,,,,,,
,,,,,,,,,,,right.png,,p,right,5ed9c285b8c16356b385a97f,2021-10-22_16h20.24.725,arrow_simon_punish,2021.1.2,Win32,59.88023952,,,,,,,,,,,,,,p,1,1.87,2.233081285,1,5,0,2,2,1,1,,,,,,,,,,,,,,
,,,,,,,,,,,left.png,,w,right,5ed9c285b8c16356b385a97f,2021-10-22_16h20.24.725,arrow_simon_punish,2021.1.2,Win32,59.88023952,,,,,,,,,,,,,,w,1,2.205,2.474110798,1,5,0,3,3,3,1,,,,,,,,,,,,,,
,,,,,,,,,,,left.png,,w,right,5ed9c285b8c16356b385a97f,2021-10-22_16h20.24.725,arrow_simon_punish,2021.1.2,Win32,59.88023952,,,,,,,,,,,,,,w,1,1.537,1.826705115,0,5,1,0,4,3,1,,,,,,,,,,,,,,
,,,,,,,,,,,left.png,,w,left,5ed9c285b8c16356b385a97f,2021-10-22_16h20.24.725,arrow_simon_punish,2021.1.2,Win32,59.88023952,,,,,,,,,,,,,,w,1,2.17,1.601751384,1,5,1,1,5,2,1,,,,,,,,,,,,,,
,,,,,,,,,,,left.png,,w,left,5ed9c285b8c16356b385a97f,2021-10-22_16h20.24.725,arrow_simon_punish,2021.1.2,Win32,59.88023952,,,,,,,,,,,,,,w,1,1.802,1.624048224,1,5,1,2,6,2,1,,,,,,,,,,,,,,
,,,,,,,,,,,right.png,,p,right,5ed9c285b8c16356b385a97f,2021-10-22_16h20.24.725,arrow_simon_punish,2021.1.2,Win32,59.88023952,,,,,,,,,,,,,,p,1,1.87,1.7289869,1,5,1,3,7,1,1,,,,,,,,,,,,,,
,,,,,,,,,,,right.png,,p,left,5ed9c285b8c16356b385a97f,2021-10-22_16h20.24.725,arrow_simon_punish,2021.1.2,Win32,59.88023952,,,,,,,,,,,,,,p,1,1.505,1.569706651,0,5,2,0,8,0,1,,,,,,,,,,,,,,
,,,,,,,,,,,right.png,,p,right,5ed9c285b8c16356b385a97f,2021-10-22_16h20.24.725,arrow_simon_punish,2021.1.2,Win32,59.88023952,,,,,,,,,,,,,,w,0,2.044,2.187833635,1,5,2,1,9,1,1,,,,,,,,,,,,,,
,,,,,,,,,,,right.png,,p,right,5ed9c285b8c16356b385a97f,2021-10-22_16h20.24.725,arrow_simon_punish,2021.1.2,Win32,59.88023952,,,,,,,,,,,,,,p,1,2.037,2.321058249,1,5,2,2,10,1,1,,,,,,,,,,,,,,
,,,,,,,,,,,right.png,,p,left,5ed9c285b8c16356b385a97f,2021-10-22_16h20.24.725,arrow_simon_punish,2021.1.2,Win32,59.88023952,,,,,,,,,,,,,,p,1,1.444,1.575994516,0,5,2,3,11,0,1,,,,,,,,,,,,,,
,,,,,,,,,,,left.png,,w,left,5ed9c285b8c16356b385a97f,2021-10-22_16h20.24.725,arrow_simon_punish,2021.1.2,Win32,59.88023952,,,,,,,,,,,,,,w,1,1.903,2.164665064,1,5,3,0,12,2,1,,,,,,,,,,,,,,
,,,,,,,,,,,right.png,,p,right,5ed9c285b8c16356b385a97f,2021-10-22_16h20.24.725,arrow_simon_punish,2021.1.2,Win32,59.88023952,,,,,,,,,,,,,,p,1,1.904,2.089501127,1,5,3,1,13,1,1,,,,,,,,,,,,,,
,,,,,,,,,,,left.png,,w,left,5ed9c285b8c16356b385a97f,2021-10-22_16h20.24.725,arrow_simon_punish,2021.1.2,Win32,59.88023952,,,,,,,,,,,,,,w,1,2.124,2.495894639,1,5,3,2,14,2,1,,,,,,,,,,,,,,
,,,,,,,,,,,right.png,,p,left,5ed9c285b8c16356b385a97f,2021-10-22_16h20.24.725,arrow_simon_punish,2021.1.2,Win32,59.88023952,,,,,,,,,,,,,,p,1,1.876,2.016724931,1,5,3,3,15,0,1,,,,,,,,,,,,,,
,,,,,,,,,,,left.png,,w,right,5ed9c285b8c16356b385a97f,2021-10-22_16h20.24.725,arrow_simon_punish,2021.1.2,Win32,59.88023952,,,,,,,,,,,,,,w,1,1.771,2.11485925,1,5,4,0,16,3,1,,,,,,,,,,,,,,
,,,,,,,,,,,right.png,,p,left,5ed9c285b8c16356b385a97f,2021-10-22_16h20.24.725,arrow_simon_punish,2021.1.2,Win32,59.88023952,,,,,,,,,,,,,,p,1,1.954,2.184443728,1,5,4,1,17,0,1,,,,,,,,,,,,,,
,,,,,,,,,,,left.png,,w,right,5ed9c285b8c16356b385a97f,2021-10-22_16h20.24.725,arrow_simon_punish,2021.1.2,Win32,59.88023952,,,,,,,,,,,,,,w,1,1.838,2.073662643,1,5,4,2,18,3,1,,,,,,,,,,,,,,
,,,,,,,,,,,right.png,,p,left,5ed9c285b8c16356b385a97f,2021-10-22_16h20.24.725,arrow_simon_punish,2021.1.2,Win32,59.88023952,,,,,,,,,,,,,,p,1,1.354,1.589460872,1,5,4,3,19,0,1,,,,,,,,,,,,,,
,,,,,,,,,,,left.png,,w,left,5ed9c285b8c16356b385a97f,2021-10-22_16h20.24.725,arrow_simon_punish,2021.1.2,Win32,59.88023952,,,,,,,,,,,,,,w,1,1.921,1.981903179,1,5,5,0,20,2,1,,,,,,,,,,,,,,
,,,,,,,,,,,left.png,,w,left,5ed9c285b8c16356b385a97f,2021-10-22_16h20.24.725,arrow_simon_punish,2021.1.2,Win32,59.88023952,,,,,,,,,,,,,,w,1,2.356,2.170441779,1,5,5,1,21,2,1,,,,,,,,,,,,,,
,,,,,,,,,,,right.png,,p,right,5ed9c285b8c16356b385a97f,2021-10-22_16h20.24.725,arrow_simon_punish,2021.1.2,Win32,59.88023952,,,,,,,,,,,,,,p,1,1.104,1.526155941,1,5,5,2,22,1,1,,,,,,,,,,,,,,
,,,,,,,,,,,right.png,,p,right,5ed9c285b8c16356b385a97f,2021-10-22_16h20.24.725,arrow_simon_punish,2021.1.2,Win32,59.88023952,,,,,,,,,,,,,,p,1,1.904,1.906247078,1,5,5,3,23,1,1,,,,,,,,,,,,,,
,,,,,,,,,,,right.png,,p,left,5ed9c285b8c16356b385a97f,2021-10-22_16h20.24.725,arrow_simon_punish,2021.1.2,Win32,59.88023952,,,,,,,,,,,,,,p,1,1.372,1.641545056,1,5,6,0,24,0,1,,,,,,,,,,,,,,
,,,,,,,,,,,left.png,,w,right,5ed9c285b8c16356b385a97f,2021-10-22_16h20.24.725,arrow_simon_punish,2021.1.2,Win32,59.88023952,,,,,,,,,,,,,,w,1,2.04,2.155383374,1,5,6,1,25,3,1,,,,,,,,,,,,,,
,,,,,,,,,,,right.png,,p,left,5ed9c285b8c16356b385a97f,2021-10-22_16h20.24.725,arrow_simon_punish,2021.1.2,Win32,59.88023952,,,,,,,,,,,,,,p,1,1.954,2.071429458,1,5,6,2,26,0,1,,,,,,,,,,,,,,
,,,,,,,,,,,left.png,,w,right,5ed9c285b8c16356b385a97f,2021-10-22_16h20.24.725,arrow_simon_punish,2021.1.2,Win32,59.88023952,,,,,,,,,,,,,,w,1,2.304,2.258804772,1,5,6,3,27,3,1,,,,,,,,,,,,,,
,,,,,,,,,,,right.png,,p,left,5ed9c285b8c16356b385a97f,2021-10-22_16h20.24.725,arrow_simon_punish,2021.1.2,Win32,59.88023952,,,,,,,,,,,,,,p,1,1.809,1.622962323,1,5,7,0,28,0,1,,,,,,,,,,,,,,
,,,,,,,,,,,right.png,,p,right,5ed9c285b8c16356b385a97f,2021-10-22_16h20.24.725,arrow_simon_punish,2021.1.2,Win32,59.88023952,,,,,,,,,,,,,,p,1,1.754,1.576995272,1,5,7,1,29,1,1,,,,,,,,,,,,,,
,,,,,,,,,,,left.png,,w,right,5ed9c285b8c16356b385a97f,2021-10-22_16h20.24.725,arrow_simon_punish,2021.1.2,Win32,59.88023952,,,,,,,,,,,,,,w,1,1.353,1.502743151,1,5,7,2,30,3,1,,,,,,,,,,,,,,
,,,,,,,,,,,left.png,,w,left,5ed9c285b8c16356b385a97f,2021-10-22_16h20.24.725,arrow_simon_punish,2021.1.2,Win32,59.88023952,,,,,,,,,,,,,,w,1,1.971,1.717090582,1,5,7,3,31,2,1,,,,,,,,,,,,,,
,,,,,,,,,,,left.png,,w,left,5ed9c285b8c16356b385a97f,2021-10-22_16h20.24.725,arrow_simon_punish,2021.1.2,Win32,59.88023952,,,,,,,,,,,,,,w,1,2.003,1.796116183,1,5,8,0,32,2,1,,,,,,,,,,,,,,
,,,,,,,,,,,left.png,,w,right,5ed9c285b8c16356b385a97f,2021-10-22_16h20.24.725,arrow_simon_punish,2021.1.2,Win32,59.88023952,,,,,,,,,,,,,,w,1,2.605,2.447126391,1,5,8,1,33,3,1,,,,,,,,,,,,,,
,,,,,,,,,,,left.png,,w,left,5ed9c285b8c16356b385a97f,2021-10-22_16h20.24.725,arrow_simon_punish,2021.1.2,Win32,59.88023952,,,,,,,,,,,,,,w,1,1.804,1.943829046,1,5,8,2,34,2,1,,,,,,,,,,,,,,
,,,,,,,,,,,left.png,,w,right,5ed9c285b8c16356b385a97f,2021-10-22_16h20.24.725,arrow_simon_punish,2021.1.2,Win32,59.88023952,,,,,,,,,,,,,,w,1,1.223,1.544556485,1,5,8,3,35,3,1,,,,,,,,,,,,,,
,,,,,,,,,,,right.png,,p,left,5ed9c285b8c16356b385a97f,2021-10-22_16h20.24.725,arrow_simon_punish,2021.1.2,Win32,59.88023952,,,,,,,,,,,,,,p,1,1.87,1.797871693,1,5,9,0,36,0,1,,,,,,,,,,,,,,
,,,,,,,,,,,right.png,,p,right,5ed9c285b8c16356b385a97f,2021-10-22_16h20.24.725,arrow_simon_punish,2021.1.2,Win32,59.88023952,,,,,,,,,,,,,,p,1,2.138,2.11738,1,5,9,1,37,1,1,,,,,,,,,,,,,,
,,,,,,,,,,,right.png,,p,right,5ed9c285b8c16356b385a97f,2021-10-22_16h20.24.725,arrow_simon_punish,2021.1.2,Win32,59.88023952,,,,,,,,,,,,,,p,1,2.121,2.259046376,1,5,9,2,38,1,1,,,,,,,,,,,,,,
,,,,,,,,,,,left.png,,w,right,5ed9c285b8c16356b385a97f,2021-10-22_16h20.24.725,arrow_simon_punish,2021.1.2,Win32,59.88023952,,,,,,,,,,,,,,w,1,1.688,2.020214802,1,5,9,3,39,3,1,,,,,,,,,,,,,,
,,,,,,,,,,,right.png,,p,left,5ed9c285b8c16356b385a97f,2021-10-22_16h20.24.725,arrow_simon_punish,2021.1.2,Win32,59.88023952,,,,,,,,,,,,,,p,1,1.672,1.915681724,1,5,10,0,40,0,1,,,,,,,,,,,,,,
,,,,,,,,,,,right.png,,p,left,5ed9c285b8c16356b385a97f,2021-10-22_16h20.24.725,arrow_simon_punish,2021.1.2,Win32,59.88023952,,,,,,,,,,,,,,p,1,1.96,2.296652168,1,5,10,1,41,0,1,,,,,,,,,,,,,,
,,,,,,,,,,,right.png,,p,left,5ed9c285b8c16356b385a97f,2021-10-22_16h20.24.725,arrow_simon_punish,2021.1.2,Win32,59.88023952,,,,,,,,,,,,,,p,1,1.32,1.757762834,1,5,10,2,42,0,1,,,,,,,,,,,,,,
,,,,,,,,,,,left.png,,w,left,5ed9c285b8c16356b385a97f,2021-10-22_16h20.24.725,arrow_simon_punish,2021.1.2,Win32,59.88023952,,,,,,,,,,,,,,w,1,1.988,2.132675564,1,5,10,3,43,2,1,,,,,,,,,,,,,,
,,,,,,,,,,,right.png,,p,right,5ed9c285b8c16356b385a97f,2021-10-22_16h20.24.725,arrow_simon_punish,2021.1.2,Win32,59.88023952,,,,,,,,,,,,,,p,1,1.808,2.053099848,1,5,11,0,44,1,1,,,,,,,,,,,,,,
,,,,,,,,,,,right.png,,p,right,5ed9c285b8c16356b385a97f,2021-10-22_16h20.24.725,arrow_simon_punish,2021.1.2,Win32,59.88023952,,,,,,,,,,,,,,p,1,1.921,2.313034407,1,5,11,1,45,1,1,,,,,,,,,,,,,,
,,,,,,,,,,,left.png,,w,right,5ed9c285b8c16356b385a97f,2021-10-22_16h20.24.725,arrow_simon_punish,2021.1.2,Win32,59.88023952,,,,,,,,,,,,,,w,1,1.437,1.706010946,0,5,11,2,46,3,1,,,,,,,,,,,,,,
,,,,,,,,,,,right.png,,p,left,5ed9c285b8c16356b385a97f,2021-10-22_16h20.24.725,arrow_simon_punish,2021.1.2,Win32,59.88023952,,,,,,,,,,,,,,p,1,1.687,1.587413905,1,5,11,3,47,0,1,,,,,,,,,,,,,,
,,,,,,,,,,,right.png,,p,left,5ed9c285b8c16356b385a97f,2021-10-22_16h20.24.725,arrow_simon_punish,2021.1.2,Win32,59.88023952,,,,,,,,,,,,,,p,1,2.007,1.694226285,1,5,12,0,48,0,1,,,,,,,,,,,,,,
,,,,,,,,,,,left.png,,w,left,5ed9c285b8c16356b385a97f,2021-10-22_16h20.24.725,arrow_simon_punish,2021.1.2,Win32,59.88023952,,,,,,,,,,,,,,w,1,1.903,2.076079783,1,5,12,1,49,2,1,,,,,,,,,,,,,,
,,,,,,,,,,,left.png,,w,right,5ed9c285b8c16356b385a97f,2021-10-22_16h20.24.725,arrow_simon_punish,2021.1.2,Win32,59.88023952,,,,,,,,,,,,,,w,1,1.987,2.262086532,1,5,12,2,50,3,1,,,,,,,,,,,,,,
,,,,,,,,,,,left.png,,w,left,5ed9c285b8c16356b385a97f,2021-10-22_16h20.24.725,arrow_simon_punish,2021.1.2,Win32,59.88023952,,,,,,,,,,,,,,w,1,2.206,2.441991724,1,5,12,3,51,2,1,,,,,,,,,,,,,,
,,,,,,,,,,,left.png,,w,left,5ed9c285b8c16356b385a97f,2021-10-22_16h20.24.725,arrow_simon_punish,2021.1.2,Win32,59.88023952,,,,,,,,,,,,,,w,1,1.792,1.904430753,1,5,13,0,52,2,1,,,,,,,,,,,,,,
,,,,,,,,,,,left.png,,w,right,5ed9c285b8c16356b385a97f,2021-10-22_16h20.24.725,arrow_simon_punish,2021.1.2,Win32,59.88023952,,,,,,,,,,,,,,w,1,2.205,2.445666651,1,5,13,1,53,3,1,,,,,,,,,,,,,,
,,,,,,,,,,,right.png,,p,right,5ed9c285b8c16356b385a97f,2021-10-22_16h20.24.725,arrow_simon_punish,2021.1.2,Win32,59.88023952,,,,,,,,,,,,,,p,1,1.771,1.992517173,1,5,13,2,54,1,1,,,,,,,,,,,,,,
,,,,,,,,,,,left.png,,w,left,5ed9c285b8c16356b385a97f,2021-10-22_16h20.24.725,arrow_simon_punish,2021.1.2,Win32,59.88023952,,,,,,,,,,,,,,w,1,1.387,1.748205752,1,5,13,3,55,2,1,,,,,,,,,,,,,,
,,,,,,,,,,,left.png,,w,right,5ed9c285b8c16356b385a97f,2021-10-22_16h20.24.725,arrow_simon_punish,2021.1.2,Win32,59.88023952,,,,,,,,,,,,,,w,1,2.12,2.254066909,1,5,14,0,56,3,1,,,,,,,,,,,,,,
,,,,,,,,,,,right.png,,p,left,5ed9c285b8c16356b385a97f,2021-10-22_16h20.24.725,arrow_simon_punish,2021.1.2,Win32,59.88023952,,,,,,,,,,,,,,p,1,2.105,2.445644126,1,5,14,1,57,0,1,,,,,,,,,,,,,,
,,,,,,,,,,,left.png,,w,left,5ed9c285b8c16356b385a97f,2021-10-22_16h20.24.725,arrow_simon_punish,2021.1.2,Win32,59.88023952,,,,,,,,,,,,,,w,1,1.96,1.83083104,1,5,14,2,58,2,1,,,,,,,,,,,,,,
,,,,,,,,,,,right.png,,p,right,5ed9c285b8c16356b385a97f,2021-10-22_16h20.24.725,arrow_simon_punish,2021.1.2,Win32,59.88023952,,,,,,,,,,,,,,p,1,2.189,2.472222016,1,5,14,3,59,1,1,,,,,,,,,,,,,,
,,,,,,,,,,,,,,,5ed9c285b8c16356b385a97f,2021-10-22_16h20.24.725,arrow_simon_punish,2021.1.2,Win32,59.88023952,,,,,,,,,,,,,,,,,,,,,,,,,space,46.015,7,2,1,5,1,1,5,,,,,
,,,,,,,,,,,left.png,,w,right,5ed9c285b8c16356b385a97f,2021-10-22_16h20.24.725,arrow_simon_punish,2021.1.2,Win32,59.88023952,,,,,,,,,,,,,,w,1,1.619,1.849856896,1,1,0,0,0,3,1,,,,,,,,,,,,,,
,,,,,,,,,,,left.png,,w,left,5ed9c285b8c16356b385a97f,2021-10-22_16h20.24.725,arrow_simon_punish,2021.1.2,Win32,59.88023952,,,,,,,,,,,,,,w,1,1.252,1.63230269,1,1,0,1,1,2,1,,,,,,,,,,,,,,
,,,,,,,,,,,left.png,,w,left,5ed9c285b8c16356b385a97f,2021-10-22_16h20.24.725,arrow_simon_punish,2021.1.2,Win32,59.88023952,,,,,,,,,,,,,,w,1,1.957,2.252610784,1,1,0,2,2,2,1,,,,,,,,,,,,,,
,,,,,,,,,,,right.png,,p,left,5ed9c285b8c16356b385a97f,2021-10-22_16h20.24.725,arrow_simon_punish,2021.1.2,Win32,59.88023952,,,,,,,,,,,,,,p,1,2.271,2.453790724,1,1,0,3,3,0,1,,,,,,,,,,,,,,
,,,,,,,,,,,right.png,,p,right,5ed9c285b8c16356b385a97f,2021-10-22_16h20.24.725,arrow_simon_punish,2021.1.2,Win32,59.88023952,,,,,,,,,,,,,,p,1,1.704,2.024916413,1,1,1,0,4,1,1,,,,,,,,,,,,,,
,,,,,,,,,,,left.png,,w,left,5ed9c285b8c16356b385a97f,2021-10-22_16h20.24.725,arrow_simon_punish,2021.1.2,Win32,59.88023952,,,,,,,,,,,,,,w,1,1.978,2.390881105,1,1,1,1,5,2,1,,,,,,,,,,,,,,
,,,,,,,,,,,left.png,,w,left,5ed9c285b8c16356b385a97f,2021-10-22_16h20.24.725,arrow_simon_punish,2021.1.2,Win32,59.88023952,,,,,,,,,,,,,,w,1,1.903,2.25308463,1,1,1,2,6,2,1,,,,,,,,,,,,,,
,,,,,,,,,,,right.png,,p,right,5ed9c285b8c16356b385a97f,2021-10-22_16h20.24.725,arrow_simon_punish,2021.1.2,Win32,59.88023952,,,,,,,,,,,,,,p,1,1.553,2.090268278,0,1,1,3,7,1,1,,,,,,,,,,,,,,
,,,,,,,,,,,left.png,,w,left,5ed9c285b8c16356b385a97f,2021-10-22_16h20.24.725,arrow_simon_punish,2021.1.2,Win32,59.88023952,,,,,,,,,,,,,,w,1,1.789,2.366919888,1,1,2,0,8,2,1,,,,,,,,,,,,,,
,,,,,,,,,,,left.png,,w,right,5ed9c285b8c16356b385a97f,2021-10-22_16h20.24.725,arrow_simon_punish,2021.1.2,Win32,59.88023952,,,,,,,,,,,,,,p,0,1.856,2.328724277,1,1,2,1,9,3,1,,,,,,,,,,,,,,
,,,,,,,,,,,right.png,,p,right,5ed9c285b8c16356b385a97f,2021-10-22_16h20.24.725,arrow_simon_punish,2021.1.2,Win32,59.88023952,,,,,,,,,,,,,,p,1,2.121,2.274608465,1,1,2,2,10,1,1,,,,,,,,,,,,,,
,,,,,,,,,,,right.png,,p,right,5ed9c285b8c16356b385a97f,2021-10-22_16h20.24.725,arrow_simon_punish,2021.1.2,Win32,59.88023952,,,,,,,,,,,,,,p,1,1.824,1.773151289,1,1,2,3,11,1,1,,,,,,,,,,,,,,
,,,,,,,,,,,right.png,,p,left,5ed9c285b8c16356b385a97f,2021-10-22_16h20.24.725,arrow_simon_punish,2021.1.2,Win32,59.88023952,,,,,,,,,,,,,,p,1,1.674,1.855950886,1,1,3,0,12,0,1,,,,,,,,,,,,,,
,,,,,,,,,,,right.png,,p,left,5ed9c285b8c16356b385a97f,2021-10-22_16h20.24.725,arrow_simon_punish,2021.1.2,Win32,59.88023952,,,,,,,,,,,,,,p,1,1.81,1.969540006,1,1,3,1,13,0,1,,,,,,,,,,,,,,
,,,,,,,,,,,left.png,,w,right,5ed9c285b8c16356b385a97f,2021-10-22_16h20.24.725,arrow_simon_punish,2021.1.2,Win32,59.88023952,,,,,,,,,,,,,,w,1,1.837,1.978856154,1,1,3,2,14,3,1,,,,,,,,,,,,,,
,,,,,,,,,,,left.png,,w,right,5ed9c285b8c16356b385a97f,2021-10-22_16h20.24.725,arrow_simon_punish,2021.1.2,Win32,59.88023952,,,,,,,,,,,,,,w,1,1.153,1.58152889,1,1,3,3,15,3,1,,,,,,,,,,,,,,
,,,,,,,,,,,right.png,,p,left,5ed9c285b8c16356b385a97f,2021-10-22_16h20.24.725,arrow_simon_punish,2021.1.2,Win32,59.88023952,,,,,,,,,,,,,,p,1,1.838,1.745141363,1,1,4,0,16,0,1,,,,,,,,,,,,,,
,,,,,,,,,,,right.png,,p,right,5ed9c285b8c16356b385a97f,2021-10-22_16h20.24.725,arrow_simon_punish,2021.1.2,Win32,59.88023952,,,,,,,,,,,,,,p,1,2.02,2.33374504,1,1,4,1,17,1,1,,,,,,,,,,,,,,
,,,,,,,,,,,right.png,,p,right,5ed9c285b8c16356b385a97f,2021-10-22_16h20.24.725,arrow_simon_punish,2021.1.2,Win32,59.88023952,,,,,,,,,,,,,,p,1,1.892,2.041813184,1,1,4,2,18,1,1,,,,,,,,,,,,,,
,,,,,,,,,,,left.png,,w,right,5ed9c285b8c16356b385a97f,2021-10-22_16h20.24.725,arrow_simon_punish,2021.1.2,Win32,59.88023952,,,,,,,,,,,,,,w,1,1.788,1.94364749,1,1,4,3,19,3,1,,,,,,,,,,,,,,
,,,,,,,,,,,right.png,,p,left,5ed9c285b8c16356b385a97f,2021-10-22_16h20.24.725,arrow_simon_punish,2021.1.2,Win32,59.88023952,,,,,,,,,,,,,,p,1,1.271,1.642509605,1,1,5,0,20,0,1,,,,,,,,,,,,,,
,,,,,,,,,,,right.png,,p,left,5ed9c285b8c16356b385a97f,2021-10-22_16h20.24.725,arrow_simon_punish,2021.1.2,Win32,59.88023952,,,,,,,,,,,,,,p,1,1.824,1.789332591,1,1,5,1,21,0,1,,,,,,,,,,,,,,
,,,,,,,,,,,right.png,,p,right,5ed9c285b8c16356b385a97f,2021-10-22_16h20.24.725,arrow_simon_punish,2021.1.2,Win32,59.88023952,,,,,,,,,,,,,,p,1,2.369,2.045246392,1,1,5,2,22,1,1,,,,,,,,,,,,,,
,,,,,,,,,,,left.png,,w,right,5ed9c285b8c16356b385a97f,2021-10-22_16h20.24.725,arrow_simon_punish,2021.1.2,Win32,59.88023952,,,,,,,,,,,,,,w,1,1.87,1.923492167,1,1,5,3,23,3,1,,,,,,,,,,,,,,
,,,,,,,,,,,right.png,,p,right,5ed9c285b8c16356b385a97f,2021-10-22_16h20.24.725,arrow_simon_punish,2021.1.2,Win32,59.88023952,,,,,,,,,,,,,,p,1,1.705,1.69066234,1,1,6,0,24,1,1,,,,,,,,,,,,,,
,,,,,,,,,,,left.png,,w,right,5ed9c285b8c16356b385a97f,2021-10-22_16h20.24.725,arrow_simon_punish,2021.1.2,Win32,59.88023952,,,,,,,,,,,,,,w,1,1.225,1.683522291,1,1,6,1,25,3,1,,,,,,,,,,,,,,
,,,,,,,,,,,left.png,,w,left,5ed9c285b8c16356b385a97f,2021-10-22_16h20.24.725,arrow_simon_punish,2021.1.2,Win32,59.88023952,,,,,,,,,,,,,,w,1,2.675,2.37834932,1,1,6,2,26,2,1,,,,,,,,,,,,,,
,,,,,,,,,,,left.png,,w,right,5ed9c285b8c16356b385a97f,2021-10-22_16h20.24.725,arrow_simon_punish,2021.1.2,Win32,59.88023952,,,,,,,,,,,,,,w,1,2.461,2.307672624,1,1,6,3,27,3,1,,,,,,,,,,,,,,
,,,,,,,,,,,right.png,,p,left,5ed9c285b8c16356b385a97f,2021-10-22_16h20.24.725,arrow_simon_punish,2021.1.2,Win32,59.88023952,,,,,,,,,,,,,,p,1,1.989,2.015846554,1,1,7,0,28,0,1,,,,,,,,,,,,,,
,,,,,,,,,,,right.png,,p,left,5ed9c285b8c16356b385a97f,2021-10-22_16h20.24.725,arrow_simon_punish,2021.1.2,Win32,59.88023952,,,,,,,,,,,,,,p,1,2.02,2.405671372,1,1,7,1,29,0,1,,,,,,,,,,,,,,
,,,,,,,,,,,right.png,,p,right,5ed9c285b8c16356b385a97f,2021-10-22_16h20.24.725,arrow_simon_punish,2021.1.2,Win32,59.88023952,,,,,,,,,,,,,,p,1,2.14,2.42833011,1,1,7,2,30,1,1,,,,,,,,,,,,,,
,,,,,,,,,,,left.png,,w,left,5ed9c285b8c16356b385a97f,2021-10-22_16h20.24.725,arrow_simon_punish,2021.1.2,Win32,59.88023952,,,,,,,,,,,,,,w,1,1.52,1.756857569,0,1,7,3,31,2,1,,,,,,,,,,,,,,
,,,,,,,,,,,left.png,,w,right,5ed9c285b8c16356b385a97f,2021-10-22_16h20.24.725,arrow_simon_punish,2021.1.2,Win32,59.88023952,,,,,,,,,,,,,,w,1,1.821,1.527970812,1,1,8,0,32,3,1,,,,,,,,,,,,,,
,,,,,,,,,,,right.png,,p,right,5ed9c285b8c16356b385a97f,2021-10-22_16h20.24.725,arrow_simon_punish,2021.1.2,Win32,59.88023952,,,,,,,,,,,,,,p,1,1.871,1.556006782,1,1,8,1,33,1,1,,,,,,,,,,,,,,
,,,,,,,,,,,left.png,,w,left,5ed9c285b8c16356b385a97f,2021-10-22_16h20.24.725,arrow_simon_punish,2021.1.2,Win32,59.88023952,,,,,,,,,,,,,,w,1,2.055,1.543270031,1,1,8,2,34,2,1,,,,,,,,,,,,,,
,,,,,,,,,,,left.png,,w,left,5ed9c285b8c16356b385a97f,2021-10-22_16h20.24.725,arrow_simon_punish,2021.1.2,Win32,59.88023952,,,,,,,,,,,,,,w,1,1.837,1.985019932,1,1,8,3,35,2,1,,,,,,,,,,,,,,
,,,,,,,,,,,left.png,,w,right,5ed9c285b8c16356b385a97f,2021-10-22_16h20.24.725,arrow_simon_punish,2021.1.2,Win32,59.88023952,,,,,,,,,,,,,,w,1,1.839,2.062451899,1,1,9,0,36,3,1,,,,,,,,,,,,,,
,,,,,,,,,,,right.png,,p,left,5ed9c285b8c16356b385a97f,2021-10-22_16h20.24.725,arrow_simon_punish,2021.1.2,Win32,59.88023952,,,,,,,,,,,,,,p,1,1.722,1.668810133,1,1,9,1,37,0,1,,,,,,,,,,,,,,
,,,,,,,,,,,right.png,,p,right,5ed9c285b8c16356b385a97f,2021-10-22_16h20.24.725,arrow_simon_punish,2021.1.2,Win32,59.88023952,,,,,,,,,,,,,,p,1,1.624,2.006643009,1,1,9,2,38,1,1,,,,,,,,,,,,,,
,,,,,,,,,,,right.png,,p,left,5ed9c285b8c16356b385a97f,2021-10-22_16h20.24.725,arrow_simon_punish,2021.1.2,Win32,59.88023952,,,,,,,,,,,,,,p,1,1.92,2.082069654,1,1,9,3,39,0,1,,,,,,,,,,,,,,
,,,,,,,,,,,left.png,,w,left,5ed9c285b8c16356b385a97f,2021-10-22_16h20.24.725,arrow_simon_punish,2021.1.2,Win32,59.88023952,,,,,,,,,,,,,,w,1,1.837,2.241087196,1,1,10,0,40,2,1,,,,,,,,,,,,,,
,,,,,,,,,,,left.png,,w,right,5ed9c285b8c16356b385a97f,2021-10-22_16h20.24.725,arrow_simon_punish,2021.1.2,Win32,59.88023952,,,,,,,,,,,,,,w,1,1.74,1.837915865,1,1,10,1,41,3,1,,,,,,,,,,,,,,
,,,,,,,,,,,left.png,,w,left,5ed9c285b8c16356b385a97f,2021-10-22_16h20.24.725,arrow_simon_punish,2021.1.2,Win32,59.88023952,,,,,,,,,,,,,,w,1,1.571,1.86277714,0,1,10,2,42,2,1,,,,,,,,,,,,,,
,,,,,,,,,,,right.png,,p,right,5ed9c285b8c16356b385a97f,2021-10-22_16h20.24.725,arrow_simon_punish,2021.1.2,Win32,59.88023952,,,,,,,,,,,,,,p,1,2.073,2.353597352,1,1,10,3,43,1,1,,,,,,,,,,,,,,
,,,,,,,,,,,left.png,,w,right,5ed9c285b8c16356b385a97f,2021-10-22_16h20.24.725,arrow_simon_punish,2021.1.2,Win32,59.88023952,,,,,,,,,,,,,,w,1,2.024,2.256254566,1,1,11,0,44,3,1,,,,,,,,,,,,,,
,,,,,,,,,,,left.png,,w,left,5ed9c285b8c16356b385a97f,2021-10-22_16h20.24.725,arrow_simon_punish,2021.1.2,Win32,59.88023952,,,,,,,,,,,,,,w,1,1.804,1.528763869,1,1,11,1,45,2,1,,,,,,,,,,,,,,
,,,,,,,,,,,left.png,,w,left,5ed9c285b8c16356b385a97f,2021-10-22_16h20.24.725,arrow_simon_punish,2021.1.2,Win32,59.88023952,,,,,,,,,,,,,,w,1,1.774,2.032644874,1,1,11,2,46,2,1,,,,,,,,,,,,,,
,,,,,,,,,,,left.png,,w,left,5ed9c285b8c16356b385a97f,2021-10-22_16h20.24.725,arrow_simon_punish,2021.1.2,Win32,59.88023952,,,,,,,,,,,,,,p,0,2.54,2.442812069,1,1,11,3,47,2,1,,,,,,,,,,,,,,
,,,,,,,,,,,right.png,,p,right,5ed9c285b8c16356b385a97f,2021-10-22_16h20.24.725,arrow_simon_punish,2021.1.2,Win32,59.88023952,,,,,,,,,,,,,,p,1,2.04,2.370992682,1,1,12,0,48,1,1,,,,,,,,,,,,,,
,,,,,,,,,,,right.png,,p,left,5ed9c285b8c16356b385a97f,2021-10-22_16h20.24.725,arrow_simon_punish,2021.1.2,Win32,59.88023952,,,,,,,,,,,,,,p,1,2.087,1.987578343,1,1,12,1,49,0,1,,,,,,,,,,,,,,
,,,,,,,,,,,right.png,,p,left,5ed9c285b8c16356b385a97f,2021-10-22_16h20.24.725,arrow_simon_punish,2021.1.2,Win32,59.88023952,,,,,,,,,,,,,,p,1,1.307,1.607573861,1,1,12,2,50,0,1,,,,,,,,,,,,,,
,,,,,,,,,,,right.png,,p,left,5ed9c285b8c16356b385a97f,2021-10-22_16h20.24.725,arrow_simon_punish,2021.1.2,Win32,59.88023952,,,,,,,,,,,,,,p,1,1.794,1.741075675,1,1,12,3,51,0,1,,,,,,,,,,,,,,
,,,,,,,,,,,right.png,,p,left,5ed9c285b8c16356b385a97f,2021-10-22_16h20.24.725,arrow_simon_punish,2021.1.2,Win32,59.88023952,,,,,,,,,,,,,,p,1,1.855,1.807979468,1,1,13,0,52,0,1,,,,,,,,,,,,,,
,,,,,,,,,,,left.png,,w,right,5ed9c285b8c16356b385a97f,2021-10-22_16h20.24.725,arrow_simon_punish,2021.1.2,Win32,59.88023952,,,,,,,,,,,,,,w,1,1.403,1.777501116,0,1,13,1,53,3,1,,,,,,,,,,,,,,
,,,,,,,,,,,right.png,,p,right,5ed9c285b8c16356b385a97f,2021-10-22_16h20.24.725,arrow_simon_punish,2021.1.2,Win32,59.88023952,,,,,,,,,,,,,,p,1,1.904,1.612580813,1,1,13,2,54,1,1,,,,,,,,,,,,,,
,,,,,,,,,,,left.png,,w,right,5ed9c285b8c16356b385a97f,2021-10-22_16h20.24.725,arrow_simon_punish,2021.1.2,Win32,59.88023952,,,,,,,,,,,,,,w,1,1.727,1.821627946,1,1,13,3,55,3,1,,,,,,,,,,,,,,
,,,,,,,,,,,left.png,,w,right,5ed9c285b8c16356b385a97f,2021-10-22_16h20.24.725,arrow_simon_punish,2021.1.2,Win32,59.88023952,,,,,,,,,,,,,,w,1,1.626,1.759442942,1,1,14,0,56,3,1,,,,,,,,,,,,,,
,,,,,,,,,,,left.png,,w,left,5ed9c285b8c16356b385a97f,2021-10-22_16h20.24.725,arrow_simon_punish,2021.1.2,Win32,59.88023952,,,,,,,,,,,,,,w,1,2.155,1.687689369,1,1,14,1,57,2,1,,,,,,,,,,,,,,
,,,,,,,,,,,right.png,,p,right,5ed9c285b8c16356b385a97f,2021-10-22_16h20.24.725,arrow_simon_punish,2021.1.2,Win32,59.88023952,,,,,,,,,,,,,,p,1,1.736,1.796940175,1,1,14,2,58,1,1,,,,,,,,,,,,,,
,,,,,,,,,,,right.png,,p,left,5ed9c285b8c16356b385a97f,2021-10-22_16h20.24.725,arrow_simon_punish,2021.1.2,Win32,59.88023952,,,,,,,,,,,,,,p,1,1.776,2.063274497,1,1,14,3,59,0,1,,,,,,,,,,,,,,
,,,,,,,,,,,,,,,5ed9c285b8c16356b385a97f,2021-10-22_16h20.24.725,arrow_simon_punish,2021.1.2,Win32,59.88023952,,,,,,,,,,,,,,,,,,,,,,,,,space,45.169,8,3,0,6,0,1,1,,,,,
,,,,,,,,,,,left.png,,w,right,5ed9c285b8c16356b385a97f,2021-10-22_16h20.24.725,arrow_simon_punish,2021.1.2,Win32,59.88023952,,,,,,,,,,,,,,w,1,2.22,1.663684797,1,5,0,0,0,3,1,,,,,,,,,,,,,,
,,,,,,,,,,,left.png,,w,left,5ed9c285b8c16356b385a97f,2021-10-22_16h20.24.725,arrow_simon_punish,2021.1.2,Win32,59.88023952,,,,,,,,,,,,,,w,1,2.792,2.419663158,1,5,0,1,1,2,1,,,,,,,,,,,,,,
,,,,,,,,,,,left.png,,w,right,5ed9c285b8c16356b385a97f,2021-10-22_16h20.24.725,arrow_simon_punish,2021.1.2,Win32,59.88023952,,,,,,,,,,,,,,w,1,4.49,1.668056402,1,5,0,2,2,3,1,,,,,,,,,,,,,,
,,,,,,,,,,,right.png,,p,right,5ed9c285b8c16356b385a97f,2021-10-22_16h20.24.725,arrow_simon_punish,2021.1.2,Win32,59.88023952,,,,,,,,,,,,,,p,1,1.87,2.088884487,1,5,0,3,3,1,1,,,,,,,,,,,,,,
,,,,,,,,,,,right.png,,p,right,5ed9c285b8c16356b385a97f,2021-10-22_16h20.24.725,arrow_simon_punish,2021.1.2,Win32,59.88023952,,,,,,,,,,,,,,p,1,1.778,1.751608025,1,5,1,0,4,1,1,,,,,,,,,,,,,,
,,,,,,,,,,,right.png,,p,right,5ed9c285b8c16356b385a97f,2021-10-22_16h20.24.725,arrow_simon_punish,2021.1.2,Win32,59.88023952,,,,,,,,,,,,,,p,1,1.336,1.537544557,1,5,1,1,5,1,1,,,,,,,,,,,,,,
,,,,,,,,,,,left.png,,w,right,5ed9c285b8c16356b385a97f,2021-10-22_16h20.24.725,arrow_simon_punish,2021.1.2,Win32,59.88023952,,,,,,,,,,,,,,w,1,1.99,2.141279384,1,5,1,2,6,3,1,,,,,,,,,,,,,,
,,,,,,,,,,,left.png,,w,right,5ed9c285b8c16356b385a97f,2021-10-22_16h20.24.725,arrow_simon_punish,2021.1.2,Win32,59.88023952,,,,,,,,,,,,,,w,1,1.928,2.190506735,1,5,1,3,7,3,1,,,,,,,,,,,,,,
,,,,,,,,,,,right.png,,p,right,5ed9c285b8c16356b385a97f,2021-10-22_16h20.24.725,arrow_simon_punish,2021.1.2,Win32,59.88023952,,,,,,,,,,,,,,p,1,1.838,1.817745066,1,5,2,0,8,1,1,,,,,,,,,,,,,,
,,,,,,,,,,,right.png,,p,left,5ed9c285b8c16356b385a97f,2021-10-22_16h20.24.725,arrow_simon_punish,2021.1.2,Win32,59.88023952,,,,,,,,,,,,,,p,1,2.178,2.228696173,1,5,2,1,9,0,1,,,,,,,,,,,,,,
,,,,,,,,,,,left.png,,w,right,5ed9c285b8c16356b385a97f,2021-10-22_16h20.24.725,arrow_simon_punish,2021.1.2,Win32,59.88023952,,,,,,,,,,,,,,w,1,2.038,2.237618415,1,5,2,2,10,3,1,,,,,,,,,,,,,,
