instruct_resp_simon.keys,instruct_resp_simon.corr,instruct_resp_simon.rt,trial_resp_simon.keys,trial_resp_simon.corr,trial_resp_simon.rt,trials_train_simon.thisRepN,trials_train_simon.thisTrialN,trials_train_simon.thisN,trials_train_simon.thisIndex,trials_train_simon.ran,target_file,target_pos,target_resp,target_side,participant,date,expName,psychopyVersion,OS,frameRate,instruct_resp_timing.keys,instruct_resp_timing.corr,instruct_resp_timing.rt,trial_resp_timing.keys,trial_resp_timing.rt,trials_train_timing.thisRepN,trials_train_timing.thisTrialN,trials_train_timing.thisN,trials_train_timing.thisIndex,trials_train_timing.ran,instruct_resp.keys,instruct_resp.corr,instruct_resp.rt,trial_resp.keys,trial_resp.corr,trial_resp.rt,target_onset,err,pun,trials.thisRepN,trials.thisTrialN,trials.thisN,trials.thisIndex,trials.ran,block_note_resp.keys,block_note_resp.rt,block_num,blocks.thisRepN,blocks.thisTrialN,blocks.thisN,blocks.thisIndex,blocks.ran,punish,complete_resp.keys,complete_resp.rt,raffle_trial,raffle_err,raffle_rew
space,0,40.3751,p,1,0.793,0,0,0,1,1,right.png,,p,right,5faf66be8dca1e20989ea7f0,2021-10-27_11h28.05.816,arrow_simon_punish,2021.1.2,Win32,60.03121623,,,,,,,,,,,,,,,,,,,,,,,,,,,,,,,,,,,,,,
,,,w,0,1.2669,0,1,1,0,1,right.png,,p,left,5faf66be8dca1e20989ea7f0,2021-10-27_11h28.05.816,arrow_simon_punish,2021.1.2,Win32,60.03121623,,,,,,,,,,,,,,,,,,,,,,,,,,,,,,,,,,,,,,
,,,w,1,1.5252,0,2,2,2,1,left.png,,w,left,5faf66be8dca1e20989ea7f0,2021-10-27_11h28.05.816,arrow_simon_punish,2021.1.2,Win32,60.03121623,,,,,,,,,,,,,,,,,,,,,,,,,,,,,,,,,,,,,,
,,,w,1,1.8168,0,3,3,3,1,left.png,,w,right,5faf66be8dca1e20989ea7f0,2021-10-27_11h28.05.816,arrow_simon_punish,2021.1.2,Win32,60.03121623,,,,,,,,,,,,,,,,,,,,,,,,,,,,,,,,,,,,,,
,,,w,1,1.4613,1,0,4,2,1,left.png,,w,left,5faf66be8dca1e20989ea7f0,2021-10-27_11h28.05.816,arrow_simon_punish,2021.1.2,Win32,60.03121623,,,,,,,,,,,,,,,,,,,,,,,,,,,,,,,,,,,,,,
,,,p,1,0.5001,1,1,5,1,1,right.png,,p,right,5faf66be8dca1e20989ea7f0,2021-10-27_11h28.05.816,arrow_simon_punish,2021.1.2,Win32,60.03121623,,,,,,,,,,,,,,,,,,,,,,,,,,,,,,,,,,,,,,
,,,w,1,1.2605,1,2,6,3,1,left.png,,w,right,5faf66be8dca1e20989ea7f0,2021-10-27_11h28.05.816,arrow_simon_punish,2021.1.2,Win32,60.03121623,,,,,,,,,,,,,,,,,,,,,,,,,,,,,,,,,,,,,,
,,,p,1,1.3852,1,3,7,0,1,right.png,,p,left,5faf66be8dca1e20989ea7f0,2021-10-27_11h28.05.816,arrow_simon_punish,2021.1.2,Win32,60.03121623,,,,,,,,,,,,,,,,,,,,,,,,,,,,,,,,,,,,,,
,,,p,1,1.1204,2,0,8,0,1,right.png,,p,left,5faf66be8dca1e20989ea7f0,2021-10-27_11h28.05.816,arrow_simon_punish,2021.1.2,Win32,60.03121623,,,,,,,,,,,,,,,,,,,,,,,,,,,,,,,,,,,,,,
,,,w,1,1.0424,2,1,9,2,1,left.png,,w,left,5faf66be8dca1e20989ea7f0,2021-10-27_11h28.05.816,arrow_simon_punish,2021.1.2,Win32,60.03121623,,,,,,,,,,,,,,,,,,,,,,,,,,,,,,,,,,,,,,
,,,w,1,0.8716,2,2,10,3,1,left.png,,w,right,5faf66be8dca1e20989ea7f0,2021-10-27_11h28.05.816,arrow_simon_punish,2021.1.2,Win32,60.03121623,,,,,,,,,,,,,,,,,,,,,,,,,,,,,,,,,,,,,,
,,,p,1,1.6198,2,3,11,1,1,right.png,,p,right,5faf66be8dca1e20989ea7f0,2021-10-27_11h28.05.816,arrow_simon_punish,2021.1.2,Win32,60.03121623,,,,,,,,,,,,,,,,,,,,,,,,,,,,,,,,,,,,,,
,,,p,1,1.0502,3,0,12,0,1,right.png,,p,left,5faf66be8dca1e20989ea7f0,2021-10-27_11h28.05.816,arrow_simon_punish,2021.1.2,Win32,60.03121623,,,,,,,,,,,,,,,,,,,,,,,,,,,,,,,,,,,,,,
,,,w,1,1.4001,3,1,13,2,1,left.png,,w,left,5faf66be8dca1e20989ea7f0,2021-10-27_11h28.05.816,arrow_simon_punish,2021.1.2,Win32,60.03121623,,,,,,,,,,,,,,,,,,,,,,,,,,,,,,,,,,,,,,
,,,p,1,1.0452,3,2,14,1,1,right.png,,p,right,5faf66be8dca1e20989ea7f0,2021-10-27_11h28.05.816,arrow_simon_punish,2021.1.2,Win32,60.03121623,,,,,,,,,,,,,,,,,,,,,,,,,,,,,,,,,,,,,,
,,,w,1,0.7784,3,3,15,3,1,left.png,,w,right,5faf66be8dca1e20989ea7f0,2021-10-27_11h28.05.816,arrow_simon_punish,2021.1.2,Win32,60.03121623,,,,,,,,,,,,,,,,,,,,,,,,,,,,,,,,,,,,,,
,,,w,1,1.1704,4,0,16,2,1,left.png,,w,left,5faf66be8dca1e20989ea7f0,2021-10-27_11h28.05.816,arrow_simon_punish,2021.1.2,Win32,60.03121623,,,,,,,,,,,,,,,,,,,,,,,,,,,,,,,,,,,,,,
,,,p,0,1.5385,4,1,17,3,1,left.png,,w,right,5faf66be8dca1e20989ea7f0,2021-10-27_11h28.05.816,arrow_simon_punish,2021.1.2,Win32,60.03121623,,,,,,,,,,,,,,,,,,,,,,,,,,,,,,,,,,,,,,
,,,p,1,1.3797,4,2,18,1,1,right.png,,p,right,5faf66be8dca1e20989ea7f0,2021-10-27_11h28.05.816,arrow_simon_punish,2021.1.2,Win32,60.03121623,,,,,,,,,,,,,,,,,,,,,,,,,,,,,,,,,,,,,,
,,,w,0,1.7335,4,3,19,0,1,right.png,,p,left,5faf66be8dca1e20989ea7f0,2021-10-27_11h28.05.816,arrow_simon_punish,2021.1.2,Win32,60.03121623,,,,,,,,,,,,,,,,,,,,,,,,,,,,,,,,,,,,,,
,,,p,1,2.1502,5,0,20,1,1,right.png,,p,right,5faf66be8dca1e20989ea7f0,2021-10-27_11h28.05.816,arrow_simon_punish,2021.1.2,Win32,60.03121623,,,,,,,,,,,,,,,,,,,,,,,,,,,,,,,,,,,,,,
,,,w,0,1.7503,5,1,21,0,1,right.png,,p,left,5faf66be8dca1e20989ea7f0,2021-10-27_11h28.05.816,arrow_simon_punish,2021.1.2,Win32,60.03121623,,,,,,,,,,,,,,,,,,,,,,,,,,,,,,,,,,,,,,
,,,w,1,1.1264,5,2,22,2,1,left.png,,w,left,5faf66be8dca1e20989ea7f0,2021-10-27_11h28.05.816,arrow_simon_punish,2021.1.2,Win32,60.03121623,,,,,,,,,,,,,,,,,,,,,,,,,,,,,,,,,,,,,,
,,,w,1,1.5524,5,3,23,3,1,left.png,,w,right,5faf66be8dca1e20989ea7f0,2021-10-27_11h28.05.816,arrow_simon_punish,2021.1.2,Win32,60.03121623,,,,,,,,,,,,,,,,,,,,,,,,,,,,,,,,,,,,,,
,,,w,1,1.0891,6,0,24,3,1,left.png,,w,right,5faf66be8dca1e20989ea7f0,2021-10-27_11h28.05.816,arrow_simon_punish,2021.1.2,Win32,60.03121623,,,,,,,,,,,,,,,,,,,,,,,,,,,,,,,,,,,,,,
,,,p,1,0.7246,6,1,25,0,1,right.png,,p,left,5faf66be8dca1e20989ea7f0,2021-10-27_11h28.05.816,arrow_simon_punish,2021.1.2,Win32,60.03121623,,,,,,,,,,,,,,,,,,,,,,,,,,,,,,,,,,,,,,
,,,p,1,0.8336,6,2,26,1,1,right.png,,p,right,5faf66be8dca1e20989ea7f0,2021-10-27_11h28.05.816,arrow_simon_punish,2021.1.2,Win32,60.03121623,,,,,,,,,,,,,,,,,,,,,,,,,,,,,,,,,,,,,,
,,,w,1,2.0203,6,3,27,2,1,left.png,,w,left,5faf66be8dca1e20989ea7f0,2021-10-27_11h28.05.816,arrow_simon_punish,2021.1.2,Win32,60.03121623,,,,,,,,,,,,,,,,,,,,,,,,,,,,,,,,,,,,,,
,,,w,1,0.5465,7,0,28,2,1,left.png,,w,left,5faf66be8dca1e20989ea7f0,2021-10-27_11h28.05.816,arrow_simon_punish,2021.1.2,Win32,60.03121623,,,,,,,,,,,,,,,,,,,,,,,,,,,,,,,,,,,,,,
,,,p,1,1.1502,7,1,29,0,1,right.png,,p,left,5faf66be8dca1e20989ea7f0,2021-10-27_11h28.05.816,arrow_simon_punish,2021.1.2,Win32,60.03121623,,,,,,,,,,,,,,,,,,,,,,,,,,,,,,,,,,,,,,
,,,p,1,0.9964,7,2,30,1,1,right.png,,p,right,5faf66be8dca1e20989ea7f0,2021-10-27_11h28.05.816,arrow_simon_punish,2021.1.2,Win32,60.03121623,,,,,,,,,,,,,,,,,,,,,,,,,,,,,,,,,,,,,,
,,,w,1,1.5556,7,3,31,3,1,left.png,,w,right,5faf66be8dca1e20989ea7f0,2021-10-27_11h28.05.816,arrow_simon_punish,2021.1.2,Win32,60.03121623,,,,,,,,,,,,,,,,,,,,,,,,,,,,,,,,,,,,,,
,,,w,1,1.7966,8,0,32,2,1,left.png,,w,left,5faf66be8dca1e20989ea7f0,2021-10-27_11h28.05.816,arrow_simon_punish,2021.1.2,Win32,60.03121623,,,,,,,,,,,,,,,,,,,,,,,,,,,,,,,,,,,,,,
,,,p,1,0.6517,8,1,33,1,1,right.png,,p,right,5faf66be8dca1e20989ea7f0,2021-10-27_11h28.05.816,arrow_simon_punish,2021.1.2,Win32,60.03121623,,,,,,,,,,,,,,,,,,,,,,,,,,,,,,,,,,,,,,
,,,w,0,1.5604,8,2,34,0,1,right.png,,p,left,5faf66be8dca1e20989ea7f0,2021-10-27_11h28.05.816,arrow_simon_punish,2021.1.2,Win32,60.03121623,,,,,,,,,,,,,,,,,,,,,,,,,,,,,,,,,,,,,,
,,,w,1,1.6171,8,3,35,3,1,left.png,,w,right,5faf66be8dca1e20989ea7f0,2021-10-27_11h28.05.816,arrow_simon_punish,2021.1.2,Win32,60.03121623,,,,,,,,,,,,,,,,,,,,,,,,,,,,,,,,,,,,,,
,,,w,1,1.2231,9,0,36,2,1,left.png,,w,left,5faf66be8dca1e20989ea7f0,2021-10-27_11h28.05.816,arrow_simon_punish,2021.1.2,Win32,60.03121623,,,,,,,,,,,,,,,,,,,,,,,,,,,,,,,,,,,,,,
,,,p,1,1.5249,9,1,37,1,1,right.png,,p,right,5faf66be8dca1e20989ea7f0,2021-10-27_11h28.05.816,arrow_simon_punish,2021.1.2,Win32,60.03121623,,,,,,,,,,,,,,,,,,,,,,,,,,,,,,,,,,,,,,
,,,p,0,1.4713,9,2,38,3,1,left.png,,w,right,5faf66be8dca1e20989ea7f0,2021-10-27_11h28.05.816,arrow_simon_punish,2021.1.2,Win32,60.03121623,,,,,,,,,,,,,,,,,,,,,,,,,,,,,,,,,,,,,,
,,,p,1,2.1668,9,3,39,0,1,right.png,,p,left,5faf66be8dca1e20989ea7f0,2021-10-27_11h28.05.816,arrow_simon_punish,2021.1.2,Win32,60.03121623,,,,,,,,,,,,,,,,,,,,,,,,,,,,,,,,,,,,,,
,,,,,,,,,,,,,,,5faf66be8dca1e20989ea7f0,2021-10-27_11h28.05.816,arrow_simon_punish,2021.1.2,Win32,60.03121623,space,0,35.4666,p,2.8,0,0,0,0,1,,,,,,,,,,,,,,,,,,,,,,,,,,,,
,,,,,,,,,,,,,,,5faf66be8dca1e20989ea7f0,2021-10-27_11h28.05.816,arrow_simon_punish,2021.1.2,Win32,60.03121623,,,,w,2.5903,1,0,1,0,1,,,,,,,,,,,,,,,,,,,,,,,,,,,,
,,,,,,,,,,,,,,,5faf66be8dca1e20989ea7f0,2021-10-27_11h28.05.816,arrow_simon_punish,2021.1.2,Win32,60.03121623,,,,p,2.534,2,0,2,0,1,,,,,,,,,,,,,,,,,,,,,,,,,,,,
,,,,,,,,,,,,,,,5faf66be8dca1e20989ea7f0,2021-10-27_11h28.05.816,arrow_simon_punish,2021.1.2,Win32,60.03121623,,,,w,2.575,3,0,3,0,1,,,,,,,,,,,,,,,,,,,,,,,,,,,,
,,,,,,,,,,,,,,,5faf66be8dca1e20989ea7f0,2021-10-27_11h28.05.816,arrow_simon_punish,2021.1.2,Win32,60.03121623,,,,p,2.6167,4,0,4,0,1,,,,,,,,,,,,,,,,,,,,,,,,,,,,
,,,,,,,,,,,,,,,5faf66be8dca1e20989ea7f0,2021-10-27_11h28.05.816,arrow_simon_punish,2021.1.2,Win32,60.03121623,,,,p,2.5335,5,0,5,0,1,,,,,,,,,,,,,,,,,,,,,,,,,,,,
,,,,,,,,,,,,,,,5faf66be8dca1e20989ea7f0,2021-10-27_11h28.05.816,arrow_simon_punish,2021.1.2,Win32,60.03121623,,,,w,2.6167,6,0,6,0,1,,,,,,,,,,,,,,,,,,,,,,,,,,,,
,,,,,,,,,,,,,,,5faf66be8dca1e20989ea7f0,2021-10-27_11h28.05.816,arrow_simon_punish,2021.1.2,Win32,60.03121623,,,,w,2.5805,7,0,7,0,1,,,,,,,,,,,,,,,,,,,,,,,,,,,,
,,,,,,,,,,,,,,,5faf66be8dca1e20989ea7f0,2021-10-27_11h28.05.816,arrow_simon_punish,2021.1.2,Win32,60.03121623,,,,p,2.6285,8,0,8,0,1,,,,,,,,,,,,,,,,,,,,,,,,,,,,
,,,,,,,,,,,,,,,5faf66be8dca1e20989ea7f0,2021-10-27_11h28.05.816,arrow_simon_punish,2021.1.2,Win32,60.03121623,,,,p,2.5061,9,0,9,0,1,,,,,,,,,,,,,,,,,,,,,,,,,,,,
,,,,,,,,,,,,,,,5faf66be8dca1e20989ea7f0,2021-10-27_11h28.05.816,arrow_simon_punish,2021.1.2,Win32,60.03121623,,,,w,2.5249,10,0,10,0,1,,,,,,,,,,,,,,,,,,,,,,,,,,,,
,,,,,,,,,,,,,,,5faf66be8dca1e20989ea7f0,2021-10-27_11h28.05.816,arrow_simon_punish,2021.1.2,Win32,60.03121623,,,,p,2.4168,11,0,11,0,1,,,,,,,,,,,,,,,,,,,,,,,,,,,,
,,,,,,,,,,,,,,,5faf66be8dca1e20989ea7f0,2021-10-27_11h28.05.816,arrow_simon_punish,2021.1.2,Win32,60.03121623,,,,w,2.5169,12,0,12,0,1,,,,,,,,,,,,,,,,,,,,,,,,,,,,
,,,,,,,,,,,,,,,5faf66be8dca1e20989ea7f0,2021-10-27_11h28.05.816,arrow_simon_punish,2021.1.2,Win32,60.03121623,,,,p,2.5834,13,0,13,0,1,,,,,,,,,,,,,,,,,,,,,,,,,,,,
,,,,,,,,,,,,,,,5faf66be8dca1e20989ea7f0,2021-10-27_11h28.05.816,arrow_simon_punish,2021.1.2,Win32,60.03121623,,,,w,2.4545,14,0,14,0,1,,,,,,,,,,,,,,,,,,,,,,,,,,,,
,,,,,,,,,,,,,,,5faf66be8dca1e20989ea7f0,2021-10-27_11h28.05.816,arrow_simon_punish,2021.1.2,Win32,60.03121623,,,,p,2.5335,15,0,15,0,1,,,,,,,,,,,,,,,,,,,,,,,,,,,,
,,,,,,,,,,,,,,,5faf66be8dca1e20989ea7f0,2021-10-27_11h28.05.816,arrow_simon_punish,2021.1.2,Win32,60.03121623,,,,w,2.5083,16,0,16,0,1,,,,,,,,,,,,,,,,,,,,,,,,,,,,
,,,,,,,,,,,,,,,5faf66be8dca1e20989ea7f0,2021-10-27_11h28.05.816,arrow_simon_punish,2021.1.2,Win32,60.03121623,,,,p,2.6872,17,0,17,0,1,,,,,,,,,,,,,,,,,,,,,,,,,,,,
,,,,,,,,,,,,,,,5faf66be8dca1e20989ea7f0,2021-10-27_11h28.05.816,arrow_simon_punish,2021.1.2,Win32,60.03121623,,,,p,2.5542,18,0,18,0,1,,,,,,,,,,,,,,,,,,,,,,,,,,,,
,,,,,,,,,,,,,,,5faf66be8dca1e20989ea7f0,2021-10-27_11h28.05.816,arrow_simon_punish,2021.1.2,Win32,60.03121623,,,,w,2.523,19,0,19,0,1,,,,,,,,,,,,,,,,,,,,,,,,,,,,
,,,,,,,,,,,,,,,5faf66be8dca1e20989ea7f0,2021-10-27_11h28.05.816,arrow_simon_punish,2021.1.2,Win32,60.03121623,,,,p,2.4932,20,0,20,0,1,,,,,,,,,,,,,,,,,,,,,,,,,,,,
,,,,,,,,,,,,,,,5faf66be8dca1e20989ea7f0,2021-10-27_11h28.05.816,arrow_simon_punish,2021.1.2,Win32,60.03121623,,,,w,2.5524,21,0,21,0,1,,,,,,,,,,,,,,,,,,,,,,,,,,,,
,,,,,,,,,,,,,,,5faf66be8dca1e20989ea7f0,2021-10-27_11h28.05.816,arrow_simon_punish,2021.1.2,Win32,60.03121623,,,,p,2.5689,22,0,22,0,1,,,,,,,,,,,,,,,,,,,,,,,,,,,,
,,,,,,,,,,,,,,,5faf66be8dca1e20989ea7f0,2021-10-27_11h28.05.816,arrow_simon_punish,2021.1.2,Win32,60.03121623,,,,w,2.5771,23,0,23,0,1,,,,,,,,,,,,,,,,,,,,,,,,,,,,
,,,,,,,,,,,,,,,5faf66be8dca1e20989ea7f0,2021-10-27_11h28.05.816,arrow_simon_punish,2021.1.2,Win32,60.03121623,,,,p,2.1609,24,0,24,0,1,,,,,,,,,,,,,,,,,,,,,,,,,,,,
,,,,,,,,,,,,,,,5faf66be8dca1e20989ea7f0,2021-10-27_11h28.05.816,arrow_simon_punish,2021.1.2,Win32,60.03121623,,,,p,2.5375,25,0,25,0,1,,,,,,,,,,,,,,,,,,,,,,,,,,,,
,,,,,,,,,,,,,,,5faf66be8dca1e20989ea7f0,2021-10-27_11h28.05.816,arrow_simon_punish,2021.1.2,Win32,60.03121623,,,,w,2.5334,26,0,26,0,1,,,,,,,,,,,,,,,,,,,,,,,,,,,,
,,,,,,,,,,,,,,,5faf66be8dca1e20989ea7f0,2021-10-27_11h28.05.816,arrow_simon_punish,2021.1.2,Win32,60.03121623,,,,p,2.5334,27,0,27,0,1,,,,,,,,,,,,,,,,,,,,,,,,,,,,
,,,,,,,,,,,,,,,5faf66be8dca1e20989ea7f0,2021-10-27_11h28.05.816,arrow_simon_punish,2021.1.2,Win32,60.03121623,,,,w,2.5835,28,0,28,0,1,,,,,,,,,,,,,,,,,,,,,,,,,,,,
,,,,,,,,,,,,,,,5faf66be8dca1e20989ea7f0,2021-10-27_11h28.05.816,arrow_simon_punish,2021.1.2,Win32,60.03121623,,,,p,2.685,29,0,29,0,1,,,,,,,,,,,,,,,,,,,,,,,,,,,,
,,,,,,,,,,,,,,,5faf66be8dca1e20989ea7f0,2021-10-27_11h28.05.816,arrow_simon_punish,2021.1.2,Win32,60.03121623,,,,p,2.5043,30,0,30,0,1,,,,,,,,,,,,,,,,,,,,,,,,,,,,
,,,,,,,,,,,,,,,5faf66be8dca1e20989ea7f0,2021-10-27_11h28.05.816,arrow_simon_punish,2021.1.2,Win32,60.03121623,,,,w,2.4834,31,0,31,0,1,,,,,,,,,,,,,,,,,,,,,,,,,,,,
,,,,,,,,,,,,,,,5faf66be8dca1e20989ea7f0,2021-10-27_11h28.05.816,arrow_simon_punish,2021.1.2,Win32,60.03121623,,,,p,2.5024,32,0,32,0,1,,,,,,,,,,,,,,,,,,,,,,,,,,,,
,,,,,,,,,,,,,,,5faf66be8dca1e20989ea7f0,2021-10-27_11h28.05.816,arrow_simon_punish,2021.1.2,Win32,60.03121623,,,,w,2.5129,33,0,33,0,1,,,,,,,,,,,,,,,,,,,,,,,,,,,,
,,,,,,,,,,,,,,,5faf66be8dca1e20989ea7f0,2021-10-27_11h28.05.816,arrow_simon_punish,2021.1.2,Win32,60.03121623,,,,p,2.5235,34,0,34,0,1,,,,,,,,,,,,,,,,,,,,,,,,,,,,
,,,,,,,,,,,,,,,5faf66be8dca1e20989ea7f0,2021-10-27_11h28.05.816,arrow_simon_punish,2021.1.2,Win32,60.03121623,,,,w,2.5099,35,0,35,0,1,,,,,,,,,,,,,,,,,,,,,,,,,,,,
,,,,,,,,,,,,,,,5faf66be8dca1e20989ea7f0,2021-10-27_11h28.05.816,arrow_simon_punish,2021.1.2,Win32,60.03121623,,,,p,2.5123,36,0,36,0,1,,,,,,,,,,,,,,,,,,,,,,,,,,,,
,,,,,,,,,,,,,,,5faf66be8dca1e20989ea7f0,2021-10-27_11h28.05.816,arrow_simon_punish,2021.1.2,Win32,60.03121623,,,,w,2.5708,37,0,37,0,1,,,,,,,,,,,,,,,,,,,,,,,,,,,,
,,,,,,,,,,,,,,,5faf66be8dca1e20989ea7f0,2021-10-27_11h28.05.816,arrow_simon_punish,2021.1.2,Win32,60.03121623,,,,p,2.4592,38,0,38,0,1,,,,,,,,,,,,,,,,,,,,,,,,,,,,
,,,,,,,,,,,,,,,5faf66be8dca1e20989ea7f0,2021-10-27_11h28.05.816,arrow_simon_punish,2021.1.2,Win32,60.03121623,,,,w,2.5356,39,0,39,0,1,,,,,,,,,,,,,,,,,,,,,,,,,,,,
,,,,,,,,,,,,,,,5faf66be8dca1e20989ea7f0,2021-10-27_11h28.05.816,arrow_simon_punish,2021.1.2,Win32,60.03121623,,,,p,2.4889,40,0,40,0,1,,,,,,,,,,,,,,,,,,,,,,,,,,,,
,,,,,,,,,,,,,,,5faf66be8dca1e20989ea7f0,2021-10-27_11h28.05.816,arrow_simon_punish,2021.1.2,Win32,60.03121623,,,,w,2.5805,41,0,41,0,1,,,,,,,,,,,,,,,,,,,,,,,,,,,,
,,,,,,,,,,,,,,,5faf66be8dca1e20989ea7f0,2021-10-27_11h28.05.816,arrow_simon_punish,2021.1.2,Win32,60.03121623,,,,p,2.4602,42,0,42,0,1,,,,,,,,,,,,,,,,,,,,,,,,,,,,
,,,,,,,,,,,,,,,5faf66be8dca1e20989ea7f0,2021-10-27_11h28.05.816,arrow_simon_punish,2021.1.2,Win32,60.03121623,,,,w,2.5529,43,0,43,0,1,,,,,,,,,,,,,,,,,,,,,,,,,,,,
,,,,,,,,,,,,,,,5faf66be8dca1e20989ea7f0,2021-10-27_11h28.05.816,arrow_simon_punish,2021.1.2,Win32,60.03121623,,,,p,2.5298,44,0,44,0,1,,,,,,,,,,,,,,,,,,,,,,,,,,,,
,,,,,,,,,,,,,,,5faf66be8dca1e20989ea7f0,2021-10-27_11h28.05.816,arrow_simon_punish,2021.1.2,Win32,60.03121623,,,,w,2.4915,45,0,45,0,1,,,,,,,,,,,,,,,,,,,,,,,,,,,,
,,,,,,,,,,,,,,,5faf66be8dca1e20989ea7f0,2021-10-27_11h28.05.816,arrow_simon_punish,2021.1.2,Win32,60.03121623,,,,p,2.5908,46,0,46,0,1,,,,,,,,,,,,,,,,,,,,,,,,,,,,
,,,,,,,,,,,,,,,5faf66be8dca1e20989ea7f0,2021-10-27_11h28.05.816,arrow_simon_punish,2021.1.2,Win32,60.03121623,,,,w,2.5025,47,0,47,0,1,,,,,,,,,,,,,,,,,,,,,,,,,,,,
,,,,,,,,,,,,,,,5faf66be8dca1e20989ea7f0,2021-10-27_11h28.05.816,arrow_simon_punish,2021.1.2,Win32,60.03121623,,,,p,2.537,48,0,48,0,1,,,,,,,,,,,,,,,,,,,,,,,,,,,,
,,,,,,,,,,,,,,,5faf66be8dca1e20989ea7f0,2021-10-27_11h28.05.816,arrow_simon_punish,2021.1.2,Win32,60.03121623,,,,w,2.4834,49,0,49,0,1,,,,,,,,,,,,,,,,,,,,,,,,,,,,
,,,,,,,,,,,,,,,5faf66be8dca1e20989ea7f0,2021-10-27_11h28.05.816,arrow_simon_punish,2021.1.2,Win32,60.03121623,,,,p,2.6457,50,0,50,0,1,,,,,,,,,,,,,,,,,,,,,,,,,,,,
,,,,,,,,,,,,,,,5faf66be8dca1e20989ea7f0,2021-10-27_11h28.05.816,arrow_simon_punish,2021.1.2,Win32,60.03121623,,,,p,2.4835,51,0,51,0,1,,,,,,,,,,,,,,,,,,,,,,,,,,,,
,,,,,,,,,,,,,,,5faf66be8dca1e20989ea7f0,2021-10-27_11h28.05.816,arrow_simon_punish,2021.1.2,Win32,60.03121623,,,,w,2.5501,52,0,52,0,1,,,,,,,,,,,,,,,,,,,,,,,,,,,,
,,,,,,,,,,,,,,,5faf66be8dca1e20989ea7f0,2021-10-27_11h28.05.816,arrow_simon_punish,2021.1.2,Win32,60.03121623,,,,p,2.5192,53,0,53,0,1,,,,,,,,,,,,,,,,,,,,,,,,,,,,
,,,,,,,,,,,,,,,5faf66be8dca1e20989ea7f0,2021-10-27_11h28.05.816,arrow_simon_punish,2021.1.2,Win32,60.03121623,,,,w,2.5769,54,0,54,0,1,,,,,,,,,,,,,,,,,,,,,,,,,,,,
,,,,,,,,,,,,,,,5faf66be8dca1e20989ea7f0,2021-10-27_11h28.05.816,arrow_simon_punish,2021.1.2,Win32,60.03121623,,,,p,2.5528,55,0,55,0,1,,,,,,,,,,,,,,,,,,,,,,,,,,,,
,,,,,,,,,,,,,,,5faf66be8dca1e20989ea7f0,2021-10-27_11h28.05.816,arrow_simon_punish,2021.1.2,Win32,60.03121623,,,,w,2.5777,56,0,56,0,1,,,,,,,,,,,,,,,,,,,,,,,,,,,,
,,,,,,,,,,,,,,,5faf66be8dca1e20989ea7f0,2021-10-27_11h28.05.816,arrow_simon_punish,2021.1.2,Win32,60.03121623,,,,w,2.4576,57,0,57,0,1,,,,,,,,,,,,,,,,,,,,,,,,,,,,
,,,,,,,,,,,,,,,5faf66be8dca1e20989ea7f0,2021-10-27_11h28.05.816,arrow_simon_punish,2021.1.2,Win32,60.03121623,,,,w,2.4941,58,0,58,0,1,,,,,,,,,,,,,,,,,,,,,,,,,,,,
,,,,,,,,,,,,,,,5faf66be8dca1e20989ea7f0,2021-10-27_11h28.05.816,arrow_simon_punish,2021.1.2,Win32,60.03121623,,,,p,2.5458,59,0,59,0,1,,,,,,,,,,,,,,,,,,,,,,,,,,,,
,,,,,,,,,,,left.png,,w,left,5faf66be8dca1e20989ea7f0,2021-10-27_11h28.05.816,arrow_simon_punish,2021.1.2,Win32,60.03121623,,,,,,,,,,,space,0,70.8726,w,1,1.222,1.65492445,1,1,0,0,0,2,1,,,,,,,,,,,,,,
,,,,,,,,,,,left.png,,w,right,5faf66be8dca1e20989ea7f0,2021-10-27_11h28.05.816,arrow_simon_punish,2021.1.2,Win32,60.03121623,,,,,,,,,,,,,,p,0,1.3881,1.850104513,1,1,0,1,1,3,1,,,,,,,,,,,,,,
,,,,,,,,,,,right.png,,p,right,5faf66be8dca1e20989ea7f0,2021-10-27_11h28.05.816,arrow_simon_punish,2021.1.2,Win32,60.03121623,,,,,,,,,,,,,,p,1,2.3397,2.282783697,1,1,0,2,2,1,1,,,,,,,,,,,,,,
,,,,,,,,,,,right.png,,p,left,5faf66be8dca1e20989ea7f0,2021-10-27_11h28.05.816,arrow_simon_punish,2021.1.2,Win32,60.03121623,,,,,,,,,,,,,,p,1,1.956,2.464995115,1,1,0,3,3,0,1,,,,,,,,,,,,,,
,,,,,,,,,,,left.png,,w,left,5faf66be8dca1e20989ea7f0,2021-10-27_11h28.05.816,arrow_simon_punish,2021.1.2,Win32,60.03121623,,,,,,,,,,,,,,w,1,1.6929,2.16357649,1,1,1,0,4,2,1,,,,,,,,,,,,,,
,,,,,,,,,,,left.png,,w,left,5faf66be8dca1e20989ea7f0,2021-10-27_11h28.05.816,arrow_simon_punish,2021.1.2,Win32,60.03121623,,,,,,,,,,,,,,w,1,1.3284,1.910839799,1,1,1,1,5,2,1,,,,,,,,,,,,,,
,,,,,,,,,,,right.png,,p,left,5faf66be8dca1e20989ea7f0,2021-10-27_11h28.05.816,arrow_simon_punish,2021.1.2,Win32,60.03121623,,,,,,,,,,,,,,p,1,1.3701,1.849854877,1,1,1,2,6,0,1,,,,,,,,,,,,,,
,,,,,,,,,,,right.png,,p,right,5faf66be8dca1e20989ea7f0,2021-10-27_11h28.05.816,arrow_simon_punish,2021.1.2,Win32,60.03121623,,,,,,,,,,,,,,p,1,1.1002,1.568751875,1,1,1,3,7,1,1,,,,,,,,,,,,,,
,,,,,,,,,,,left.png,,w,right,5faf66be8dca1e20989ea7f0,2021-10-27_11h28.05.816,arrow_simon_punish,2021.1.2,Win32,60.03121623,,,,,,,,,,,,,,p,0,1.7335,1.763074729,1,1,2,0,8,3,1,,,,,,,,,,,,,,
,,,,,,,,,,,right.png,,p,left,5faf66be8dca1e20989ea7f0,2021-10-27_11h28.05.816,arrow_simon_punish,2021.1.2,Win32,60.03121623,,,,,,,,,,,,,,p,1,1.9262,2.370520437,1,1,2,1,9,0,1,,,,,,,,,,,,,,
,,,,,,,,,,,left.png,,w,left,5faf66be8dca1e20989ea7f0,2021-10-27_11h28.05.816,arrow_simon_punish,2021.1.2,Win32,60.03121623,,,,,,,,,,,,,,w,1,1.1921,1.691339712,1,1,2,2,10,2,1,,,,,,,,,,,,,,
,,,,,,,,,,,left.png,,w,right,5faf66be8dca1e20989ea7f0,2021-10-27_11h28.05.816,arrow_simon_punish,2021.1.2,Win32,60.03121623,,,,,,,,,,,,,,p,0,1.9197,2.033559841,1,1,2,3,11,3,1,,,,,,,,,,,,,,
,,,,,,,,,,,left.png,,w,left,5faf66be8dca1e20989ea7f0,2021-10-27_11h28.05.816,arrow_simon_punish,2021.1.2,Win32,60.03121623,,,,,,,,,,,,,,w,1,1.7615,2.372892885,1,1,3,0,12,2,1,,,,,,,,,,,,,,
,,,,,,,,,,,left.png,,w,left,5faf66be8dca1e20989ea7f0,2021-10-27_11h28.05.816,arrow_simon_punish,2021.1.2,Win32,60.03121623,,,,,,,,,,,,,,w,1,1.1621,1.683581213,1,1,3,1,13,2,1,,,,,,,,,,,,,,
,,,,,,,,,,,left.png,,w,right,5faf66be8dca1e20989ea7f0,2021-10-27_11h28.05.816,arrow_simon_punish,2021.1.2,Win32,60.03121623,,,,,,,,,,,,,,p,0,1.811,1.976671792,1,1,3,2,14,3,1,,,,,,,,,,,,,,
,,,,,,,,,,,right.png,,p,right,5faf66be8dca1e20989ea7f0,2021-10-27_11h28.05.816,arrow_simon_punish,2021.1.2,Win32,60.03121623,,,,,,,,,,,,,,p,1,1.4015,1.645955348,0,1,3,3,15,1,1,,,,,,,,,,,,,,
,,,,,,,,,,,right.png,,p,right,5faf66be8dca1e20989ea7f0,2021-10-27_11h28.05.816,arrow_simon_punish,2021.1.2,Win32,60.03121623,,,,,,,,,,,,,,p,1,1.5202,2.122457094,0,1,4,0,16,1,1,,,,,,,,,,,,,,
,,,,,,,,,,,left.png,,w,left,5faf66be8dca1e20989ea7f0,2021-10-27_11h28.05.816,arrow_simon_punish,2021.1.2,Win32,60.03121623,,,,,,,,,,,,,,w,1,1.5139,2.178826878,0,1,4,1,17,2,1,,,,,,,,,,,,,,
,,,,,,,,,,,left.png,,w,left,5faf66be8dca1e20989ea7f0,2021-10-27_11h28.05.816,arrow_simon_punish,2021.1.2,Win32,60.03121623,,,,,,,,,,,,,,w,1,1.6353,1.740394946,1,1,4,2,18,2,1,,,,,,,,,,,,,,
,,,,,,,,,,,left.png,,w,right,5faf66be8dca1e20989ea7f0,2021-10-27_11h28.05.816,arrow_simon_punish,2021.1.2,Win32,60.03121623,,,,,,,,,,,,,,p,0,1.193,1.627581256,1,1,4,3,19,3,1,,,,,,,,,,,,,,
,,,,,,,,,,,right.png,,p,left,5faf66be8dca1e20989ea7f0,2021-10-27_11h28.05.816,arrow_simon_punish,2021.1.2,Win32,60.03121623,,,,,,,,,,,,,,p,1,1.7365,2.006409182,1,1,5,0,20,0,1,,,,,,,,,,,,,,
,,,,,,,,,,,left.png,,w,right,5faf66be8dca1e20989ea7f0,2021-10-27_11h28.05.816,arrow_simon_punish,2021.1.2,Win32,60.03121623,,,,,,,,,,,,,,p,0,1.7216,1.798649346,1,1,5,1,21,3,1,,,,,,,,,,,,,,
,,,,,,,,,,,right.png,,p,left,5faf66be8dca1e20989ea7f0,2021-10-27_11h28.05.816,arrow_simon_punish,2021.1.2,Win32,60.03121623,,,,,,,,,,,,,,w,0,1.7794,2.333034118,1,1,5,2,22,0,1,,,,,,,,,,,,,,
,,,,,,,,,,,left.png,,w,left,5faf66be8dca1e20989ea7f0,2021-10-27_11h28.05.816,arrow_simon_punish,2021.1.2,Win32,60.03121623,,,,,,,,,,,,,,w,1,1.6757,1.855899597,1,1,5,3,23,2,1,,,,,,,,,,,,,,
,,,,,,,,,,,right.png,,p,right,5faf66be8dca1e20989ea7f0,2021-10-27_11h28.05.816,arrow_simon_punish,2021.1.2,Win32,60.03121623,,,,,,,,,,,,,,p,1,1.5754,2.211960501,0,1,6,0,24,1,1,,,,,,,,,,,,,,
,,,,,,,,,,,right.png,,p,right,5faf66be8dca1e20989ea7f0,2021-10-27_11h28.05.816,arrow_simon_punish,2021.1.2,Win32,60.03121623,,,,,,,,,,,,,,p,1,1.2502,1.842648346,1,1,6,1,25,1,1,,,,,,,,,,,,,,
,,,,,,,,,,,right.png,,p,left,5faf66be8dca1e20989ea7f0,2021-10-27_11h28.05.816,arrow_simon_punish,2021.1.2,Win32,60.03121623,,,,,,,,,,,,,,p,1,1.5835,2.086297752,0,1,6,2,26,0,1,,,,,,,,,,,,,,
,,,,,,,,,,,left.png,,w,right,5faf66be8dca1e20989ea7f0,2021-10-27_11h28.05.816,arrow_simon_punish,2021.1.2,Win32,60.03121623,,,,,,,,,,,,,,p,0,1.9168,2.281939156,1,1,6,3,27,3,1,,,,,,,,,,,,,,
,,,,,,,,,,,right.png,,p,left,5faf66be8dca1e20989ea7f0,2021-10-27_11h28.05.816,arrow_simon_punish,2021.1.2,Win32,60.03121623,,,,,,,,,,,,,,p,1,1.6781,1.677986596,1,1,7,0,28,0,1,,,,,,,,,,,,,,
,,,,,,,,,,,right.png,,p,left,5faf66be8dca1e20989ea7f0,2021-10-27_11h28.05.816,arrow_simon_punish,2021.1.2,Win32,60.03121623,,,,,,,,,,,,,,p,1,1.6583,1.941795124,1,1,7,1,29,0,1,,,,,,,,,,,,,,
,,,,,,,,,,,right.png,,p,right,5faf66be8dca1e20989ea7f0,2021-10-27_11h28.05.816,arrow_simon_punish,2021.1.2,Win32,60.03121623,,,,,,,,,,,,,,p,1,1.8068,2.129960581,1,1,7,2,30,1,1,,,,,,,,,,,,,,
,,,,,,,,,,,left.png,,w,right,5faf66be8dca1e20989ea7f0,2021-10-27_11h28.05.816,arrow_simon_punish,2021.1.2,Win32,60.03121623,,,,,,,,,,,,,,p,0,1.6214,2.244067124,1,1,7,3,31,3,1,,,,,,,,,,,,,,
,,,,,,,,,,,right.png,,p,right,5faf66be8dca1e20989ea7f0,2021-10-27_11h28.05.816,arrow_simon_punish,2021.1.2,Win32,60.03121623,,,,,,,,,,,,,,p,1,1.4116,1.705745291,0,1,8,0,32,1,1,,,,,,,,,,,,,,
,,,,,,,,,,,right.png,,p,left,5faf66be8dca1e20989ea7f0,2021-10-27_11h28.05.816,arrow_simon_punish,2021.1.2,Win32,60.03121623,,,,,,,,,,,,,,p,1,1.5862,1.557795801,0,1,8,1,33,0,1,,,,,,,,,,,,,,
,,,,,,,,,,,right.png,,p,left,5faf66be8dca1e20989ea7f0,2021-10-27_11h28.05.816,arrow_simon_punish,2021.1.2,Win32,60.03121623,,,,,,,,,,,,,,p,1,2.0014,1.879518765,1,1,8,2,34,0,1,,,,,,,,,,,,,,
,,,,,,,,,,,right.png,,p,left,5faf66be8dca1e20989ea7f0,2021-10-27_11h28.05.816,arrow_simon_punish,2021.1.2,Win32,60.03121623,,,,,,,,,,,,,,w,0,1.7444,1.894926475,1,1,8,3,35,0,1,,,,,,,,,,,,,,
,,,,,,,,,,,right.png,,p,right,5faf66be8dca1e20989ea7f0,2021-10-27_11h28.05.816,arrow_simon_punish,2021.1.2,Win32,60.03121623,,,,,,,,,,,,,,p,1,1.7534,1.800246388,1,1,9,0,36,1,1,,,,,,,,,,,,,,
,,,,,,,,,,,right.png,,p,right,5faf66be8dca1e20989ea7f0,2021-10-27_11h28.05.816,arrow_simon_punish,2021.1.2,Win32,60.03121623,,,,,,,,,,,,,,p,1,1.6834,1.814758903,1,1,9,1,37,1,1,,,,,,,,,,,,,,
,,,,,,,,,,,right.png,,p,right,5faf66be8dca1e20989ea7f0,2021-10-27_11h28.05.816,arrow_simon_punish,2021.1.2,Win32,60.03121623,,,,,,,,,,,,,,p,1,1.5896,1.862661997,0,1,9,2,38,1,1,,,,,,,,,,,,,,
,,,,,,,,,,,right.png,,p,right,5faf66be8dca1e20989ea7f0,2021-10-27_11h28.05.816,arrow_simon_punish,2021.1.2,Win32,60.03121623,,,,,,,,,,,,,,p,1,1.6127,1.522652531,1,1,9,3,39,1,1,,,,,,,,,,,,,,
,,,,,,,,,,,right.png,,p,left,5faf66be8dca1e20989ea7f0,2021-10-27_11h28.05.816,arrow_simon_punish,2021.1.2,Win32,60.03121623,,,,,,,,,,,,,,p,1,1.6754,1.648818862,1,1,10,0,40,0,1,,,,,,,,,,,,,,
,,,,,,,,,,,right.png,,p,right,5faf66be8dca1e20989ea7f0,2021-10-27_11h28.05.816,arrow_simon_punish,2021.1.2,Win32,60.03121623,,,,,,,,,,,,,,p,1,1.5837,1.594047414,0,1,10,1,41,1,1,,,,,,,,,,,,,,
,,,,,,,,,,,right.png,,p,left,5faf66be8dca1e20989ea7f0,2021-10-27_11h28.05.816,arrow_simon_punish,2021.1.2,Win32,60.03121623,,,,,,,,,,,,,,p,1,1.9028,2.458722412,1,1,10,2,42,0,1,,,,,,,,,,,,,,
,,,,,,,,,,,right.png,,p,right,5faf66be8dca1e20989ea7f0,2021-10-27_11h28.05.816,arrow_simon_punish,2021.1.2,Win32,60.03121623,,,,,,,,,,,,,,p,1,1.7535,2.225973442,1,1,10,3,43,1,1,,,,,,,,,,,,,,
,,,,,,,,,,,left.png,,w,left,5faf66be8dca1e20989ea7f0,2021-10-27_11h28.05.816,arrow_simon_punish,2021.1.2,Win32,60.03121623,,,,,,,,,,,,,,w,1,1.5001,2.169609553,0,1,11,0,44,2,1,,,,,,,,,,,,,,
,,,,,,,,,,,left.png,,w,left,5faf66be8dca1e20989ea7f0,2021-10-27_11h28.05.816,arrow_simon_punish,2021.1.2,Win32,60.03121623,,,,,,,,,,,,,,w,1,1.5409,2.124110847,0,1,11,1,45,2,1,,,,,,,,,,,,,,
,,,,,,,,,,,left.png,,w,right,5faf66be8dca1e20989ea7f0,2021-10-27_11h28.05.816,arrow_simon_punish,2021.1.2,Win32,60.03121623,,,,,,,,,,,,,,p,0,1.7341,1.888440428,1,1,11,2,46,3,1,,,,,,,,,,,,,,
,,,,,,,,,,,left.png,,w,right,5faf66be8dca1e20989ea7f0,2021-10-27_11h28.05.816,arrow_simon_punish,2021.1.2,Win32,60.03121623,,,,,,,,,,,,,,w,1,1.7277,2.110171124,1,1,11,3,47,3,1,,,,,,,,,,,,,,
,,,,,,,,,,,right.png,,p,right,5faf66be8dca1e20989ea7f0,2021-10-27_11h28.05.816,arrow_simon_punish,2021.1.2,Win32,60.03121623,,,,,,,,,,,,,,p,1,1.6975,2.439044998,1,1,12,0,48,1,1,,,,,,,,,,,,,,
,,,,,,,,,,,left.png,,w,right,5faf66be8dca1e20989ea7f0,2021-10-27_11h28.05.816,arrow_simon_punish,2021.1.2,Win32,60.03121623,,,,,,,,,,,,,,w,1,1.5728,2.070339374,0,1,12,1,49,3,1,,,,,,,,,,,,,,
,,,,,,,,,,,left.png,,w,right,5faf66be8dca1e20989ea7f0,2021-10-27_11h28.05.816,arrow_simon_punish,2021.1.2,Win32,60.03121623,,,,,,,,,,,,,,w,1,1.6211,1.924269415,1,1,12,2,50,3,1,,,,,,,,,,,,,,
,,,,,,,,,,,left.png,,w,right,5faf66be8dca1e20989ea7f0,2021-10-27_11h28.05.816,arrow_simon_punish,2021.1.2,Win32,60.03121623,,,,,,,,,,,,,,w,1,1.3947,1.561142577,1,1,12,3,51,3,1,,,,,,,,,,,,,,
,,,,,,,,,,,left.png,,w,left,5faf66be8dca1e20989ea7f0,2021-10-27_11h28.05.816,arrow_simon_punish,2021.1.2,Win32,60.03121623,,,,,,,,,,,,,,w,1,1.8836,2.445123837,1,1,13,0,52,2,1,,,,,,,,,,,,,,
,,,,,,,,,,,left.png,,w,right,5faf66be8dca1e20989ea7f0,2021-10-27_11h28.05.816,arrow_simon_punish,2021.1.2,Win32,60.03121623,,,,,,,,,,,,,,p,0,1.6137,1.787324273,1,1,13,1,53,3,1,,,,,,,,,,,,,,
,,,,,,,,,,,left.png,,w,left,5faf66be8dca1e20989ea7f0,2021-10-27_11h28.05.816,arrow_simon_punish,2021.1.2,Win32,60.03121623,,,,,,,,,,,,,,w,1,1.6201,1.85209769,1,1,13,2,54,2,1,,,,,,,,,,,,,,
,,,,,,,,,,,right.png,,p,left,5faf66be8dca1e20989ea7f0,2021-10-27_11h28.05.816,arrow_simon_punish,2021.1.2,Win32,60.03121623,,,,,,,,,,,,,,p,1,1.5781,1.698908498,0,1,13,3,55,0,1,,,,,,,,,,,,,,
,,,,,,,,,,,left.png,,w,left,5faf66be8dca1e20989ea7f0,2021-10-27_11h28.05.816,arrow_simon_punish,2021.1.2,Win32,60.03121623,,,,,,,,,,,,,,w,1,1.8182,2.401457933,1,1,14,0,56,2,1,,,,,,,,,,,,,,
,,,,,,,,,,,right.png,,p,left,5faf66be8dca1e20989ea7f0,2021-10-27_11h28.05.816,arrow_simon_punish,2021.1.2,Win32,60.03121623,,,,,,,,,,,,,,p,1,1.6502,1.819491458,1,1,14,1,57,0,1,,,,,,,,,,,,,,
,,,,,,,,,,,left.png,,w,left,5faf66be8dca1e20989ea7f0,2021-10-27_11h28.05.816,arrow_simon_punish,2021.1.2,Win32,60.03121623,,,,,,,,,,,,,,w,1,1.5008,1.845886805,0,1,14,2,58,2,1,,,,,,,,,,,,,,
,,,,,,,,,,,left.png,,w,right,5faf66be8dca1e20989ea7f0,2021-10-27_11h28.05.816,arrow_simon_punish,2021.1.2,Win32,60.03121623,,,,,,,,,,,,,,w,1,1.6235,2.1907499,1,1,14,3,59,3,1,,,,,,,,,,,,,,
,,,,,,,,,,,,,,,5faf66be8dca1e20989ea7f0,2021-10-27_11h28.05.816,arrow_simon_punish,2021.1.2,Win32,60.03121623,,,,,,,,,,,,,,,,,,,,,,,,,space,73.044,2,0,0,0,0,1,1,,,,,
,,,,,,,,,,,left.png,,w,right,5faf66be8dca1e20989ea7f0,2021-10-27_11h28.05.816,arrow_simon_punish,2021.1.2,Win32,60.03121623,,,,,,,,,,,,,,p,0,1.6747,2.346624146,1,5,0,0,0,3,1,,,,,,,,,,,,,,
,,,,,,,,,,,left.png,,w,right,5faf66be8dca1e20989ea7f0,2021-10-27_11h28.05.816,arrow_simon_punish,2021.1.2,Win32,60.03121623,,,,,,,,,,,,,,w,1,1.6001,1.752731981,1,5,0,1,1,3,1,,,,,,,,,,,,,,
,,,,,,,,,,,right.png,,p,left,5faf66be8dca1e20989ea7f0,2021-10-27_11h28.05.816,arrow_simon_punish,2021.1.2,Win32,60.03121623,,,,,,,,,,,,,,p,1,1.6776,1.916853779,1,5,0,2,2,0,1,,,,,,,,,,,,,,
,,,,,,,,,,,left.png,,w,left,5faf66be8dca1e20989ea7f0,2021-10-27_11h28.05.816,arrow_simon_punish,2021.1.2,Win32,60.03121623,,,,,,,,,,,,,,w,1,1.5285,1.512567097,0,5,0,3,3,2,1,,,,,,,,,,,,,,
,,,,,,,,,,,right.png,,p,right,5faf66be8dca1e20989ea7f0,2021-10-27_11h28.05.816,arrow_simon_punish,2021.1.2,Win32,60.03121623,,,,,,,,,,,,,,p,1,1.5626,2.118146934,0,5,1,0,4,1,1,,,,,,,,,,,,,,
,,,,,,,,,,,left.png,,w,right,5faf66be8dca1e20989ea7f0,2021-10-27_11h28.05.816,arrow_simon_punish,2021.1.2,Win32,60.03121623,,,,,,,,,,,,,,p,0,1.6275,2.271204387,1,5,1,1,5,3,1,,,,,,,,,,,,,,
,,,,,,,,,,,left.png,,w,right,5faf66be8dca1e20989ea7f0,2021-10-27_11h28.05.816,arrow_simon_punish,2021.1.2,Win32,60.03121623,,,,,,,,,,,,,,p,0,1.7001,1.966033404,1,5,1,2,6,3,1,,,,,,,,,,,,,,
,,,,,,,,,,,left.png,,w,left,5faf66be8dca1e20989ea7f0,2021-10-27_11h28.05.816,arrow_simon_punish,2021.1.2,Win32,60.03121623,,,,,,,,,,,,,,w,1,1.5668,1.552194647,0,5,1,3,7,2,1,,,,,,,,,,,,,,
,,,,,,,,,,,right.png,,p,right,5faf66be8dca1e20989ea7f0,2021-10-27_11h28.05.816,arrow_simon_punish,2021.1.2,Win32,60.03121623,,,,,,,,,,,,,,w,0,1.5335,1.579573965,1,5,2,0,8,1,1,,,,,,,,,,,,,,
,,,,,,,,,,,right.png,,p,left,5faf66be8dca1e20989ea7f0,2021-10-27_11h28.05.816,arrow_simon_punish,2021.1.2,Win32,60.03121623,,,,,,,,,,,,,,w,0,1.51,2.274548337,1,5,2,1,9,0,1,,,,,,,,,,,,,,
,,,,,,,,,,,right.png,,p,left,5faf66be8dca1e20989ea7f0,2021-10-27_11h28.05.816,arrow_simon_punish,2021.1.2,Win32,60.03121623,,,,,,,,,,,,,,p,1,1.4727,2.21286808,0,5,2,2,10,0,1,,,,,,,,,,,,,,
,,,,,,,,,,,right.png,,p,right,5faf66be8dca1e20989ea7f0,2021-10-27_11h28.05.816,arrow_simon_punish,2021.1.2,Win32,60.03121623,,,,,,,,,,,,,,p,1,1.4128,2.167204561,0,5,2,3,11,1,1,,,,,,,,,,,,,,
,,,,,,,,,,,right.png,,p,right,5faf66be8dca1e20989ea7f0,2021-10-27_11h28.05.816,arrow_simon_punish,2021.1.2,Win32,60.03121623,,,,,,,,,,,,,,w,0,1.6113,1.624514003,1,5,3,0,12,1,1,,,,,,,,,,,,,,
,,,,,,,,,,,left.png,,w,left,5faf66be8dca1e20989ea7f0,2021-10-27_11h28.05.816,arrow_simon_punish,2021.1.2,Win32,60.03121623,,,,,,,,,,,,,,p,0,1.5541,1.993627383,1,5,3,1,13,2,1,,,,,,,,,,,,,,
,,,,,,,,,,,right.png,,p,right,5faf66be8dca1e20989ea7f0,2021-10-27_11h28.05.816,arrow_simon_punish,2021.1.2,Win32,60.03121623,,,,,,,,,,,,,,p,1,1.5709,1.759487437,0,5,3,2,14,1,1,,,,,,,,,,,,,,
,,,,,,,,,,,left.png,,w,left,5faf66be8dca1e20989ea7f0,2021-10-27_11h28.05.816,arrow_simon_punish,2021.1.2,Win32,60.03121623,,,,,,,,,,,,,,w,1,1.5946,1.663049699,0,5,3,3,15,2,1,,,,,,,,,,,,,,
,,,,,,,,,,,right.png,,p,left,5faf66be8dca1e20989ea7f0,2021-10-27_11h28.05.816,arrow_simon_punish,2021.1.2,Win32,60.03121623,,,,,,,,,,,,,,p,1,1.586,2.166018542,0,5,4,0,16,0,1,,,,,,,,,,,,,,
,,,,,,,,,,,left.png,,w,left,5faf66be8dca1e20989ea7f0,2021-10-27_11h28.05.816,arrow_simon_punish,2021.1.2,Win32,60.03121623,,,,,,,,,,,,,,p,0,1.4668,2.354527631,1,5,4,1,17,2,1,,,,,,,,,,,,,,
,,,,,,,,,,,left.png,,w,left,5faf66be8dca1e20989ea7f0,2021-10-27_11h28.05.816,arrow_simon_punish,2021.1.2,Win32,60.03121623,,,,,,,,,,,,,,p,0,1.5413,2.10137038,1,5,4,2,18,2,1,,,,,,,,,,,,,,
,,,,,,,,,,,right.png,,p,right,5faf66be8dca1e20989ea7f0,2021-10-27_11h28.05.816,arrow_simon_punish,2021.1.2,Win32,60.03121623,,,,,,,,,,,,,,p,1,1.5747,1.697840572,0,5,4,3,19,1,1,,,,,,,,,,,,,,
,,,,,,,,,,,right.png,,p,left,5faf66be8dca1e20989ea7f0,2021-10-27_11h28.05.816,arrow_simon_punish,2021.1.2,Win32,60.03121623,,,,,,,,,,,,,,p,1,1.551,1.922791255,0,5,5,0,20,0,1,,,,,,,,,,,,,,
,,,,,,,,,,,left.png,,w,left,5faf66be8dca1e20989ea7f0,2021-10-27_11h28.05.816,arrow_simon_punish,2021.1.2,Win32,60.03121623,,,,,,,,,,,,,,p,0,1.5835,2.160504518,1,5,5,1,21,2,1,,,,,,,,,,,,,,
,,,,,,,,,,,left.png,,w,left,5faf66be8dca1e20989ea7f0,2021-10-27_11h28.05.816,arrow_simon_punish,2021.1.2,Win32,60.03121623,,,,,,,,,,,,,,p,0,1.6386,2.063612697,1,5,5,2,22,2,1,,,,,,,,,,,,,,
,,,,,,,,,,,left.png,,w,right,5faf66be8dca1e20989ea7f0,2021-10-27_11h28.05.816,arrow_simon_punish,2021.1.2,Win32,60.03121623,,,,,,,,,,,,,,p,0,1.5715,2.49468939,1,5,5,3,23,3,1,,,,,,,,,,,,,,
,,,,,,,,,,,left.png,,w,left,5faf66be8dca1e20989ea7f0,2021-10-27_11h28.05.816,arrow_simon_punish,2021.1.2,Win32,60.03121623,,,,,,,,,,,,,,p,0,1.5473,1.906990049,1,5,6,0,24,2,1,,,,,,,,,,,,,,
,,,,,,,,,,,right.png,,p,left,5faf66be8dca1e20989ea7f0,2021-10-27_11h28.05.816,arrow_simon_punish,2021.1.2,Win32,60.03121623,,,,,,,,,,,,,,p,1,1.5566,1.981030939,0,5,6,1,25,0,1,,,,,,,,,,,,,,
,,,,,,,,,,,right.png,,p,left,5faf66be8dca1e20989ea7f0,2021-10-27_11h28.05.816,arrow_simon_punish,2021.1.2,Win32,60.03121623,,,,,,,,,,,,,,p,1,1.6534,1.733131694,1,5,6,2,26,0,1,,,,,,,,,,,,,,
,,,,,,,,,,,right.png,,p,right,5faf66be8dca1e20989ea7f0,2021-10-27_11h28.05.816,arrow_simon_punish,2021.1.2,Win32,60.03121623,,,,,,,,,,,,,,p,1,1.4899,1.996155926,0,5,6,3,27,1,1,,,,,,,,,,,,,,
,,,,,,,,,,,left.png,,w,left,5faf66be8dca1e20989ea7f0,2021-10-27_11h28.05.816,arrow_simon_punish,2021.1.2,Win32,60.03121623,,,,,,,,,,,,,,p,0,1.6131,2.388148023,1,5,7,0,28,2,1,,,,,,,,,,,,,,
,,,,,,,,,,,left.png,,w,right,5faf66be8dca1e20989ea7f0,2021-10-27_11h28.05.816,arrow_simon_punish,2021.1.2,Win32,60.03121623,,,,,,,,,,,,,,w,1,1.6042,1.900230426,1,5,7,1,29,3,1,,,,,,,,,,,,,,
,,,,,,,,,,,left.png,,w,right,5faf66be8dca1e20989ea7f0,2021-10-27_11h28.05.816,arrow_simon_punish,2021.1.2,Win32,60.03121623,,,,,,,,,,,,,,w,1,1.6027,1.989931951,1,5,7,2,30,3,1,,,,,,,,,,,,,,
,,,,,,,,,,,right.png,,p,right,5faf66be8dca1e20989ea7f0,2021-10-27_11h28.05.816,arrow_simon_punish,2021.1.2,Win32,60.03121623,,,,,,,,,,,,,,w,0,1.5692,1.976427926,1,5,7,3,31,1,1,,,,,,,,,,,,,,
,,,,,,,,,,,left.png,,w,right,5faf66be8dca1e20989ea7f0,2021-10-27_11h28.05.816,arrow_simon_punish,2021.1.2,Win32,60.03121623,,,,,,,,,,,,,,p,0,1.4835,2.437256944,1,5,8,0,32,3,1,,,,,,,,,,,,,,
,,,,,,,,,,,right.png,,p,left,5faf66be8dca1e20989ea7f0,2021-10-27_11h28.05.816,arrow_simon_punish,2021.1.2,Win32,60.03121623,,,,,,,,,,,,,,w,0,1.5726,1.720128607,1,5,8,1,33,0,1,,,,,,,,,,,,,,
,,,,,,,,,,,left.png,,w,left,5faf66be8dca1e20989ea7f0,2021-10-27_11h28.05.816,arrow_simon_punish,2021.1.2,Win32,60.03121623,,,,,,,,,,,,,,p,0,1.5667,1.890966046,1,5,8,2,34,2,1,,,,,,,,,,,,,,
,,,,,,,,,,,right.png,,p,right,5faf66be8dca1e20989ea7f0,2021-10-27_11h28.05.816,arrow_simon_punish,2021.1.2,Win32,60.03121623,,,,,,,,,,,,,,w,0,1.5729,1.857940884,1,5,8,3,35,1,1,,,,,,,,,,,,,,
,,,,,,,,,,,left.png,,w,right,5faf66be8dca1e20989ea7f0,2021-10-27_11h28.05.816,arrow_simon_punish,2021.1.2,Win32,60.03121623,,,,,,,,,,,,,,p,0,1.5966,2.055230634,1,5,9,0,36,3,1,,,,,,,,,,,,,,
,,,,,,,,,,,left.png,,w,left,5faf66be8dca1e20989ea7f0,2021-10-27_11h28.05.816,arrow_simon_punish,2021.1.2,Win32,60.03121623,,,,,,,,,,,,,,p,0,1.5502,2.458320248,1,5,9,1,37,2,1,,,,,,,,,,,,,,
,,,,,,,,,,,right.png,,p,right,5faf66be8dca1e20989ea7f0,2021-10-27_11h28.05.816,arrow_simon_punish,2021.1.2,Win32,60.03121623,,,,,,,,,,,,,,p,1,1.4447,2.04912633,0,5,9,2,38,1,1,,,,,,,,,,,,,,
,,,,,,,,,,,right.png,,p,right,5faf66be8dca1e20989ea7f0,2021-10-27_11h28.05.816,arrow_simon_punish,2021.1.2,Win32,60.03121623,,,,,,,,,,,,,,w,0,1.6099,1.753710202,1,5,9,3,39,1,1,,,,,,,,,,,,,,
,,,,,,,,,,,right.png,,p,left,5faf66be8dca1e20989ea7f0,2021-10-27_11h28.05.816,arrow_simon_punish,2021.1.2,Win32,60.03121623,,,,,,,,,,,,,,w,0,1.6086,1.535732314,1,5,10,0,40,0,1,,,,,,,,,,,,,,
,,,,,,,,,,,right.png,,p,left,5faf66be8dca1e20989ea7f0,2021-10-27_11h28.05.816,arrow_simon_punish,2021.1.2,Win32,60.03121623,,,,,,,,,,,,,,p,1,1.5594,1.593308618,0,5,10,1,41,0,1,,,,,,,,,,,,,,
,,,,,,,,,,,right.png,,p,left,5faf66be8dca1e20989ea7f0,2021-10-27_11h28.05.816,arrow_simon_punish,2021.1.2,Win32,60.03121623,,,,,,,,,,,,,,w,0,1.5359,1.780121162,1,5,10,2,42,0,1,,,,,,,,,,,,,,
,,,,,,,,,,,right.png,,p,right,5faf66be8dca1e20989ea7f0,2021-10-27_11h28.05.816,arrow_simon_punish,2021.1.2,Win32,60.03121623,,,,,,,,,,,,,,p,1,1.4413,2.209976882,0,5,10,3,43,1,1,,,,,,,,,,,,,,
,,,,,,,,,,,right.png,,p,right,5faf66be8dca1e20989ea7f0,2021-10-27_11h28.05.816,arrow_simon_punish,2021.1.2,Win32,60.03121623,,,,,,,,,,,,,,w,0,1.3834,2.437970127,1,5,11,0,44,1,1,,,,,,,,,,,,,,
,,,,,,,,,,,right.png,,p,left,5faf66be8dca1e20989ea7f0,2021-10-27_11h28.05.816,arrow_simon_punish,2021.1.2,Win32,60.03121623,,,,,,,,,,,,,,p,1,1.6219,1.650552952,1,5,11,1,45,0,1,,,,,,,,,,,,,,
,,,,,,,,,,,left.png,,w,left,5faf66be8dca1e20989ea7f0,2021-10-27_11h28.05.816,arrow_simon_punish,2021.1.2,Win32,60.03121623,,,,,,,,,,,,,,w,1,1.5719,2.012081121,0,5,11,2,46,2,1,,,,,,,,,,,,,,
,,,,,,,,,,,left.png,,w,right,5faf66be8dca1e20989ea7f0,2021-10-27_11h28.05.816,arrow_simon_punish,2021.1.2,Win32,60.03121623,,,,,,,,,,,,,,w,1,1.6041,2.117223119,1,5,11,3,47,3,1,,,,,,,,,,,,,,
,,,,,,,,,,,right.png,,p,right,5faf66be8dca1e20989ea7f0,2021-10-27_11h28.05.816,arrow_simon_punish,2021.1.2,Win32,60.03121623,,,,,,,,,,,,,,p,1,1.4505,1.754099403,0,5,12,0,48,1,1,,,,,,,,,,,,,,
,,,,,,,,,,,left.png,,w,right,5faf66be8dca1e20989ea7f0,2021-10-27_11h28.05.816,arrow_simon_punish,2021.1.2,Win32,60.03121623,,,,,,,,,,,,,,w,1,1.5592,2.179797534,0,5,12,1,49,3,1,,,,,,,,,,,,,,
,,,,,,,,,,,right.png,,p,left,5faf66be8dca1e20989ea7f0,2021-10-27_11h28.05.816,arrow_simon_punish,2021.1.2,Win32,60.03121623,,,,,,,,,,,,,,w,0,1.5362,2.303325489,1,5,12,2,50,0,1,,,,,,,,,,,,,,
,,,,,,,,,,,left.png,,w,left,5faf66be8dca1e20989ea7f0,2021-10-27_11h28.05.816,arrow_simon_punish,2021.1.2,Win32,60.03121623,,,,,,,,,,,,,,w,1,1.4173,2.356059308,0,5,12,3,51,2,1,,,,,,,,,,,,,,
,,,,,,,,,,,right.png,,p,right,5faf66be8dca1e20989ea7f0,2021-10-27_11h28.05.816,arrow_simon_punish,2021.1.2,Win32,60.03121623,,,,,,,,,,,,,,w,0,1.5272,1.934181159,1,5,13,0,52,1,1,,,,,,,,,,,,,,
,,,,,,,,,,,right.png,,p,left,5faf66be8dca1e20989ea7f0,2021-10-27_11h28.05.816,arrow_simon_punish,2021.1.2,Win32,60.03121623,,,,,,,,,,,,,,w,0,1.6094,1.795515519,1,5,13,1,53,0,1,,,,,,,,,,,,,,
,,,,,,,,,,,left.png,,w,right,5faf66be8dca1e20989ea7f0,2021-10-27_11h28.05.816,arrow_simon_punish,2021.1.2,Win32,60.03121623,,,,,,,,,,,,,,w,1,1.4719,1.802417503,0,5,13,2,54,3,1,,,,,,,,,,,,,,
,,,,,,,,,,,right.png,,p,left,5faf66be8dca1e20989ea7f0,2021-10-27_11h28.05.816,arrow_simon_punish,2021.1.2,Win32,60.03121623,,,,,,,,,,,,,,p,1,1.3798,2.444621738,1,5,13,3,55,0,1,,,,,,,,,,,,,,
,,,,,,,,,,,left.png,,w,right,5faf66be8dca1e20989ea7f0,2021-10-27_11h28.05.816,arrow_simon_punish,2021.1.2,Win32,60.03121623,,,,,,,,,,,,,,w,1,1.4202,1.78222375,0,5,14,0,56,3,1,,,,,,,,,,,,,,
,,,,,,,,,,,left.png,,w,right,5faf66be8dca1e20989ea7f0,2021-10-27_11h28.05.816,arrow_simon_punish,2021.1.2,Win32,60.03121623,,,,,,,,,,,,,,w,1,1.3699,2.314557796,1,5,14,1,57,3,1,,,,,,,,,,,,,,
,,,,,,,,,,,left.png,,w,right,5faf66be8dca1e20989ea7f0,2021-10-27_11h28.05.816,arrow_simon_punish,2021.1.2,Win32,60.03121623,,,,,,,,,,,,,,p,0,1.4578,2.213676371,1,5,14,2,58,3,1,,,,,,,,,,,,,,
,,,,,,,,,,,left.png,,w,left,5faf66be8dca1e20989ea7f0,2021-10-27_11h28.05.816,arrow_simon_punish,2021.1.2,Win32,60.03121623,,,,,,,,,,,,,,p,0,1.4468,2.227360189,1,5,14,3,59,2,1,,,,,,,,,,,,,,
,,,,,,,,,,,,,,,5faf66be8dca1e20989ea7f0,2021-10-27_11h28.05.816,arrow_simon_punish,2021.1.2,Win32,60.03121623,,,,,,,,,,,,,,,,,,,,,,,,,space,135.4575,3,0,1,1,1,1,5,,,,,
,,,,,,,,,,,right.png,,p,left,5faf66be8dca1e20989ea7f0,2021-10-27_11h28.05.816,arrow_simon_punish,2021.1.2,Win32,60.03121623,,,,,,,,,,,,,,p,1,1.5924,2.152916077,0,1,0,0,0,0,1,,,,,,,,,,,,,,
,,,,,,,,,,,right.png,,p,left,5faf66be8dca1e20989ea7f0,2021-10-27_11h28.05.816,arrow_simon_punish,2021.1.2,Win32,60.03121623,,,,,,,,,,,,,,p,1,1.5918,1.972257467,0,1,0,1,1,0,1,,,,,,,,,,,,,,
,,,,,,,,,,,right.png,,p,left,5faf66be8dca1e20989ea7f0,2021-10-27_11h28.05.816,arrow_simon_punish,2021.1.2,Win32,60.03121623,,,,,,,,,,,,,,p,1,1.4789,2.317592948,0,1,0,2,2,0,1,,,,,,,,,,,,,,
,,,,,,,,,,,right.png,,p,right,5faf66be8dca1e20989ea7f0,2021-10-27_11h28.05.816,arrow_simon_punish,2021.1.2,Win32,60.03121623,,,,,,,,,,,,,,w,0,1.5387,2.328727115,1,1,0,3,3,1,1,,,,,,,,,,,,,,
,,,,,,,,,,,right.png,,p,right,5faf66be8dca1e20989ea7f0,2021-10-27_11h28.05.816,arrow_simon_punish,2021.1.2,Win32,60.03121623,,,,,,,,,,,,,,p,1,1.4918,2.25423048,0,1,1,0,4,1,1,,,,,,,,,,,,,,
,,,,,,,,,,,right.png,,p,left,5faf66be8dca1e20989ea7f0,2021-10-27_11h28.05.816,arrow_simon_punish,2021.1.2,Win32,60.03121623,,,,,,,,,,,,,,p,1,1.6334,1.590563637,1,1,1,1,5,0,1,,,,,,,,,,,,,,
,,,,,,,,,,,right.png,,p,right,5faf66be8dca1e20989ea7f0,2021-10-27_11h28.05.816,arrow_simon_punish,2021.1.2,Win32,60.03121623,,,,,,,,,,,,,,w,0,1.6447,2.220303789,1,1,1,2,6,1,1,,,,,,,,,,,,,,
,,,,,,,,,,,right.png,,p,left,5faf66be8dca1e20989ea7f0,2021-10-27_11h28.05.816,arrow_simon_punish,2021.1.2,Win32,60.03121623,,,,,,,,,,,,,,p,1,1.5002,2.298536053,0,1,1,3,7,0,1,,,,,,,,,,,,,,
,,,,,,,,,,,left.png,,w,left,5faf66be8dca1e20989ea7f0,2021-10-27_11h28.05.816,arrow_simon_punish,2021.1.2,Win32,60.03121623,,,,,,,,,,,,,,p,0,1.5336,2.097057928,1,1,2,0,8,2,1,,,,,,,,,,,,,,
,,,,,,,,,,,left.png,,w,right,5faf66be8dca1e20989ea7f0,2021-10-27_11h28.05.816,arrow_simon_punish,2021.1.2,Win32,60.03121623,,,,,,,,,,,,,,p,0,1.614,2.357689442,1,1,2,1,9,3,1,,,,,,,,,,,,,,
,,,,,,,,,,,right.png,,p,right,5faf66be8dca1e20989ea7f0,2021-10-27_11h28.05.816,arrow_simon_punish,2021.1.2,Win32,60.03121623,,,,,,,,,,,,,,w,0,1.4764,1.854781575,1,1,2,2,10,1,1,,,,,,,,,,,,,,
,,,,,,,,,,,right.png,,p,right,5faf66be8dca1e20989ea7f0,2021-10-27_11h28.05.816,arrow_simon_punish,2021.1.2,Win32,60.03121623,,,,,,,,,,,,,,p,1,1.4556,2.254241362,0,1,2,3,11,1,1,,,,,,,,,,,,,,
,,,,,,,,,,,left.png,,w,right,5faf66be8dca1e20989ea7f0,2021-10-27_11h28.05.816,arrow_simon_punish,2021.1.2,Win32,60.03121623,,,,,,,,,,,,,,p,0,1.6526,1.940318124,1,1,3,0,12,3,1,,,,,,,,,,,,,,
,,,,,,,,,,,left.png,,w,left,5faf66be8dca1e20989ea7f0,2021-10-27_11h28.05.816,arrow_simon_punish,2021.1.2,Win32,60.03121623,,,,,,,,,,,,,,p,0,1.5851,2.106585978,1,1,3,1,13,2,1,,,,,,,,,,,,,,
,,,,,,,,,,,left.png,,w,right,5faf66be8dca1e20989ea7f0,2021-10-27_11h28.05.816,arrow_simon_punish,2021.1.2,Win32,60.03121623,,,,,,,,,,,,,,p,0,1.5043,2.26729468,1,1,3,2,14,3,1,,,,,,,,,,,,,,
,,,,,,,,,,,right.png,,p,right,5faf66be8dca1e20989ea7f0,2021-10-27_11h28.05.816,arrow_simon_punish,2021.1.2,Win32,60.03121623,,,,,,,,,,,,,,p,1,1.5393,1.89824434,0,1,3,3,15,1,1,,,,,,,,,,,,,,
,,,,,,,,,,,left.png,,w,left,5faf66be8dca1e20989ea7f0,2021-10-27_11h28.05.816,arrow_simon_punish,2021.1.2,Win32,60.03121623,,,,,,,,,,,,,,p,0,1.8124,1.601928158,1,1,4,0,16,2,1,,,,,,,,,,,,,,
,,,,,,,,,,,right.png,,p,right,5faf66be8dca1e20989ea7f0,2021-10-27_11h28.05.816,arrow_simon_punish,2021.1.2,Win32,60.03121623,,,,,,,,,,,,,,p,1,1.5711,1.840531312,0,1,4,1,17,1,1,,,,,,,,,,,,,,
,,,,,,,,,,,left.png,,w,right,5faf66be8dca1e20989ea7f0,2021-10-27_11h28.05.816,arrow_simon_punish,2021.1.2,Win32,60.03121623,,,,,,,,,,,,,,p,0,1.7074,2.091051052,1,1,4,2,18,3,1,,,,,,,,,,,,,,
,,,,,,,,,,,right.png,,p,right,5faf66be8dca1e20989ea7f0,2021-10-27_11h28.05.816,arrow_simon_punish,2021.1.2,Win32,60.03121623,,,,,,,,,,,,,,p,1,1.2616,1.922991482,1,1,4,3,19,1,1,,,,,,,,,,,,,,
,,,,,,,,,,,right.png,,p,left,5faf66be8dca1e20989ea7f0,2021-10-27_11h28.05.816,arrow_simon_punish,2021.1.2,Win32,60.03121623,,,,,,,,,,,,,,p,1,1.5783,2.142345829,0,1,5,0,20,0,1,,,,,,,,,,,,,,
,,,,,,,,,,,right.png,,p,left,5faf66be8dca1e20989ea7f0,2021-10-27_11h28.05.816,arrow_simon_punish,2021.1.2,Win32,60.03121623,,,,,,,,,,,,,,p,1,1.5626,1.966494445,0,1,5,1,21,0,1,,,,,,,,,,,,,,
,,,,,,,,,,,left.png,,w,left,5faf66be8dca1e20989ea7f0,2021-10-27_11h28.05.816,arrow_simon_punish,2021.1.2,Win32,60.03121623,,,,,,,,,,,,,,p,0,1.5871,1.931510374,1,1,5,2,22,2,1,,,,,,,,,,,,,,
,,,,,,,,,,,left.png,,w,left,5faf66be8dca1e20989ea7f0,2021-10-27_11h28.05.816,arrow_simon_punish,2021.1.2,Win32,60.03121623,,,,,,,,,,,,,,p,0,1.1384,2.464134358,1,1,5,3,23,2,1,,,,,,,,,,,,,,
,,,,,,,,,,,left.png,,w,left,5faf66be8dca1e20989ea7f0,2021-10-27_11h28.05.816,arrow_simon_punish,2021.1.2,Win32,60.03121623,,,,,,,,,,,,,,w,1,1.62,2.166778287,1,1,6,0,24,2,1,,,,,,,,,,,,,,
,,,,,,,,,,,left.png,,w,right,5faf66be8dca1e20989ea7f0,2021-10-27_11h28.05.816,arrow_simon_punish,2021.1.2,Win32,60.03121623,,,,,,,,,,,,,,p,0,1.6177,2.183547847,1,1,6,1,25,3,1,,,,,,,,,,,,,,
,,,,,,,,,,,left.png,,w,right,5faf66be8dca1e20989ea7f0,2021-10-27_11h28.05.816,arrow_simon_punish,2021.1.2,Win32,60.03121623,,,,,,,,,,,,,,w,1,1.4878,2.294604543,0,1,6,2,26,3,1,,,,,,,,,,,,,,
,,,,,,,,,,,right.png,,p,right,5faf66be8dca1e20989ea7f0,2021-10-27_11h28.05.816,arrow_simon_punish,2021.1.2,Win32,60.03121623,,,,,,,,,,,,,,p,1,1.5792,2.087965014,0,1,6,3,27,1,1,,,,,,,,,,,,,,
,,,,,,,,,,,left.png,,w,right,5faf66be8dca1e20989ea7f0,2021-10-27_11h28.05.816,arrow_simon_punish,2021.1.2,Win32,60.03121623,,,,,,,,,,,,,,p,0,1.5471,1.505075114,1,1,7,0,28,3,1,,,,,,,,,,,,,,
,,,,,,,,,,,right.png,,p,right,5faf66be8dca1e20989ea7f0,2021-10-27_11h28.05.816,arrow_simon_punish,2021.1.2,Win32,60.03121623,,,,,,,,,,,,,,p,1,1.5335,1.859370119,0,1,7,1,29,1,1,,,,,,,,,,,,,,
,,,,,,,,,,,right.png,,p,right,5faf66be8dca1e20989ea7f0,2021-10-27_11h28.05.816,arrow_simon_punish,2021.1.2,Win32,60.03121623,,,,,,,,,,,,,,p,1,1.5259,2.22372183,0,1,7,2,30,1,1,,,,,,,,,,,,,,
,,,,,,,,,,,left.png,,w,right,5faf66be8dca1e20989ea7f0,2021-10-27_11h28.05.816,arrow_simon_punish,2021.1.2,Win32,60.03121623,,,,,,,,,,,,,,p,0,1.4637,2.406585369,1,1,7,3,31,3,1,,,,,,,,,,,,,,
,,,,,,,,,,,left.png,,w,left,5faf66be8dca1e20989ea7f0,2021-10-27_11h28.05.816,arrow_simon_punish,2021.1.2,Win32,60.03121623,,,,,,,,,,,,,,p,0,1.4843,2.313829538,1,1,8,0,32,2,1,,,,,,,,,,,,,,
,,,,,,,,,,,left.png,,w,left,5faf66be8dca1e20989ea7f0,2021-10-27_11h28.05.816,arrow_simon_punish,2021.1.2,Win32,60.03121623,,,,,,,,,,,,,,p,0,1.4878,1.8599357,1,1,8,1,33,2,1,,,,,,,,,,,,,,
,,,,,,,,,,,right.png,,p,right,5faf66be8dca1e20989ea7f0,2021-10-27_11h28.05.816,arrow_simon_punish,2021.1.2,Win32,60.03121623,,,,,,,,,,,,,,p,1,1.5709,2.098484805,0,1,8,2,34,1,1,,,,,,,,,,,,,,
,,,,,,,,,,,left.png,,w,right,5faf66be8dca1e20989ea7f0,2021-10-27_11h28.05.816,arrow_simon_punish,2021.1.2,Win32,60.03121623,,,,,,,,,,,,,,p,0,1.507,2.075288307,1,1,8,3,35,3,1,,,,,,,,,,,,,,
,,,,,,,,,,,left.png,,w,left,5faf66be8dca1e20989ea7f0,2021-10-27_11h28.05.816,arrow_simon_punish,2021.1.2,Win32,60.03121623,,,,,,,,,,,,,,w,1,1.4299,2.379191153,0,1,9,0,36,2,1,,,,,,,,,,,,,,
,,,,,,,,,,,left.png,,w,right,5faf66be8dca1e20989ea7f0,2021-10-27_11h28.05.816,arrow_simon_punish,2021.1.2,Win32,60.03121623,,,,,,,,,,,,,,w,1,1.3957,1.970979656,1,1,9,1,37,3,1,,,,,,,,,,,,,,
,,,,,,,,,,,left.png,,w,right,5faf66be8dca1e20989ea7f0,2021-10-27_11h28.05.816,arrow_simon_punish,2021.1.2,Win32,60.03121623,,,,,,,,,,,,,,w,1,1.4671,2.303527613,0,1,9,2,38,3,1,,,,,,,,,,,,,,
,,,,,,,,,,,left.png,,w,right,5faf66be8dca1e20989ea7f0,2021-10-27_11h28.05.816,arrow_simon_punish,2021.1.2,Win32,60.03121623,,,,,,,,,,,,,,p,0,1.4837,2.478930872,1,1,9,3,39,3,1,,,,,,,,,,,,,,
,,,,,,,,,,,right.png,,p,left,5faf66be8dca1e20989ea7f0,2021-10-27_11h28.05.816,arrow_simon_punish,2021.1.2,Win32,60.03121623,,,,,,,,,,,,,,p,1,1.451,2.311104414,0,1,10,0,40,0,1,,,,,,,,,,,,,,
,,,,,,,,,,,right.png,,p,left,5faf66be8dca1e20989ea7f0,2021-10-27_11h28.05.816,arrow_simon_punish,2021.1.2,Win32,60.03121623,,,,,,,,,,,,,,p,1,1.5117,2.139717215,0,1,10,1,41,0,1,,,,,,,,,,,,,,
,,,,,,,,,,,left.png,,w,left,5faf66be8dca1e20989ea7f0,2021-10-27_11h28.05.816,arrow_simon_punish,2021.1.2,Win32,60.03121623,,,,,,,,,,,,,,w,1,1.4588,1.514828354,0,1,10,2,42,2,1,,,,,,,,,,,,,,
,,,,,,,,,,,left.png,,w,right,5faf66be8dca1e20989ea7f0,2021-10-27_11h28.05.816,arrow_simon_punish,2021.1.2,Win32,60.03121623,,,,,,,,,,,,,,p,0,1.4709,2.056921975,1,1,10,3,43,3,1,,,,,,,,,,,,,,
,,,,,,,,,,,left.png,,w,left,5faf66be8dca1e20989ea7f0,2021-10-27_11h28.05.816,arrow_simon_punish,2021.1.2,Win32,60.03121623,,,,,,,,,,,,,,p,0,1.4911,2.02754851,1,1,11,0,44,2,1,,,,,,,,,,,,,,
,,,,,,,,,,,right.png,,p,left,5faf66be8dca1e20989ea7f0,2021-10-27_11h28.05.816,arrow_simon_punish,2021.1.2,Win32,60.03121623,,,,,,,,,,,,,,p,1,1.5267,1.715468891,0,1,11,1,45,0,1,,,,,,,,,,,,,,
,,,,,,,,,,,right.png,,p,right,5faf66be8dca1e20989ea7f0,2021-10-27_11h28.05.816,arrow_simon_punish,2021.1.2,Win32,60.03121623,,,,,,,,,,,,,,p,1,1.4335,2.251059293,0,1,11,2,46,1,1,,,,,,,,,,,,,,
,,,,,,,,,,,right.png,,p,right,5faf66be8dca1e20989ea7f0,2021-10-27_11h28.05.816,arrow_simon_punish,2021.1.2,Win32,60.03121623,,,,,,,,,,,,,,p,1,1.4457,2.099034331,0,1,11,3,47,1,1,,,,,,,,,,,,,,
,,,,,,,,,,,right.png,,p,left,5faf66be8dca1e20989ea7f0,2021-10-27_11h28.05.816,arrow_simon_punish,2021.1.2,Win32,60.03121623,,,,,,,,,,,,,,w,0,1.5234,1.913842018,1,1,12,0,48,0,1,,,,,,,,,,,,,,
,,,,,,,,,,,left.png,,w,left,5faf66be8dca1e20989ea7f0,2021-10-27_11h28.05.816,arrow_simon_punish,2021.1.2,Win32,60.03121623,,,,,,,,,,,,,,p,0,1.4924,1.651387643,1,1,12,1,49,2,1,,,,,,,,,,,,,,
,,,,,,,,,,,left.png,,w,right,5faf66be8dca1e20989ea7f0,2021-10-27_11h28.05.816,arrow_simon_punish,2021.1.2,Win32,60.03121623,,,,,,,,,,,,,,p,0,1.5356,1.66767783,1,1,12,2,50,3,1,,,,,,,,,,,,,,
,,,,,,,,,,,left.png,,w,right,5faf66be8dca1e20989ea7f0,2021-10-27_11h28.05.816,arrow_simon_punish,2021.1.2,Win32,60.03121623,,,,,,,,,,,,,,p,0,1.5292,2.405886694,1,1,12,3,51,3,1,,,,,,,,,,,,,,
,,,,,,,,,,,right.png,,p,left,5faf66be8dca1e20989ea7f0,2021-10-27_11h28.05.816,arrow_simon_punish,2021.1.2,Win32,60.03121623,,,,,,,,,,,,,,p,1,1.4749,2.193631063,0,1,13,0,52,0,1,,,,,,,,,,,,,,
,,,,,,,,,,,left.png,,w,left,5faf66be8dca1e20989ea7f0,2021-10-27_11h28.05.816,arrow_simon_punish,2021.1.2,Win32,60.03121623,,,,,,,,,,,,,,p,0,1.439,2.182375823,1,1,13,1,53,2,1,,,,,,,,,,,,,,
,,,,,,,,,,,left.png,,w,left,5faf66be8dca1e20989ea7f0,2021-10-27_11h28.05.816,arrow_simon_punish,2021.1.2,Win32,60.03121623,,,,,,,,,,,,,,p,0,1.4836,2.468152124,1,1,13,2,54,2,1,,,,,,,,,,,,,,
,,,,,,,,,,,right.png,,p,left,5faf66be8dca1e20989ea7f0,2021-10-27_11h28.05.816,arrow_simon_punish,2021.1.2,Win32,60.03121623,,,,,,,,,,,,,,p,1,1.6403,1.751549762,1,1,13,3,55,0,1,,,,,,,,,,,,,,
,,,,,,,,,,,right.png,,p,right,5faf66be8dca1e20989ea7f0,2021-10-27_11h28.05.816,arrow_simon_punish,2021.1.2,Win32,60.03121623,,,,,,,,,,,,,,p,1,1.4216,1.899262374,0,1,14,0,56,1,1,,,,,,,,,,,,,,
,,,,,,,,,,,right.png,,p,left,5faf66be8dca1e20989ea7f0,2021-10-27_11h28.05.816,arrow_simon_punish,2021.1.2,Win32,60.03121623,,,,,,,,,,,,,,p,1,1.4919,1.583796335,0,1,14,1,57,0,1,,,,,,,,,,,,,,
,,,,,,,,,,,left.png,,w,left,5faf66be8dca1e20989ea7f0,2021-10-27_11h28.05.816,arrow_simon_punish,2021.1.2,Win32,60.03121623,,,,,,,,,,,,,,p,0,1.487,2.322111953,1,1,14,2,58,2,1,,,,,,,,,,,,,,
,,,,,,,,,,,right.png,,p,left,5faf66be8dca1e20989ea7f0,2021-10-27_11h28.05.816,arrow_simon_punish,2021.1.2,Win32,60.03121623,,,,,,,,,,,,,,p,1,1.6343,1.689369642,1,1,14,3,59,0,1,,,,,,,,,,,,,,
,,,,,,,,,,,,,,,5faf66be8dca1e20989ea7f0,2021-10-27_11h28.05.816,arrow_simon_punish,2021.1.2,Win32,60.03121623,,,,,,,,,,,,,,,,,,,,,,,,,space,131.6932,4,1,0,2,0,1,1,,,,,
,,,,,,,,,,,left.png,,w,right,5faf66be8dca1e20989ea7f0,2021-10-27_11h28.05.816,arrow_simon_punish,2021.1.2,Win32,60.03121623,,,,,,,,,,,,,,p,0,1.5708,1.68153792,1,5,0,0,0,3,1,,,,,,,,,,,,,,
,,,,,,,,,,,left.png,,w,right,5faf66be8dca1e20989ea7f0,2021-10-27_11h28.05.816,arrow_simon_punish,2021.1.2,Win32,60.03121623,,,,,,,,,,,,,,w,1,1.5469,1.958471186,0,5,0,1,1,3,1,,,,,,,,,,,,,,
,,,,,,,,,,,right.png,,p,left,5faf66be8dca1e20989ea7f0,2021-10-27_11h28.05.816,arrow_simon_punish,2021.1.2,Win32,60.03121623,,,,,,,,,,,,,,w,0,1.5962,1.936003706,1,5,0,2,2,0,1,,,,,,,,,,,,,,
,,,,,,,,,,,right.png,,p,right,5faf66be8dca1e20989ea7f0,2021-10-27_11h28.05.816,arrow_simon_punish,2021.1.2,Win32,60.03121623,,,,,,,,,,,,,,p,1,1.5718,1.581536125,0,5,0,3,3,1,1,,,,,,,,,,,,,,
,,,,,,,,,,,right.png,,p,right,5faf66be8dca1e20989ea7f0,2021-10-27_11h28.05.816,arrow_simon_punish,2021.1.2,Win32,60.03121623,,,,,,,,,,,,,,p,1,1.5395,1.866505391,0,5,1,0,4,1,1,,,,,,,,,,,,,,
,,,,,,,,,,,right.png,,p,left,5faf66be8dca1e20989ea7f0,2021-10-27_11h28.05.816,arrow_simon_punish,2021.1.2,Win32,60.03121623,,,,,,,,,,,,,,p,1,1.4448,2.174700817,0,5,1,1,5,0,1,,,,,,,,,,,,,,
,,,,,,,,,,,left.png,,w,left,5faf66be8dca1e20989ea7f0,2021-10-27_11h28.05.816,arrow_simon_punish,2021.1.2,Win32,60.03121623,,,,,,,,,,,,,,w,1,1.5224,1.867582415,0,5,1,2,6,2,1,,,,,,,,,,,,,,
,,,,,,,,,,,left.png,,w,left,5faf66be8dca1e20989ea7f0,2021-10-27_11h28.05.816,arrow_simon_punish,2021.1.2,Win32,60.03121623,,,,,,,,,,,,,,w,1,1.5334,1.89839805,0,5,1,3,7,2,1,,,,,,,,,,,,,,
,,,,,,,,,,,right.png,,p,left,5faf66be8dca1e20989ea7f0,2021-10-27_11h28.05.816,arrow_simon_punish,2021.1.2,Win32,60.03121623,,,,,,,,,,,,,,p,1,1.5256,1.697285033,0,5,2,0,8,0,1,,,,,,,,,,,,,,
,,,,,,,,,,,left.png,,w,right,5faf66be8dca1e20989ea7f0,2021-10-27_11h28.05.816,arrow_simon_punish,2021.1.2,Win32,60.03121623,,,,,,,,,,,,,,p,0,0.1115,1.911320861,1,5,2,1,9,3,1,,,,,,,,,,,,,,
,,,,,,,,,,,left.png,,w,left,5faf66be8dca1e20989ea7f0,2021-10-27_11h28.05.816,arrow_simon_punish,2021.1.2,Win32,60.03121623,,,,,,,,,,,,,,p,0,1.5544,2.187204161,1,5,2,2,10,2,1,,,,,,,,,,,,,,
,,,,,,,,,,,right.png,,p,right,5faf66be8dca1e20989ea7f0,2021-10-27_11h28.05.816,arrow_simon_punish,2021.1.2,Win32,60.03121623,,,,,,,,,,,,,,p,1,1.5389,1.580926564,0,5,2,3,11,1,1,,,,,,,,,,,,,,
,,,,,,,,,,,left.png,,w,left,5faf66be8dca1e20989ea7f0,2021-10-27_11h28.05.816,arrow_simon_punish,2021.1.2,Win32,60.03121623,,,,,,,,,,,,,,p,0,1.4764,2.386801992,1,5,3,0,12,2,1,,,,,,,,,,,,,,
,,,,,,,,,,,left.png,,w,left,5faf66be8dca1e20989ea7f0,2021-10-27_11h28.05.816,arrow_simon_punish,2021.1.2,Win32,60.03121623,,,,,,,,,,,,,,p,0,1.4565,2.298816223,1,5,3,1,13,2,1,,,,,,,,,,,,,,
,,,,,,,,,,,right.png,,p,right,5faf66be8dca1e20989ea7f0,2021-10-27_11h28.05.816,arrow_simon_punish,2021.1.2,Win32,60.03121623,,,,,,,,,,,,,,p,1,1.5409,1.86309713,0,5,3,2,14,1,1,,,,,,,,,,,,,,
,,,,,,,,,,,left.png,,w,left,5faf66be8dca1e20989ea7f0,2021-10-27_11h28.05.816,arrow_simon_punish,2021.1.2,Win32,60.03121623,,,,,,,,,,,,,,p,0,1.5901,1.962426242,1,5,3,3,15,2,1,,,,,,,,,,,,,,
,,,,,,,,,,,left.png,,w,right,5faf66be8dca1e20989ea7f0,2021-10-27_11h28.05.816,arrow_simon_punish,2021.1.2,Win32,60.03121623,,,,,,,,,,,,,,p,0,1.5578,1.951647091,1,5,4,0,16,3,1,,,,,,,,,,,,,,
,,,,,,,,,,,right.png,,p,right,5faf66be8dca1e20989ea7f0,2021-10-27_11h28.05.816,arrow_simon_punish,2021.1.2,Win32,60.03121623,,,,,,,,,,,,,,p,1,1.5421,2.171974956,0,5,4,1,17,1,1,,,,,,,,,,,,,,
,,,,,,,,,,,left.png,,w,left,5faf66be8dca1e20989ea7f0,2021-10-27_11h28.05.816,arrow_simon_punish,2021.1.2,Win32,60.03121623,,,,,,,,,,,,,,p,0,1.5355,1.58797676,1,5,4,2,18,2,1,,,,,,,,,,,,,,
,,,,,,,,,,,right.png,,p,left,5faf66be8dca1e20989ea7f0,2021-10-27_11h28.05.816,arrow_simon_punish,2021.1.2,Win32,60.03121623,,,,,,,,,,,,,,p,1,1.4891,1.909027058,0,5,4,3,19,0,1,,,,,,,,,,,,,,
,,,,,,,,,,,left.png,,w,right,5faf66be8dca1e20989ea7f0,2021-10-27_11h28.05.816,arrow_simon_punish,2021.1.2,Win32,60.03121623,,,,,,,,,,,,,,p,0,1.4841,2.17255501,1,5,5,0,20,3,1,,,,,,,,,,,,,,
,,,,,,,,,,,right.png,,p,left,5faf66be8dca1e20989ea7f0,2021-10-27_11h28.05.816,arrow_simon_punish,2021.1.2,Win32,60.03121623,,,,,,,,,,,,,,p,1,1.4235,2.208694989,0,5,5,1,21,0,1,,,,,,,,,,,,,,
,,,,,,,,,,,right.png,,p,right,5faf66be8dca1e20989ea7f0,2021-10-27_11h28.05.816,arrow_simon_punish,2021.1.2,Win32,60.03121623,,,,,,,,,,,,,,p,1,1.5337,1.622063469,0,5,5,2,22,1,1,,,,,,,,,,,,,,
,,,,,,,,,,,left.png,,w,left,5faf66be8dca1e20989ea7f0,2021-10-27_11h28.05.816,arrow_simon_punish,2021.1.2,Win32,60.03121623,,,,,,,,,,,,,,w,1,1.5268,1.948877946,0,5,5,3,23,2,1,,,,,,,,,,,,,,
,,,,,,,,,,,right.png,,p,right,5faf66be8dca1e20989ea7f0,2021-10-27_11h28.05.816,arrow_simon_punish,2021.1.2,Win32,60.03121623,,,,,,,,,,,,,,p,1,1.5129,1.537279582,0,5,6,0,24,1,1,,,,,,,,,,,,,,
,,,,,,,,,,,left.png,,w,right,5faf66be8dca1e20989ea7f0,2021-10-27_11h28.05.816,arrow_simon_punish,2021.1.2,Win32,60.03121623,,,,,,,,,,,,,,p,0,1.5718,2.123478471,1,5,6,1,25,3,1,,,,,,,,,,,,,,
,,,,,,,,,,,right.png,,p,right,5faf66be8dca1e20989ea7f0,2021-10-27_11h28.05.816,arrow_simon_punish,2021.1.2,Win32,60.03121623,,,,,,,,,,,,,,w,0,1.4436,2.354374727,1,5,6,2,26,1,1,,,,,,,,,,,,,,
,,,,,,,,,,,right.png,,p,left,5faf66be8dca1e20989ea7f0,2021-10-27_11h28.05.816,arrow_simon_punish,2021.1.2,Win32,60.03121623,,,,,,,,,,,,,,p,1,1.5688,1.826699822,0,5,6,3,27,0,1,,,,,,,,,,,,,,
,,,,,,,,,,,left.png,,w,right,5faf66be8dca1e20989ea7f0,2021-10-27_11h28.05.816,arrow_simon_punish,2021.1.2,Win32,60.03121623,,,,,,,,,,,,,,p,0,1.457,2.289355617,1,5,7,0,28,3,1,,,,,,,,,,,,,,
,,,,,,,,,,,right.png,,p,left,5faf66be8dca1e20989ea7f0,2021-10-27_11h28.05.816,arrow_simon_punish,2021.1.2,Win32,60.03121623,,,,,,,,,,,,,,w,0,1.4935,1.838682936,1,5,7,1,29,0,1,,,,,,,,,,,,,,
,,,,,,,,,,,left.png,,w,left,5faf66be8dca1e20989ea7f0,2021-10-27_11h28.05.816,arrow_simon_punish,2021.1.2,Win32,60.03121623,,,,,,,,,,,,,,w,1,1.6501,2.073298189,1,5,7,2,30,2,1,,,,,,,,,,,,,,
,,,,,,,,,,,left.png,,w,left,5faf66be8dca1e20989ea7f0,2021-10-27_11h28.05.816,arrow_simon_punish,2021.1.2,Win32,60.03121623,,,,,,,,,,,,,,p,0,1.5668,1.938632729,1,5,7,3,31,2,1,,,,,,,,,,,,,,
,,,,,,,,,,,right.png,,p,right,5faf66be8dca1e20989ea7f0,2021-10-27_11h28.05.816,arrow_simon_punish,2021.1.2,Win32,60.03121623,,,,,,,,,,,,,,w,0,1.5336,1.695691725,1,5,8,0,32,1,1,,,,,,,,,,,,,,
,,,,,,,,,,,right.png,,p,left,5faf66be8dca1e20989ea7f0,2021-10-27_11h28.05.816,arrow_simon_punish,2021.1.2,Win32,60.03121623,,,,,,,,,,,,,,p,1,1.6228,2.066493522,1,5,8,1,33,0,1,,,,,,,,,,,,,,
,,,,,,,,,,,right.png,,p,left,5faf66be8dca1e20989ea7f0,2021-10-27_11h28.05.816,arrow_simon_punish,2021.1.2,Win32,60.03121623,,,,,,,,,,,,,,p,1,1.5571,1.576105344,0,5,8,2,34,0,1,,,,,,,,,,,,,,
,,,,,,,,,,,right.png,,p,right,5faf66be8dca1e20989ea7f0,2021-10-27_11h28.05.816,arrow_simon_punish,2021.1.2,Win32,60.03121623,,,,,,,,,,,,,,p,1,1.5502,1.708130418,0,5,8,3,35,1,1,,,,,,,,,,,,,,
,,,,,,,,,,,right.png,,p,right,5faf66be8dca1e20989ea7f0,2021-10-27_11h28.05.816,arrow_simon_punish,2021.1.2,Win32,60.03121623,,,,,,,,,,,,,,w,0,1.5668,1.922962768,1,5,9,0,36,1,1,,,,,,,,,,,,,,
,,,,,,,,,,,left.png,,w,right,5faf66be8dca1e20989ea7f0,2021-10-27_11h28.05.816,arrow_simon_punish,2021.1.2,Win32,60.03121623,,,,,,,,,,,,,,p,0,1.5904,1.839453478,1,5,9,1,37,3,1,,,,,,,,,,,,,,
,,,,,,,,,,,right.png,,p,left,5faf66be8dca1e20989ea7f0,2021-10-27_11h28.05.816,arrow_simon_punish,2021.1.2,Win32,60.03121623,,,,,,,,,,,,,,w,0,1.6215,1.951959501,1,5,9,2,38,0,1,,,,,,,,,,,,,,
,,,,,,,,,,,left.png,,w,right,5faf66be8dca1e20989ea7f0,2021-10-27_11h28.05.816,arrow_simon_punish,2021.1.2,Win32,60.03121623,,,,,,,,,,,,,,p,0,1.4756,1.663771175,1,5,9,3,39,3,1,,,,,,,,,,,,,,
,,,,,,,,,,,left.png,,w,right,5faf66be8dca1e20989ea7f0,2021-10-27_11h28.05.816,arrow_simon_punish,2021.1.2,Win32,60.03121623,,,,,,,,,,,,,,p,0,1.6169,1.711590035,1,5,10,0,40,3,1,,,,,,,,,,,,,,
,,,,,,,,,,,right.png,,p,left,5faf66be8dca1e20989ea7f0,2021-10-27_11h28.05.816,arrow_simon_punish,2021.1.2,Win32,60.03121623,,,,,,,,,,,,,,p,1,1.5668,1.633157528,0,5,10,1,41,0,1,,,,,,,,,,,,,,
,,,,,,,,,,,left.png,,w,left,5faf66be8dca1e20989ea7f0,2021-10-27_11h28.05.816,arrow_simon_punish,2021.1.2,Win32,60.03121623,,,,,,,,,,,,,,p,0,1.5894,1.556394097,1,5,10,2,42,2,1,,,,,,,,,,,,,,
,,,,,,,,,,,left.png,,w,left,5faf66be8dca1e20989ea7f0,2021-10-27_11h28.05.816,arrow_simon_punish,2021.1.2,Win32,60.03121623,,,,,,,,,,,,,,p,0,1.6131,1.730232104,1,5,10,3,43,2,1,,,,,,,,,,,,,,
,,,,,,,,,,,right.png,,p,left,5faf66be8dca1e20989ea7f0,2021-10-27_11h28.05.816,arrow_simon_punish,2021.1.2,Win32,60.03121623,,,,,,,,,,,,,,p,1,1.4194,1.730673596,0,5,11,0,44,0,1,,,,,,,,,,,,,,
,,,,,,,,,,,left.png,,w,right,5faf66be8dca1e20989ea7f0,2021-10-27_11h28.05.816,arrow_simon_punish,2021.1.2,Win32,60.03121623,,,,,,,,,,,,,,w,1,1.6089,2.151595512,1,5,11,1,45,3,1,,,,,,,,,,,,,,
,,,,,,,,,,,right.png,,p,left,5faf66be8dca1e20989ea7f0,2021-10-27_11h28.05.816,arrow_simon_punish,2021.1.2,Win32,60.03121623,,,,,,,,,,,,,,p,1,1.6001,1.648137538,1,5,11,2,46,0,1,,,,,,,,,,,,,,
,,,,,,,,,,,left.png,,w,left,5faf66be8dca1e20989ea7f0,2021-10-27_11h28.05.816,arrow_simon_punish,2021.1.2,Win32,60.03121623,,,,,,,,,,,,,,p,0,1.622,1.75816747,1,5,11,3,47,2,1,,,,,,,,,,,,,,
,,,,,,,,,,,right.png,,p,right,5faf66be8dca1e20989ea7f0,2021-10-27_11h28.05.816,arrow_simon_punish,2021.1.2,Win32,60.03121623,,,,,,,,,,,,,,p,1,1.5721,1.521783895,0,5,12,0,48,1,1,,,,,,,,,,,,,,
,,,,,,,,,,,left.png,,w,right,5faf66be8dca1e20989ea7f0,2021-10-27_11h28.05.816,arrow_simon_punish,2021.1.2,Win32,60.03121623,,,,,,,,,,,,,,p,0,1.6043,1.618849591,1,5,12,1,49,3,1,,,,,,,,,,,,,,
,,,,,,,,,,,right.png,,p,left,5faf66be8dca1e20989ea7f0,2021-10-27_11h28.05.816,arrow_simon_punish,2021.1.2,Win32,60.03121623,,,,,,,,,,,,,,w,0,1.7468,1.82392653,1,5,12,2,50,0,1,,,,,,,,,,,,,,
,,,,,,,,,,,left.png,,w,left,5faf66be8dca1e20989ea7f0,2021-10-27_11h28.05.816,arrow_simon_punish,2021.1.2,Win32,60.03121623,,,,,,,,,,,,,,w,1,1.5793,1.895416895,0,5,12,3,51,2,1,,,,,,,,,,,,,,
,,,,,,,,,,,left.png,,w,right,5faf66be8dca1e20989ea7f0,2021-10-27_11h28.05.816,arrow_simon_punish,2021.1.2,Win32,60.03121623,,,,,,,,,,,,,,p,0,1.5076,2.361459853,1,5,13,0,52,3,1,,,,,,,,,,,,,,
,,,,,,,,,,,right.png,,p,right,5faf66be8dca1e20989ea7f0,2021-10-27_11h28.05.816,arrow_simon_punish,2021.1.2,Win32,60.03121623,,,,,,,,,,,,,,p,1,1.558,2.405801756,0,5,13,1,53,1,1,,,,,,,,,,,,,,
,,,,,,,,,,,right.png,,p,left,5faf66be8dca1e20989ea7f0,2021-10-27_11h28.05.816,arrow_simon_punish,2021.1.2,Win32,60.03121623,,,,,,,,,,,,,,p,1,1.4388,1.552635908,0,5,13,2,54,0,1,,,,,,,,,,,,,,
,,,,,,,,,,,left.png,,w,right,5faf66be8dca1e20989ea7f0,2021-10-27_11h28.05.816,arrow_simon_punish,2021.1.2,Win32,60.03121623,,,,,,,,,,,,,,p,0,1.5003,1.967542525,1,5,13,3,55,3,1,,,,,,,,,,,,,,
,,,,,,,,,,,right.png,,p,right,5faf66be8dca1e20989ea7f0,2021-10-27_11h28.05.816,arrow_simon_punish,2021.1.2,Win32,60.03121623,,,,,,,,,,,,,,w,0,1.5508,1.618396492,1,5,14,0,56,1,1,,,,,,,,,,,,,,
,,,,,,,,,,,right.png,,p,right,5faf66be8dca1e20989ea7f0,2021-10-27_11h28.05.816,arrow_simon_punish,2021.1.2,Win32,60.03121623,,,,,,,,,,,,,,p,1,1.5115,1.804616989,0,5,14,1,57,1,1,,,,,,,,,,,,,,
,,,,,,,,,,,left.png,,w,left,5faf66be8dca1e20989ea7f0,2021-10-27_11h28.05.816,arrow_simon_punish,2021.1.2,Win32,60.03121623,,,,,,,,,,,,,,p,0,1.4263,1.546556254,1,5,14,2,58,2,1,,,,,,,,,,,,,,
,,,,,,,,,,,left.png,,w,right,5faf66be8dca1e20989ea7f0,2021-10-27_11h28.05.816,arrow_simon_punish,2021.1.2,Win32,60.03121623,,,,,,,,,,,,,,p,0,1.488,1.820739347,1,5,14,3,59,3,1,,,,,,,,,,,,,,
,,,,,,,,,,,,,,,5faf66be8dca1e20989ea7f0,2021-10-27_11h28.05.816,arrow_simon_punish,2021.1.2,Win32,60.03121623,,,,,,,,,,,,,,,,,,,,,,,,,space,79.754,5,1,1,3,1,1,5,,,,,
,,,,,,,,,,,left.png,,w,left,5faf66be8dca1e20989ea7f0,2021-10-27_11h28.05.816,arrow_simon_punish,2021.1.2,Win32,60.03121623,,,,,,,,,,,,,,p,0,1.5335,2.249775433,1,1,0,0,0,2,1,,,,,,,,,,,,,,
,,,,,,,,,,,left.png,,w,left,5faf66be8dca1e20989ea7f0,2021-10-27_11h28.05.816,arrow_simon_punish,2021.1.2,Win32,60.03121623,,,,,,,,,,,,,,w,1,1.5667,1.80725615,0,1,0,1,1,2,1,,,,,,,,,,,,,,
,,,,,,,,,,,right.png,,p,right,5faf66be8dca1e20989ea7f0,2021-10-27_11h28.05.816,arrow_simon_punish,2021.1.2,Win32,60.03121623,,,,,,,,,,,,,,p,1,1.5253,1.7165327,0,1,0,2,2,1,1,,,,,,,,,,,,,,
,,,,,,,,,,,right.png,,p,right,5faf66be8dca1e20989ea7f0,2021-10-27_11h28.05.816,arrow_simon_punish,2021.1.2,Win32,60.03121623,,,,,,,,,,,,,,w,0,1.5908,1.703513816,1,1,0,3,3,1,1,,,,,,,,,,,,,,
,,,,,,,,,,,right.png,,p,right,5faf66be8dca1e20989ea7f0,2021-10-27_11h28.05.816,arrow_simon_punish,2021.1.2,Win32,60.03121623,,,,,,,,,,,,,,p,1,1.5341,2.493200438,0,1,1,0,4,1,1,,,,,,,,,,,,,,
,,,,,,,,,,,right.png,,p,left,5faf66be8dca1e20989ea7f0,2021-10-27_11h28.05.816,arrow_simon_punish,2021.1.2,Win32,60.03121623,,,,,,,,,,,,,,p,1,1.6233,2.429087048,1,1,1,1,5,0,1,,,,,,,,,,,,,,
,,,,,,,,,,,left.png,,w,right,5faf66be8dca1e20989ea7f0,2021-10-27_11h28.05.816,arrow_simon_punish,2021.1.2,Win32,60.03121623,,,,,,,,,,,,,,w,1,1.5576,2.258816666,0,1,1,2,6,3,1,,,,,,,,,,,,,,
,,,,,,,,,,,left.png,,w,right,5faf66be8dca1e20989ea7f0,2021-10-27_11h28.05.816,arrow_simon_punish,2021.1.2,Win32,60.03121623,,,,,,,,,,,,,,p,0,1.5503,1.512097734,1,1,1,3,7,3,1,,,,,,,,,,,,,,
,,,,,,,,,,,right.png,,p,right,5faf66be8dca1e20989ea7f0,2021-10-27_11h28.05.816,arrow_simon_punish,2021.1.2,Win32,60.03121623,,,,,,,,,,,,,,w,0,2.9347,2.217819331,1,1,2,0,8,1,1,,,,,,,,,,,,,,
,,,,,,,,,,,left.png,,w,left,5faf66be8dca1e20989ea7f0,2021-10-27_11h28.05.816,arrow_simon_punish,2021.1.2,Win32,60.03121623,,,,,,,,,,,,,,w,1,1.6643,2.088612101,1,1,2,1,9,2,1,,,,,,,,,,,,,,
,,,,,,,,,,,left.png,,w,right,5faf66be8dca1e20989ea7f0,2021-10-27_11h28.05.816,arrow_simon_punish,2021.1.2,Win32,60.03121623,,,,,,,,,,,,,,w,1,1.5407,2.297766637,0,1,2,2,10,3,1,,,,,,,,,,,,,,
,,,,,,,,,,,right.png,,p,left,5faf66be8dca1e20989ea7f0,2021-10-27_11h28.05.816,arrow_simon_punish,2021.1.2,Win32,60.03121623,,,,,,,,,,,,,,p,1,1.622,1.778321942,1,1,2,3,11,0,1,,,,,,,,,,,,,,
,,,,,,,,,,,left.png,,w,left,5faf66be8dca1e20989ea7f0,2021-10-27_11h28.05.816,arrow_simon_punish,2021.1.2,Win32,60.03121623,,,,,,,,,,,,,,w,1,1.6123,1.743747478,1,1,3,0,12,2,1,,,,,,,,,,,,,,
,,,,,,,,,,,right.png,,p,left,5faf66be8dca1e20989ea7f0,2021-10-27_11h28.05.816,arrow_simon_punish,2021.1.2,Win32,60.03121623,,,,,,,,,,,,,,p,1,1.5299,1.959582349,0,1,3,1,13,0,1,,,,,,,,,,,,,,
,,,,,,,,,,,right.png,,p,right,5faf66be8dca1e20989ea7f0,2021-10-27_11h28.05.816,arrow_simon_punish,2021.1.2,Win32,60.03121623,,,,,,,,,,,,,,w,0,1.5561,2.099847549,1,1,3,2,14,1,1,,,,,,,,,,,,,,
,,,,,,,,,,,left.png,,w,right,5faf66be8dca1e20989ea7f0,2021-10-27_11h28.05.816,arrow_simon_punish,2021.1.2,Win32,60.03121623,,,,,,,,,,,,,,p,0,1.4929,2.309531896,1,1,3,3,15,3,1,,,,,,,,,,,,,,
,,,,,,,,,,,left.png,,w,right,5faf66be8dca1e20989ea7f0,2021-10-27_11h28.05.816,arrow_simon_punish,2021.1.2,Win32,60.03121623,,,,,,,,,,,,,,w,1,1.6335,1.688413545,1,1,4,0,16,3,1,,,,,,,,,,,,,,
,,,,,,,,,,,right.png,,p,right,5faf66be8dca1e20989ea7f0,2021-10-27_11h28.05.816,arrow_simon_punish,2021.1.2,Win32,60.03121623,,,,,,,,,,,,,,w,0,1.5834,1.92282268,1,1,4,1,17,1,1,,,,,,,,,,,,,,
,,,,,,,,,,,right.png,,p,right,5faf66be8dca1e20989ea7f0,2021-10-27_11h28.05.816,arrow_simon_punish,2021.1.2,Win32,60.03121623,,,,,,,,,,,,,,p,1,1.4449,2.427641205,0,1,4,2,18,1,1,,,,,,,,,,,,,,
,,,,,,,,,,,right.png,,p,left,5faf66be8dca1e20989ea7f0,2021-10-27_11h28.05.816,arrow_simon_punish,2021.1.2,Win32,60.03121623,,,,,,,,,,,,,,w,0,1.434,1.638155307,1,1,4,3,19,0,1,,,,,,,,,,,,,,
,,,,,,,,,,,left.png,,w,left,5faf66be8dca1e20989ea7f0,2021-10-27_11h28.05.816,arrow_simon_punish,2021.1.2,Win32,60.03121623,,,,,,,,,,,,,,w,1,1.4074,1.598103599,0,1,5,0,20,2,1,,,,,,,,,,,,,,
,,,,,,,,,,,right.png,,p,right,5faf66be8dca1e20989ea7f0,2021-10-27_11h28.05.816,arrow_simon_punish,2021.1.2,Win32,60.03121623,,,,,,,,,,,,,,w,0,1.4169,1.74596801,1,1,5,1,21,1,1,,,,,,,,,,,,,,
,,,,,,,,,,,left.png,,w,right,5faf66be8dca1e20989ea7f0,2021-10-27_11h28.05.816,arrow_simon_punish,2021.1.2,Win32,60.03121623,,,,,,,,,,,,,,w,1,1.564,2.10036803,0,1,5,2,22,3,1,,,,,,,,,,,,,,
,,,,,,,,,,,right.png,,p,right,5faf66be8dca1e20989ea7f0,2021-10-27_11h28.05.816,arrow_simon_punish,2021.1.2,Win32,60.03121623,,,,,,,,,,,,,,p,1,1.6206,2.160272449,1,1,5,3,23,1,1,,,,,,,,,,,,,,
,,,,,,,,,,,left.png,,w,left,5faf66be8dca1e20989ea7f0,2021-10-27_11h28.05.816,arrow_simon_punish,2021.1.2,Win32,60.03121623,,,,,,,,,,,,,,w,1,1.507,2.218738487,0,1,6,0,24,2,1,,,,,,,,,,,,,,
,,,,,,,,,,,right.png,,p,left,5faf66be8dca1e20989ea7f0,2021-10-27_11h28.05.816,arrow_simon_punish,2021.1.2,Win32,60.03121623,,,,,,,,,,,,,,p,1,1.3893,1.762277946,1,1,6,1,25,0,1,,,,,,,,,,,,,,
,,,,,,,,,,,right.png,,p,right,5faf66be8dca1e20989ea7f0,2021-10-27_11h28.05.816,arrow_simon_punish,2021.1.2,Win32,60.03121623,,,,,,,,,,,,,,w,0,1.5567,1.845602919,1,1,6,2,26,1,1,,,,,,,,,,,,,,
,,,,,,,,,,,left.png,,w,right,5faf66be8dca1e20989ea7f0,2021-10-27_11h28.05.816,arrow_simon_punish,2021.1.2,Win32,60.03121623,,,,,,,,,,,,,,w,1,1.6295,1.690382278,1,1,6,3,27,3,1,,,,,,,,,,,,,,
,,,,,,,,,,,right.png,,p,left,5faf66be8dca1e20989ea7f0,2021-10-27_11h28.05.816,arrow_simon_punish,2021.1.2,Win32,60.03121623,,,,,,,,,,,,,,w,0,1.4115,1.966586336,1,1,7,0,28,0,1,,,,,,,,,,,,,,
,,,,,,,,,,,left.png,,w,left,5faf66be8dca1e20989ea7f0,2021-10-27_11h28.05.816,arrow_simon_punish,2021.1.2,Win32,60.03121623,,,,,,,,,,,,,,p,0,1.5382,1.903672947,1,1,7,1,29,2,1,,,,,,,,,,,,,,
,,,,,,,,,,,left.png,,w,right,5faf66be8dca1e20989ea7f0,2021-10-27_11h28.05.816,arrow_simon_punish,2021.1.2,Win32,60.03121623,,,,,,,,,,,,,,w,1,1.5335,1.75208316,0,1,7,2,30,3,1,,,,,,,,,,,,,,
,,,,,,,,,,,left.png,,w,right,5faf66be8dca1e20989ea7f0,2021-10-27_11h28.05.816,arrow_simon_punish,2021.1.2,Win32,60.03121623,,,,,,,,,,,,,,w,1,1.5245,1.794907022,0,1,7,3,31,3,1,,,,,,,,,,,,,,
,,,,,,,,,,,left.png,,w,left,5faf66be8dca1e20989ea7f0,2021-10-27_11h28.05.816,arrow_simon_punish,2021.1.2,Win32,60.03121623,,,,,,,,,,,,,,p,0,1.4626,2.34446534,1,1,8,0,32,2,1,,,,,,,,,,,,,,
,,,,,,,,,,,left.png,,w,left,5faf66be8dca1e20989ea7f0,2021-10-27_11h28.05.816,arrow_simon_punish,2021.1.2,Win32,60.03121623,,,,,,,,,,,,,,w,1,1.5001,1.512222126,0,1,8,1,33,2,1,,,,,,,,,,,,,,
,,,,,,,,,,,right.png,,p,right,5faf66be8dca1e20989ea7f0,2021-10-27_11h28.05.816,arrow_simon_punish,2021.1.2,Win32,60.03121623,,,,,,,,,,,,,,w,0,1.518,1.834982462,1,1,8,2,34,1,1,,,,,,,,,,,,,,
,,,,,,,,,,,left.png,,w,left,5faf66be8dca1e20989ea7f0,2021-10-27_11h28.05.816,arrow_simon_punish,2021.1.2,Win32,60.03121623,,,,,,,,,,,,,,p,0,1.4959,1.936038403,1,1,8,3,35,2,1,,,,,,,,,,,,,,
,,,,,,,,,,,right.png,,p,left,5faf66be8dca1e20989ea7f0,2021-10-27_11h28.05.816,arrow_simon_punish,2021.1.2,Win32,60.03121623,,,,,,,,,,,,,,p,1,1.5074,2.367060876,0,1,9,0,36,0,1,,,,,,,,,,,,,,
,,,,,,,,,,,left.png,,w,left,5faf66be8dca1e20989ea7f0,2021-10-27_11h28.05.816,arrow_simon_punish,2021.1.2,Win32,60.03121623,,,,,,,,,,,,,,p,0,1.6059,1.758669252,1,1,9,1,37,2,1,,,,,,,,,,,,,,
,,,,,,,,,,,left.png,,w,left,5faf66be8dca1e20989ea7f0,2021-10-27_11h28.05.816,arrow_simon_punish,2021.1.2,Win32,60.03121623,,,,,,,,,,,,,,p,0,1.5725,1.629061908,1,1,9,2,38,2,1,,,,,,,,,,,,,,
,,,,,,,,,,,right.png,,p,left,5faf66be8dca1e20989ea7f0,2021-10-27_11h28.05.816,arrow_simon_punish,2021.1.2,Win32,60.03121623,,,,,,,,,,,,,,w,0,1.5569,1.643993438,1,1,9,3,39,0,1,,,,,,,,,,,,,,
,,,,,,,,,,,right.png,,p,left,5faf66be8dca1e20989ea7f0,2021-10-27_11h28.05.816,arrow_simon_punish,2021.1.2,Win32,60.03121623,,,,,,,,,,,,,,p,1,1.5501,2.066362174,0,1,10,0,40,0,1,,,,,,,,,,,,,,
,,,,,,,,,,,right.png,,p,right,5faf66be8dca1e20989ea7f0,2021-10-27_11h28.05.816,arrow_simon_punish,2021.1.2,Win32,60.03121623,,,,,,,,,,,,,,w,0,1.7668,2.108437431,1,1,10,1,41,1,1,,,,,,,,,,,,,,
,,,,,,,,,,,right.png,,p,left,5faf66be8dca1e20989ea7f0,2021-10-27_11h28.05.816,arrow_simon_punish,2021.1.2,Win32,60.03121623,,,,,,,,,,,,,,p,1,1.5102,1.621833068,0,1,10,2,42,0,1,,,,,,,,,,,,,,
,,,,,,,,,,,left.png,,w,right,5faf66be8dca1e20989ea7f0,2021-10-27_11h28.05.816,arrow_simon_punish,2021.1.2,Win32,60.03121623,,,,,,,,,,,,,,w,1,1.4087,2.441333048,0,1,10,3,43,3,1,,,,,,,,,,,,,,
,,,,,,,,,,,right.png,,p,left,5faf66be8dca1e20989ea7f0,2021-10-27_11h28.05.816,arrow_simon_punish,2021.1.2,Win32,60.03121623,,,,,,,,,,,,,,w,0,1.5433,2.024116961,1,1,11,0,44,0,1,,,,,,,,,,,,,,
,,,,,,,,,,,right.png,,p,left,5faf66be8dca1e20989ea7f0,2021-10-27_11h28.05.816,arrow_simon_punish,2021.1.2,Win32,60.03121623,,,,,,,,,,,,,,p,1,1.5608,2.391645139,0,1,11,1,45,0,1,,,,,,,,,,,,,,
,,,,,,,,,,,left.png,,w,left,5faf66be8dca1e20989ea7f0,2021-10-27_11h28.05.816,arrow_simon_punish,2021.1.2,Win32,60.03121623,,,,,,,,,,,,,,w,1,1.6173,1.721443404,1,1,11,2,46,2,1,,,,,,,,,,,,,,
,,,,,,,,,,,left.png,,w,right,5faf66be8dca1e20989ea7f0,2021-10-27_11h28.05.816,arrow_simon_punish,2021.1.2,Win32,60.03121623,,,,,,,,,,,,,,p,0,1.4304,2.43121171,1,1,11,3,47,3,1,,,,,,,,,,,,,,
,,,,,,,,,,,left.png,,w,right,5faf66be8dca1e20989ea7f0,2021-10-27_11h28.05.816,arrow_simon_punish,2021.1.2,Win32,60.03121623,,,,,,,,,,,,,,w,1,1.5171,2.437361732,0,1,12,0,48,3,1,,,,,,,,,,,,,,
,,,,,,,,,,,right.png,,p,left,5faf66be8dca1e20989ea7f0,2021-10-27_11h28.05.816,arrow_simon_punish,2021.1.2,Win32,60.03121623,,,,,,,,,,,,,,p,1,1.4225,2.321534751,0,1,12,1,49,0,1,,,,,,,,,,,,,,
,,,,,,,,,,,right.png,,p,right,5faf66be8dca1e20989ea7f0,2021-10-27_11h28.05.816,arrow_simon_punish,2021.1.2,Win32,60.03121623,,,,,,,,,,,,,,w,0,1.4127,1.551366521,1,1,12,2,50,1,1,,,,,,,,,,,,,,
,,,,,,,,,,,right.png,,p,right,5faf66be8dca1e20989ea7f0,2021-10-27_11h28.05.816,arrow_simon_punish,2021.1.2,Win32,60.03121623,,,,,,,,,,,,,,w,0,1.4596,2.037522051,1,1,12,3,51,1,1,,,,,,,,,,,,,,
,,,,,,,,,,,left.png,,w,right,5faf66be8dca1e20989ea7f0,2021-10-27_11h28.05.816,arrow_simon_punish,2021.1.2,Win32,60.03121623,,,,,,,,,,,,,,w,1,1.472,2.375000853,0,1,13,0,52,3,1,,,,,,,,,,,,,,
,,,,,,,,,,,left.png,,w,right,5faf66be8dca1e20989ea7f0,2021-10-27_11h28.05.816,arrow_simon_punish,2021.1.2,Win32,60.03121623,,,,,,,,,,,,,,w,1,1.508,2.496946176,0,1,13,1,53,3,1,,,,,,,,,,,,,,
,,,,,,,,,,,right.png,,p,left,5faf66be8dca1e20989ea7f0,2021-10-27_11h28.05.816,arrow_simon_punish,2021.1.2,Win32,60.03121623,,,,,,,,,,,,,,w,0,1.4869,1.72280087,1,1,13,2,54,0,1,,,,,,,,,,,,,,
,,,,,,,,,,,left.png,,w,left,5faf66be8dca1e20989ea7f0,2021-10-27_11h28.05.816,arrow_simon_punish,2021.1.2,Win32,60.03121623,,,,,,,,,,,,,,p,0,1.4835,2.331720677,1,1,13,3,55,2,1,,,,,,,,,,,,,,
,,,,,,,,,,,left.png,,w,right,5faf66be8dca1e20989ea7f0,2021-10-27_11h28.05.816,arrow_simon_punish,2021.1.2,Win32,60.03121623,,,,,,,,,,,,,,p,0,1.5973,1.990334976,1,1,14,0,56,3,1,,,,,,,,,,,,,,
,,,,,,,,,,,right.png,,p,right,5faf66be8dca1e20989ea7f0,2021-10-27_11h28.05.816,arrow_simon_punish,2021.1.2,Win32,60.03121623,,,,,,,,,,,,,,p,1,1.4846,2.46530802,0,1,14,1,57,1,1,,,,,,,,,,,,,,
,,,,,,,,,,,left.png,,w,left,5faf66be8dca1e20989ea7f0,2021-10-27_11h28.05.816,arrow_simon_punish,2021.1.2,Win32,60.03121623,,,,,,,,,,,,,,w,1,1.6719,1.714722634,1,1,14,2,58,2,1,,,,,,,,,,,,,,
,,,,,,,,,,,right.png,,p,left,5faf66be8dca1e20989ea7f0,2021-10-27_11h28.05.816,arrow_simon_punish,2021.1.2,Win32,60.03121623,,,,,,,,,,,,,,p,1,1.54,2.277731049,0,1,14,3,59,0,1,,,,,,,,,,,,,,
,,,,,,,,,,,,,,,5faf66be8dca1e20989ea7f0,2021-10-27_11h28.05.816,arrow_simon_punish,2021.1.2,Win32,60.03121623,,,,,,,,,,,,,,,,,,,,,,,,,space,81.6278,6,2,0,4,0,1,1,,,,,
,,,,,,,,,,,left.png,,w,right,5faf66be8dca1e20989ea7f0,2021-10-27_11h28.05.816,arrow_simon_punish,2021.1.2,Win32,60.03121623,,,,,,,,,,,,,,p,0,1.5631,2.330974507,1,5,0,0,0,3,1,,,,,,,,,,,,,,
,,,,,,,,,,,right.png,,p,right,5faf66be8dca1e20989ea7f0,2021-10-27_11h28.05.816,arrow_simon_punish,2021.1.2,Win32,60.03121623,,,,,,,,,,,,,,p,1,1.0919,1.518908061,1,5,0,1,1,1,1,,,,,,,,,,,,,,
,,,,,,,,,,,left.png,,w,left,5faf66be8dca1e20989ea7f0,2021-10-27_11h28.05.816,arrow_simon_punish,2021.1.2,Win32,60.03121623,,,,,,,,,,,,,,p,0,1.4072,2.480891267,1,5,0,2,2,2,1,,,,,,,,,,,,,,
,,,,,,,,,,,right.png,,p,left,5faf66be8dca1e20989ea7f0,2021-10-27_11h28.05.816,arrow_simon_punish,2021.1.2,Win32,60.03121623,,,,,,,,,,,,,,p,1,1.3901,2.37836065,1,5,0,3,3,0,1,,,,,,,,,,,,,,
,,,,,,,,,,,left.png,,w,right,5faf66be8dca1e20989ea7f0,2021-10-27_11h28.05.816,arrow_simon_punish,2021.1.2,Win32,60.03121623,,,,,,,,,,,,,,w,1,1.6051,1.61820037,1,5,1,0,4,3,1,,,,,,,,,,,,,,
,,,,,,,,,,,right.png,,p,right,5faf66be8dca1e20989ea7f0,2021-10-27_11h28.05.816,arrow_simon_punish,2021.1.2,Win32,60.03121623,,,,,,,,,,,,,,p,1,1.5559,2.333722253,0,5,1,1,5,1,1,,,,,,,,,,,,,,
,,,,,,,,,,,right.png,,p,left,5faf66be8dca1e20989ea7f0,2021-10-27_11h28.05.816,arrow_simon_punish,2021.1.2,Win32,60.03121623,,,,,,,,,,,,,,p,1,1.4367,2.150169239,0,5,1,2,6,0,1,,,,,,,,,,,,,,
,,,,,,,,,,,left.png,,w,left,5faf66be8dca1e20989ea7f0,2021-10-27_11h28.05.816,arrow_simon_punish,2021.1.2,Win32,60.03121623,,,,,,,,,,,,,,p,0,1.4668,2.232861585,1,5,1,3,7,2,1,,,,,,,,,,,,,,
,,,,,,,,,,,left.png,,w,left,5faf66be8dca1e20989ea7f0,2021-10-27_11h28.05.816,arrow_simon_punish,2021.1.2,Win32,60.03121623,,,,,,,,,,,,,,w,1,1.5579,1.963748605,0,5,2,0,8,2,1,,,,,,,,,,,,,,
,,,,,,,,,,,right.png,,p,left,5faf66be8dca1e20989ea7f0,2021-10-27_11h28.05.816,arrow_simon_punish,2021.1.2,Win32,60.03121623,,,,,,,,,,,,,,p,1,1.5427,1.692499349,0,5,2,1,9,0,1,,,,,,,,,,,,,,
,,,,,,,,,,,right.png,,p,left,5faf66be8dca1e20989ea7f0,2021-10-27_11h28.05.816,arrow_simon_punish,2021.1.2,Win32,60.03121623,,,,,,,,,,,,,,p,1,1.4797,2.256932168,0,5,2,2,10,0,1,,,,,,,,,,,,,,
,,,,,,,,,,,right.png,,p,left,5faf66be8dca1e20989ea7f0,2021-10-27_11h28.05.816,arrow_simon_punish,2021.1.2,Win32,60.03121623,,,,,,,,,,,,,,p,1,1.4517,2.475927554,0,5,2,3,11,0,1,,,,,,,,,,,,,,
,,,,,,,,,,,right.png,,p,left,5faf66be8dca1e20989ea7f0,2021-10-27_11h28.05.816,arrow_simon_punish,2021.1.2,Win32,60.03121623,,,,,,,,,,,,,,p,1,1.4966,2.456684188,0,5,3,0,12,0,1,,,,,,,,,,,,,,
,,,,,,,,,,,left.png,,w,left,5faf66be8dca1e20989ea7f0,2021-10-27_11h28.05.816,arrow_simon_punish,2021.1.2,Win32,60.03121623,,,,,,,,,,,,,,p,0,1.5078,1.503643586,1,5,3,1,13,2,1,,,,,,,,,,,,,,
,,,,,,,,,,,left.png,,w,right,5faf66be8dca1e20989ea7f0,2021-10-27_11h28.05.816,arrow_simon_punish,2021.1.2,Win32,60.03121623,,,,,,,,,,,,,,p,0,1.5584,1.664043895,1,5,3,2,14,3,1,,,,,,,,,,,,,,
,,,,,,,,,,,left.png,,w,left,5faf66be8dca1e20989ea7f0,2021-10-27_11h28.05.816,arrow_simon_punish,2021.1.2,Win32,60.03121623,,,,,,,,,,,,,,p,0,1.4714,2.345455404,1,5,3,3,15,2,1,,,,,,,,,,,,,,
,,,,,,,,,,,right.png,,p,right,5faf66be8dca1e20989ea7f0,2021-10-27_11h28.05.816,arrow_simon_punish,2021.1.2,Win32,60.03121623,,,,,,,,,,,,,,w,0,1.5471,1.571179872,1,5,4,0,16,1,1,,,,,,,,,,,,,,
,,,,,,,,,,,left.png,,w,right,5faf66be8dca1e20989ea7f0,2021-10-27_11h28.05.816,arrow_simon_punish,2021.1.2,Win32,60.03121623,,,,,,,,,,,,,,w,1,1.5566,1.904602791,0,5,4,1,17,3,1,,,,,,,,,,,,,,
,,,,,,,,,,,right.png,,p,left,5faf66be8dca1e20989ea7f0,2021-10-27_11h28.05.816,arrow_simon_punish,2021.1.2,Win32,60.03121623,,,,,,,,,,,,,,p,1,1.5501,1.617056124,0,5,4,2,18,0,1,,,,,,,,,,,,,,
,,,,,,,,,,,left.png,,w,right,5faf66be8dca1e20989ea7f0,2021-10-27_11h28.05.816,arrow_simon_punish,2021.1.2,Win32,60.03121623,,,,,,,,,,,,,,p,0,1.5501,1.757291839,1,5,4,3,19,3,1,,,,,,,,,,,,,,
,,,,,,,,,,,left.png,,w,right,5faf66be8dca1e20989ea7f0,2021-10-27_11h28.05.816,arrow_simon_punish,2021.1.2,Win32,60.03121623,,,,,,,,,,,,,,w,1,1.5106,1.987440046,0,5,5,0,20,3,1,,,,,,,,,,,,,,
,,,,,,,,,,,left.png,,w,left,5faf66be8dca1e20989ea7f0,2021-10-27_11h28.05.816,arrow_simon_punish,2021.1.2,Win32,60.03121623,,,,,,,,,,,,,,w,1,1.5454,1.677611862,0,5,5,1,21,2,1,,,,,,,,,,,,,,
,,,,,,,,,,,right.png,,p,right,5faf66be8dca1e20989ea7f0,2021-10-27_11h28.05.816,arrow_simon_punish,2021.1.2,Win32,60.03121623,,,,,,,,,,,,,,w,0,1.5784,1.944745719,1,5,5,2,22,1,1,,,,,,,,,,,,,,
,,,,,,,,,,,left.png,,w,left,5faf66be8dca1e20989ea7f0,2021-10-27_11h28.05.816,arrow_simon_punish,2021.1.2,Win32,60.03121623,,,,,,,,,,,,,,p,0,1.6024,2.146032371,1,5,5,3,23,2,1,,,,,,,,,,,,,,
,,,,,,,,,,,right.png,,p,left,5faf66be8dca1e20989ea7f0,2021-10-27_11h28.05.816,arrow_simon_punish,2021.1.2,Win32,60.03121623,,,,,,,,,,,,,,p,1,1.5773,2.094614478,0,5,6,0,24,0,1,,,,,,,,,,,,,,
,,,,,,,,,,,right.png,,p,right,5faf66be8dca1e20989ea7f0,2021-10-27_11h28.05.816,arrow_simon_punish,2021.1.2,Win32,60.03121623,,,,,,,,,,,,,,w,0,2.1293,1.600556348,1,5,6,1,25,1,1,,,,,,,,,,,,,,
,,,,,,,,,,,left.png,,w,right,5faf66be8dca1e20989ea7f0,2021-10-27_11h28.05.816,arrow_simon_punish,2021.1.2,Win32,60.03121623,,,,,,,,,,,,,,p,0,1.7232,2.232838187,1,5,6,2,26,3,1,,,,,,,,,,,,,,
,,,,,,,,,,,right.png,,p,right,5faf66be8dca1e20989ea7f0,2021-10-27_11h28.05.816,arrow_simon_punish,2021.1.2,Win32,60.03121623,,,,,,,,,,,,,,p,1,2.0774,2.179169628,1,5,6,3,27,1,1,,,,,,,,,,,,,,
,,,,,,,,,,,left.png,,w,right,5faf66be8dca1e20989ea7f0,2021-10-27_11h28.05.816,arrow_simon_punish,2021.1.2,Win32,60.03121623,,,,,,,,,,,,,,p,0,1.4971,1.631680921,1,5,7,0,28,3,1,,,,,,,,,,,,,,
,,,,,,,,,,,left.png,,w,right,5faf66be8dca1e20989ea7f0,2021-10-27_11h28.05.816,arrow_simon_punish,2021.1.2,Win32,60.03121623,,,,,,,,,,,,,,p,0,1.4603,2.488594975,1,5,7,1,29,3,1,,,,,,,,,,,,,,
,,,,,,,,,,,left.png,,w,right,5faf66be8dca1e20989ea7f0,2021-10-27_11h28.05.816,arrow_simon_punish,2021.1.2,Win32,60.03121623,,,,,,,,,,,,,,w,1,1.4501,1.912948665,0,5,7,2,30,3,1,,,,,,,,,,,,,,
,,,,,,,,,,,right.png,,p,left,5faf66be8dca1e20989ea7f0,2021-10-27_11h28.05.816,arrow_simon_punish,2021.1.2,Win32,60.03121623,,,,,,,,,,,,,,p,1,1.4857,2.466335082,0,5,7,3,31,0,1,,,,,,,,,,,,,,
,,,,,,,,,,,right.png,,p,right,5faf66be8dca1e20989ea7f0,2021-10-27_11h28.05.816,arrow_simon_punish,2021.1.2,Win32,60.03121623,,,,,,,,,,,,,,w,0,1.5371,1.781939811,1,5,8,0,32,1,1,,,,,,,,,,,,,,
,,,,,,,,,,,right.png,,p,right,5faf66be8dca1e20989ea7f0,2021-10-27_11h28.05.816,arrow_simon_punish,2021.1.2,Win32,60.03121623,,,,,,,,,,,,,,p,1,1.6185,1.989369442,1,5,8,1,33,1,1,,,,,,,,,,,,,,
,,,,,,,,,,,right.png,,p,left,5faf66be8dca1e20989ea7f0,2021-10-27_11h28.05.816,arrow_simon_punish,2021.1.2,Win32,60.03121623,,,,,,,,,,,,,,w,0,1.5125,1.944748891,1,5,8,2,34,0,1,,,,,,,,,,,,,,
,,,,,,,,,,,right.png,,p,right,5faf66be8dca1e20989ea7f0,2021-10-27_11h28.05.816,arrow_simon_punish,2021.1.2,Win32,60.03121623,,,,,,,,,,,,,,p,1,1.4752,1.672955699,0,5,8,3,35,1,1,,,,,,,,,,,,,,
,,,,,,,,,,,right.png,,p,left,5faf66be8dca1e20989ea7f0,2021-10-27_11h28.05.816,arrow_simon_punish,2021.1.2,Win32,60.03121623,,,,,,,,,,,,,,p,1,1.5593,1.80052714,0,5,9,0,36,0,1,,,,,,,,,,,,,,
,,,,,,,,,,,left.png,,w,left,5faf66be8dca1e20989ea7f0,2021-10-27_11h28.05.816,arrow_simon_punish,2021.1.2,Win32,60.03121623,,,,,,,,,,,,,,p,0,1.4077,2.049132711,1,5,9,1,37,2,1,,,,,,,,,,,,,,
,,,,,,,,,,,right.png,,p,right,5faf66be8dca1e20989ea7f0,2021-10-27_11h28.05.816,arrow_simon_punish,2021.1.2,Win32,60.03121623,,,,,,,,,,,,,,p,1,1.4704,2.152427011,0,5,9,2,38,1,1,,,,,,,,,,,,,,
,,,,,,,,,,,right.png,,p,left,5faf66be8dca1e20989ea7f0,2021-10-27_11h28.05.816,arrow_simon_punish,2021.1.2,Win32,60.03121623,,,,,,,,,,,,,,w,0,1.5228,2.092455208,1,5,9,3,39,0,1,,,,,,,,,,,,,,
,,,,,,,,,,,left.png,,w,right,5faf66be8dca1e20989ea7f0,2021-10-27_11h28.05.816,arrow_simon_punish,2021.1.2,Win32,60.03121623,,,,,,,,,,,,,,p,0,1.5244,1.741329654,1,5,10,0,40,3,1,,,,,,,,,,,,,,
,,,,,,,,,,,left.png,,w,right,5faf66be8dca1e20989ea7f0,2021-10-27_11h28.05.816,arrow_simon_punish,2021.1.2,Win32,60.03121623,,,,,,,,,,,,,,p,0,1.6704,2.370588713,1,5,10,1,41,3,1,,,,,,,,,,,,,,
,,,,,,,,,,,left.png,,w,left,5faf66be8dca1e20989ea7f0,2021-10-27_11h28.05.816,arrow_simon_punish,2021.1.2,Win32,60.03121623,,,,,,,,,,,,,,p,0,1.6266,1.686288927,1,5,10,2,42,2,1,,,,,,,,,,,,,,
,,,,,,,,,,,right.png,,p,left,5faf66be8dca1e20989ea7f0,2021-10-27_11h28.05.816,arrow_simon_punish,2021.1.2,Win32,60.03121623,,,,,,,,,,,,,,p,1,1.4669,1.850899796,0,5,10,3,43,0,1,,,,,,,,,,,,,,
,,,,,,,,,,,left.png,,w,right,5faf66be8dca1e20989ea7f0,2021-10-27_11h28.05.816,arrow_simon_punish,2021.1.2,Win32,60.03121623,,,,,,,,,,,,,,p,0,1.4844,1.595971405,1,5,11,0,44,3,1,,,,,,,,,,,,,,
,,,,,,,,,,,left.png,,w,left,5faf66be8dca1e20989ea7f0,2021-10-27_11h28.05.816,arrow_simon_punish,2021.1.2,Win32,60.03121623,,,,,,,,,,,,,,p,0,1.4959,2.47093295,1,5,11,1,45,2,1,,,,,,,,,,,,,,
,,,,,,,,,,,left.png,,w,left,5faf66be8dca1e20989ea7f0,2021-10-27_11h28.05.816,arrow_simon_punish,2021.1.2,Win32,60.03121623,,,,,,,,,,,,,,p,0,1.4111,2.489729797,1,5,11,2,46,2,1,,,,,,,,,,,,,,
,,,,,,,,,,,left.png,,w,right,5faf66be8dca1e20989ea7f0,2021-10-27_11h28.05.816,arrow_simon_punish,2021.1.2,Win32,60.03121623,,,,,,,,,,,,,,p,0,1.5697,2.474738337,1,5,11,3,47,3,1,,,,,,,,,,,,,,
,,,,,,,,,,,left.png,,w,left,5faf66be8dca1e20989ea7f0,2021-10-27_11h28.05.816,arrow_simon_punish,2021.1.2,Win32,60.03121623,,,,,,,,,,,,,,p,0,1.4099,2.294359089,1,5,12,0,48,2,1,,,,,,,,,,,,,,
,,,,,,,,,,,left.png,,w,left,5faf66be8dca1e20989ea7f0,2021-10-27_11h28.05.816,arrow_simon_punish,2021.1.2,Win32,60.03121623,,,,,,,,,,,,,,p,0,1.4404,1.836164217,1,5,12,1,49,2,1,,,,,,,,,,,,,,
,,,,,,,,,,,left.png,,w,left,5faf66be8dca1e20989ea7f0,2021-10-27_11h28.05.816,arrow_simon_punish,2021.1.2,Win32,60.03121623,,,,,,,,,,,,,,w,1,1.5336,2.034966298,0,5,12,2,50,2,1,,,,,,,,,,,,,,
,,,,,,,,,,,right.png,,p,left,5faf66be8dca1e20989ea7f0,2021-10-27_11h28.05.816,arrow_simon_punish,2021.1.2,Win32,60.03121623,,,,,,,,,,,,,,p,1,1.4714,1.939002556,0,5,12,3,51,0,1,,,,,,,,,,,,,,
,,,,,,,,,,,right.png,,p,left,5faf66be8dca1e20989ea7f0,2021-10-27_11h28.05.816,arrow_simon_punish,2021.1.2,Win32,60.03121623,,,,,,,,,,,,,,w,0,1.491,2.293885537,1,5,13,0,52,0,1,,,,,,,,,,,,,,
,,,,,,,,,,,left.png,,w,left,5faf66be8dca1e20989ea7f0,2021-10-27_11h28.05.816,arrow_simon_punish,2021.1.2,Win32,60.03121623,,,,,,,,,,,,,,p,0,1.4465,1.783816394,1,5,13,1,53,2,1,,,,,,,,,,,,,,
,,,,,,,,,,,right.png,,p,right,5faf66be8dca1e20989ea7f0,2021-10-27_11h28.05.816,arrow_simon_punish,2021.1.2,Win32,60.03121623,,,,,,,,,,,,,,p,1,1.4272,1.766251639,0,5,13,2,54,1,1,,,,,,,,,,,,,,
,,,,,,,,,,,right.png,,p,right,5faf66be8dca1e20989ea7f0,2021-10-27_11h28.05.816,arrow_simon_punish,2021.1.2,Win32,60.03121623,,,,,,,,,,,,,,p,1,1.4501,2.261165403,0,5,13,3,55,1,1,,,,,,,,,,,,,,
,,,,,,,,,,,right.png,,p,right,5faf66be8dca1e20989ea7f0,2021-10-27_11h28.05.816,arrow_simon_punish,2021.1.2,Win32,60.03121623,,,,,,,,,,,,,,p,1,1.469,2.214683296,0,5,14,0,56,1,1,,,,,,,,,,,,,,
,,,,,,,,,,,right.png,,p,right,5faf66be8dca1e20989ea7f0,2021-10-27_11h28.05.816,arrow_simon_punish,2021.1.2,Win32,60.03121623,,,,,,,,,,,,,,p,1,1.5852,1.664497658,0,5,14,1,57,1,1,,,,,,,,,,,,,,
,,,,,,,,,,,right.png,,p,right,5faf66be8dca1e20989ea7f0,2021-10-27_11h28.05.816,arrow_simon_punish,2021.1.2,Win32,60.03121623,,,,,,,,,,,,,,w,0,1.5363,2.479806381,1,5,14,2,58,1,1,,,,,,,,,,,,,,
,,,,,,,,,,,left.png,,w,right,5faf66be8dca1e20989ea7f0,2021-10-27_11h28.05.816,arrow_simon_punish,2021.1.2,Win32,60.03121623,,,,,,,,,,,,,,w,1,1.6737,2.164031592,1,5,14,3,59,3,1,,,,,,,,,,,,,,
,,,,,,,,,,,,,,,5faf66be8dca1e20989ea7f0,2021-10-27_11h28.05.816,arrow_simon_punish,2021.1.2,Win32,60.03121623,,,,,,,,,,,,,,,,,,,,,,,,,space,278.8412,7,2,1,5,1,1,5,,,,,
,,,,,,,,,,,left.png,,w,left,5faf66be8dca1e20989ea7f0,2021-10-27_11h28.05.816,arrow_simon_punish,2021.1.2,Win32,60.03121623,,,,,,,,,,,,,,w,1,1.5227,2.208658305,0,1,0,0,0,2,1,,,,,,,,,,,,,,
,,,,,,,,,,,left.png,,w,right,5faf66be8dca1e20989ea7f0,2021-10-27_11h28.05.816,arrow_simon_punish,2021.1.2,Win32,60.03121623,,,,,,,,,,,,,,p,0,1.4607,2.292073466,1,1,0,1,1,3,1,,,,,,,,,,,,,,
,,,,,,,,,,,right.png,,p,right,5faf66be8dca1e20989ea7f0,2021-10-27_11h28.05.816,arrow_simon_punish,2021.1.2,Win32,60.03121623,,,,,,,,,,,,,,p,1,1.4573,1.56982963,0,1,0,2,2,1,1,,,,,,,,,,,,,,
,,,,,,,,,,,right.png,,p,left,5faf66be8dca1e20989ea7f0,2021-10-27_11h28.05.816,arrow_simon_punish,2021.1.2,Win32,60.03121623,,,,,,,,,,,,,,p,1,1.0225,1.929679826,1,1,0,3,3,0,1,,,,,,,,,,,,,,
,,,,,,,,,,,right.png,,p,right,5faf66be8dca1e20989ea7f0,2021-10-27_11h28.05.816,arrow_simon_punish,2021.1.2,Win32,60.03121623,,,,,,,,,,,,,,p,1,1.6041,2.112271159,1,1,1,0,4,1,1,,,,,,,,,,,,,,
,,,,,,,,,,,right.png,,p,right,5faf66be8dca1e20989ea7f0,2021-10-27_11h28.05.816,arrow_simon_punish,2021.1.2,Win32,60.03121623,,,,,,,,,,,,,,p,1,1.3947,2.369864547,1,1,1,1,5,1,1,,,,,,,,,,,,,,
,,,,,,,,,,,right.png,,p,left,5faf66be8dca1e20989ea7f0,2021-10-27_11h28.05.816,arrow_simon_punish,2021.1.2,Win32,60.03121623,,,,,,,,,,,,,,w,0,1.5223,2.274654118,1,1,1,2,6,0,1,,,,,,,,,,,,,,
,,,,,,,,,,,right.png,,p,left,5faf66be8dca1e20989ea7f0,2021-10-27_11h28.05.816,arrow_simon_punish,2021.1.2,Win32,60.03121623,,,,,,,,,,,,,,p,1,1.444,1.528812415,0,1,1,3,7,0,1,,,,,,,,,,,,,,
,,,,,,,,,,,left.png,,w,left,5faf66be8dca1e20989ea7f0,2021-10-27_11h28.05.816,arrow_simon_punish,2021.1.2,Win32,60.03121623,,,,,,,,,,,,,,p,0,1.3774,2.118571082,1,1,2,0,8,2,1,,,,,,,,,,,,,,
,,,,,,,,,,,left.png,,w,right,5faf66be8dca1e20989ea7f0,2021-10-27_11h28.05.816,arrow_simon_punish,2021.1.2,Win32,60.03121623,,,,,,,,,,,,,,w,1,1.4835,1.669802684,0,1,2,1,9,3,1,,,,,,,,,,,,,,
,,,,,,,,,,,left.png,,w,left,5faf66be8dca1e20989ea7f0,2021-10-27_11h28.05.816,arrow_simon_punish,2021.1.2,Win32,60.03121623,,,,,,,,,,,,,,p,0,1.4286,1.945296129,1,1,2,2,10,2,1,,,,,,,,,,,,,,
,,,,,,,,,,,left.png,,w,right,5faf66be8dca1e20989ea7f0,2021-10-27_11h28.05.816,arrow_simon_punish,2021.1.2,Win32,60.03121623,,,,,,,,,,,,,,p,0,1.3947,1.657008595,1,1,2,3,11,3,1,,,,,,,,,,,,,,
,,,,,,,,,,,left.png,,w,left,5faf66be8dca1e20989ea7f0,2021-10-27_11h28.05.816,arrow_simon_punish,2021.1.2,Win32,60.03121623,,,,,,,,,,,,,,p,0,1.4423,1.605489008,1,1,3,0,12,2,1,,,,,,,,,,,,,,
,,,,,,,,,,,left.png,,w,right,5faf66be8dca1e20989ea7f0,2021-10-27_11h28.05.816,arrow_simon_punish,2021.1.2,Win32,60.03121623,,,,,,,,,,,,,,p,0,1.3835,1.586544747,1,1,3,1,13,3,1,,,,,,,,,,,,,,
,,,,,,,,,,,left.png,,w,left,5faf66be8dca1e20989ea7f0,2021-10-27_11h28.05.816,arrow_simon_punish,2021.1.2,Win32,60.03121623,,,,,,,,,,,,,,p,0,1.4336,1.511184413,1,1,3,2,14,2,1,,,,,,,,,,,,,,
,,,,,,,,,,,right.png,,p,right,5faf66be8dca1e20989ea7f0,2021-10-27_11h28.05.816,arrow_simon_punish,2021.1.2,Win32,60.03121623,,,,,,,,,,,,,,w,0,1.613,2.063951786,1,1,3,3,15,1,1,,,,,,,,,,,,,,
,,,,,,,,,,,left.png,,w,right,5faf66be8dca1e20989ea7f0,2021-10-27_11h28.05.816,arrow_simon_punish,2021.1.2,Win32,60.03121623,,,,,,,,,,,,,,w,1,1.4434,2.313752393,0,1,4,0,16,3,1,,,,,,,,,,,,,,
,,,,,,,,,,,right.png,,p,right,5faf66be8dca1e20989ea7f0,2021-10-27_11h28.05.816,arrow_simon_punish,2021.1.2,Win32,60.03121623,,,,,,,,,,,,,,w,0,1.3606,2.378844259,1,1,4,1,17,1,1,,,,,,,,,,,,,,
,,,,,,,,,,,right.png,,p,right,5faf66be8dca1e20989ea7f0,2021-10-27_11h28.05.816,arrow_simon_punish,2021.1.2,Win32,60.03121623,,,,,,,,,,,,,,w,0,1.5455,2.029280922,1,1,4,2,18,1,1,,,,,,,,,,,,,,
,,,,,,,,,,,right.png,,p,left,5faf66be8dca1e20989ea7f0,2021-10-27_11h28.05.816,arrow_simon_punish,2021.1.2,Win32,60.03121623,,,,,,,,,,,,,,w,0,1.5168,1.839442226,1,1,4,3,19,0,1,,,,,,,,,,,,,,
,,,,,,,,,,,right.png,,p,left,5faf66be8dca1e20989ea7f0,2021-10-27_11h28.05.816,arrow_simon_punish,2021.1.2,Win32,60.03121623,,,,,,,,,,,,,,w,0,1.4686,1.836429067,1,1,5,0,20,0,1,,,,,,,,,,,,,,
,,,,,,,,,,,right.png,,p,right,5faf66be8dca1e20989ea7f0,2021-10-27_11h28.05.816,arrow_simon_punish,2021.1.2,Win32,60.03121623,,,,,,,,,,,,,,w,0,1.4243,2.246024545,1,1,5,1,21,1,1,,,,,,,,,,,,,,
,,,,,,,,,,,left.png,,w,left,5faf66be8dca1e20989ea7f0,2021-10-27_11h28.05.816,arrow_simon_punish,2021.1.2,Win32,60.03121623,,,,,,,,,,,,,,w,1,1.417,2.404178993,0,1,5,2,22,2,1,,,,,,,,,,,,,,
,,,,,,,,,,,right.png,,p,right,5faf66be8dca1e20989ea7f0,2021-10-27_11h28.05.816,arrow_simon_punish,2021.1.2,Win32,60.03121623,,,,,,,,,,,,,,w,0,1.3967,1.865966974,1,1,5,3,23,1,1,,,,,,,,,,,,,,
,,,,,,,,,,,right.png,,p,right,5faf66be8dca1e20989ea7f0,2021-10-27_11h28.05.816,arrow_simon_punish,2021.1.2,Win32,60.03121623,,,,,,,,,,,,,,w,0,1.4603,1.985688106,1,1,6,0,24,1,1,,,,,,,,,,,,,,
,,,,,,,,,,,left.png,,w,right,5faf66be8dca1e20989ea7f0,2021-10-27_11h28.05.816,arrow_simon_punish,2021.1.2,Win32,60.03121623,,,,,,,,,,,,,,w,1,1.5849,1.959527048,0,1,6,1,25,3,1,,,,,,,,,,,,,,
,,,,,,,,,,,right.png,,p,left,5faf66be8dca1e20989ea7f0,2021-10-27_11h28.05.816,arrow_simon_punish,2021.1.2,Win32,60.03121623,,,,,,,,,,,,,,p,1,1.3839,2.219831357,1,1,6,2,26,0,1,,,,,,,,,,,,,,
,,,,,,,,,,,left.png,,w,right,5faf66be8dca1e20989ea7f0,2021-10-27_11h28.05.816,arrow_simon_punish,2021.1.2,Win32,60.03121623,,,,,,,,,,,,,,p,0,1.4795,2.449531733,1,1,6,3,27,3,1,,,,,,,,,,,,,,
,,,,,,,,,,,right.png,,p,left,5faf66be8dca1e20989ea7f0,2021-10-27_11h28.05.816,arrow_simon_punish,2021.1.2,Win32,60.03121623,,,,,,,,,,,,,,p,1,1.5306,2.459463375,0,1,7,0,28,0,1,,,,,,,,,,,,,,
,,,,,,,,,,,left.png,,w,left,5faf66be8dca1e20989ea7f0,2021-10-27_11h28.05.816,arrow_simon_punish,2021.1.2,Win32,60.03121623,,,,,,,,,,,,,,w,1,1.444,1.913294412,0,1,7,1,29,2,1,,,,,,,,,,,,,,
,,,,,,,,,,,right.png,,p,right,5faf66be8dca1e20989ea7f0,2021-10-27_11h28.05.816,arrow_simon_punish,2021.1.2,Win32,60.03121623,,,,,,,,,,,,,,p,1,1.4015,2.357419816,0,1,7,2,30,1,1,,,,,,,,,,,,,,
,,,,,,,,,,,right.png,,p,right,5faf66be8dca1e20989ea7f0,2021-10-27_11h28.05.816,arrow_simon_punish,2021.1.2,Win32,60.03121623,,,,,,,,,,,,,,p,1,1.376,2.200935313,1,1,7,3,31,1,1,,,,,,,,,,,,,,
,,,,,,,,,,,right.png,,p,left,5faf66be8dca1e20989ea7f0,2021-10-27_11h28.05.816,arrow_simon_punish,2021.1.2,Win32,60.03121623,,,,,,,,,,,,,,p,1,1.4002,2.298977378,0,1,8,0,32,0,1,,,,,,,,,,,,,,
,,,,,,,,,,,right.png,,p,left,5faf66be8dca1e20989ea7f0,2021-10-27_11h28.05.816,arrow_simon_punish,2021.1.2,Win32,60.03121623,,,,,,,,,,,,,,p,1,1.3668,1.975320189,1,1,8,1,33,0,1,,,,,,,,,,,,,,
,,,,,,,,,,,right.png,,p,right,5faf66be8dca1e20989ea7f0,2021-10-27_11h28.05.816,arrow_simon_punish,2021.1.2,Win32,60.03121623,,,,,,,,,,,,,,p,1,1.3502,2.049059922,1,1,8,2,34,1,1,,,,,,,,,,,,,,
,,,,,,,,,,,right.png,,p,right,5faf66be8dca1e20989ea7f0,2021-10-27_11h28.05.816,arrow_simon_punish,2021.1.2,Win32,60.03121623,,,,,,,,,,,,,,p,1,1.3506,1.721034663,1,1,8,3,35,1,1,,,,,,,,,,,,,,
,,,,,,,,,,,left.png,,w,left,5faf66be8dca1e20989ea7f0,2021-10-27_11h28.05.816,arrow_simon_punish,2021.1.2,Win32,60.03121623,,,,,,,,,,,,,,p,0,1.4168,1.882599932,1,1,9,0,36,2,1,,,,,,,,,,,,,,
,,,,,,,,,,,left.png,,w,right,5faf66be8dca1e20989ea7f0,2021-10-27_11h28.05.816,arrow_simon_punish,2021.1.2,Win32,60.03121623,,,,,,,,,,,,,,p,0,1.4373,1.814179406,1,1,9,1,37,3,1,,,,,,,,,,,,,,
,,,,,,,,,,,left.png,,w,left,5faf66be8dca1e20989ea7f0,2021-10-27_11h28.05.816,arrow_simon_punish,2021.1.2,Win32,60.03121623,,,,,,,,,,,,,,p,0,1.4346,1.939203014,1,1,9,2,38,2,1,,,,,,,,,,,,,,
,,,,,,,,,,,left.png,,w,left,5faf66be8dca1e20989ea7f0,2021-10-27_11h28.05.816,arrow_simon_punish,2021.1.2,Win32,60.03121623,,,,,,,,,,,,,,p,0,1.4002,1.681437221,1,1,9,3,39,2,1,,,,,,,,,,,,,,
,,,,,,,,,,,left.png,,w,right,5faf66be8dca1e20989ea7f0,2021-10-27_11h28.05.816,arrow_simon_punish,2021.1.2,Win32,60.03121623,,,,,,,,,,,,,,p,0,1.3669,2.067113556,1,1,10,0,40,3,1,,,,,,,,,,,,,,
,,,,,,,,,,,left.png,,w,right,5faf66be8dca1e20989ea7f0,2021-10-27_11h28.05.816,arrow_simon_punish,2021.1.2,Win32,60.03121623,,,,,,,,,,,,,,p,0,1.3186,2.425032047,1,1,10,1,41,3,1,,,,,,,,,,,,,,
,,,,,,,,,,,left.png,,w,left,5faf66be8dca1e20989ea7f0,2021-10-27_11h28.05.816,arrow_simon_punish,2021.1.2,Win32,60.03121623,,,,,,,,,,,,,,p,0,1.4967,1.753276093,1,1,10,2,42,2,1,,,,,,,,,,,,,,
,,,,,,,,,,,right.png,,p,left,5faf66be8dca1e20989ea7f0,2021-10-27_11h28.05.816,arrow_simon_punish,2021.1.2,Win32,60.03121623,,,,,,,,,,,,,,w,0,1.4838,1.929752271,1,1,10,3,43,0,1,,,,,,,,,,,,,,
,,,,,,,,,,,left.png,,w,right,5faf66be8dca1e20989ea7f0,2021-10-27_11h28.05.816,arrow_simon_punish,2021.1.2,Win32,60.03121623,,,,,,,,,,,,,,w,1,2.1191,1.509715436,1,1,11,0,44,3,1,,,,,,,,,,,,,,
,,,,,,,,,,,left.png,,w,left,5faf66be8dca1e20989ea7f0,2021-10-27_11h28.05.816,arrow_simon_punish,2021.1.2,Win32,60.03121623,,,,,,,,,,,,,,p,0,1.4502,1.704244625,1,1,11,1,45,2,1,,,,,,,,,,,,,,
,,,,,,,,,,,left.png,,w,right,5faf66be8dca1e20989ea7f0,2021-10-27_11h28.05.816,arrow_simon_punish,2021.1.2,Win32,60.03121623,,,,,,,,,,,,,,p,0,1.6066,2.042328211,1,1,11,2,46,3,1,,,,,,,,,,,,,,
,,,,,,,,,,,right.png,,p,right,5faf66be8dca1e20989ea7f0,2021-10-27_11h28.05.816,arrow_simon_punish,2021.1.2,Win32,60.03121623,,,,,,,,,,,,,,p,1,1.5011,2.472159719,0,1,11,3,47,1,1,,,,,,,,,,,,,,
,,,,,,,,,,,right.png,,p,right,5faf66be8dca1e20989ea7f0,2021-10-27_11h28.05.816,arrow_simon_punish,2021.1.2,Win32,60.03121623,,,,,,,,,,,,,,p,1,1.56,1.673805495,0,1,12,0,48,1,1,,,,,,,,,,,,,,
,,,,,,,,,,,left.png,,w,right,5faf66be8dca1e20989ea7f0,2021-10-27_11h28.05.816,arrow_simon_punish,2021.1.2,Win32,60.03121623,,,,,,,,,,,,,,p,0,1.4726,2.203397962,1,1,12,1,49,3,1,,,,,,,,,,,,,,
,,,,,,,,,,,right.png,,p,left,5faf66be8dca1e20989ea7f0,2021-10-27_11h28.05.816,arrow_simon_punish,2021.1.2,Win32,60.03121623,,,,,,,,,,,,,,p,1,1.4446,1.647646767,0,1,12,2,50,0,1,,,,,,,,,,,,,,
,,,,,,,,,,,right.png,,p,left,5faf66be8dca1e20989ea7f0,2021-10-27_11h28.05.816,arrow_simon_punish,2021.1.2,Win32,60.03121623,,,,,,,,,,,,,,p,1,1.5382,1.993278845,0,1,12,3,51,0,1,,,,,,,,,,,,,,
,,,,,,,,,,,left.png,,w,right,5faf66be8dca1e20989ea7f0,2021-10-27_11h28.05.816,arrow_simon_punish,2021.1.2,Win32,60.03121623,,,,,,,,,,,,,,p,0,1.4512,1.660520297,1,1,13,0,52,3,1,,,,,,,,,,,,,,
,,,,,,,,,,,left.png,,w,left,5faf66be8dca1e20989ea7f0,2021-10-27_11h28.05.816,arrow_simon_punish,2021.1.2,Win32,60.03121623,,,,,,,,,,,,,,p,0,1.3512,2.48245235,1,1,13,1,53,2,1,,,,,,,,,,,,,,
,,,,,,,,,,,right.png,,p,left,5faf66be8dca1e20989ea7f0,2021-10-27_11h28.05.816,arrow_simon_punish,2021.1.2,Win32,60.03121623,,,,,,,,,,,,,,p,1,1.576,1.617874943,0,1,13,2,54,0,1,,,,,,,,,,,,,,
,,,,,,,,,,,left.png,,w,left,5faf66be8dca1e20989ea7f0,2021-10-27_11h28.05.816,arrow_simon_punish,2021.1.2,Win32,60.03121623,,,,,,,,,,,,,,w,1,2.0335,1.525083217,1,1,13,3,55,2,1,,,,,,,,,,,,,,
,,,,,,,,,,,left.png,,w,left,5faf66be8dca1e20989ea7f0,2021-10-27_11h28.05.816,arrow_simon_punish,2021.1.2,Win32,60.03121623,,,,,,,,,,,,,,p,0,1.3885,2.148748578,1,1,14,0,56,2,1,,,,,,,,,,,,,,
,,,,,,,,,,,right.png,,p,left,5faf66be8dca1e20989ea7f0,2021-10-27_11h28.05.816,arrow_simon_punish,2021.1.2,Win32,60.03121623,,,,,,,,,,,,,,p,1,1.3873,2.293701567,1,1,14,1,57,0,1,,,,,,,,,,,,,,
,,,,,,,,,,,left.png,,w,right,5faf66be8dca1e20989ea7f0,2021-10-27_11h28.05.816,arrow_simon_punish,2021.1.2,Win32,60.03121623,,,,,,,,,,,,,,w,1,1.4425,2.100415625,0,1,14,2,58,3,1,,,,,,,,,,,,,,
,,,,,,,,,,,right.png,,p,left,5faf66be8dca1e20989ea7f0,2021-10-27_11h28.05.816,arrow_simon_punish,2021.1.2,Win32,60.03121623,,,,,,,,,,,,,,p,1,1.4232,2.323786901,0,1,14,3,59,0,1,,,,,,,,,,,,,,
,,,,,,,,,,,,,,,5faf66be8dca1e20989ea7f0,2021-10-27_11h28.05.816,arrow_simon_punish,2021.1.2,Win32,60.03121623,,,,,,,,,,,,,,,,,,,,,,,,,space,52.8213,8,3,0,6,0,1,1,,,,,
,,,,,,,,,,,left.png,,w,left,5faf66be8dca1e20989ea7f0,2021-10-27_11h28.05.816,arrow_simon_punish,2021.1.2,Win32,60.03121623,,,,,,,,,,,,,,p,0,1.5245,1.638576358,1,5,0,0,0,2,1,,,,,,,,,,,,,,
,,,,,,,,,,,right.png,,p,left,5faf66be8dca1e20989ea7f0,2021-10-27_11h28.05.816,arrow_simon_punish,2021.1.2,Win32,60.03121623,,,,,,,,,,,,,,p,1,1.5169,1.80339811,0,5,0,1,1,0,1,,,,,,,,,,,,,,
,,,,,,,,,,,left.png,,w,left,5faf66be8dca1e20989ea7f0,2021-10-27_11h28.05.816,arrow_simon_punish,2021.1.2,Win32,60.03121623,,,,,,,,,,,,,,p,0,1.4837,2.467731693,1,5,0,2,2,2,1,,,,,,,,,,,,,,
,,,,,,,,,,,right.png,,p,right,5faf66be8dca1e20989ea7f0,2021-10-27_11h28.05.816,arrow_simon_punish,2021.1.2,Win32,60.03121623,,,,,,,,,,,,,,p,1,1.3734,1.684343189,1,5,0,3,3,1,1,,,,,,,,,,,,,,
,,,,,,,,,,,right.png,,p,left,5faf66be8dca1e20989ea7f0,2021-10-27_11h28.05.816,arrow_simon_punish,2021.1.2,Win32,60.03121623,,,,,,,,,,,,,,p,1,1.3668,2.213766129,1,5,1,0,4,0,1,,,,,,,,,,,,,,
,,,,,,,,,,,right.png,,p,right,5faf66be8dca1e20989ea7f0,2021-10-27_11h28.05.816,arrow_simon_punish,2021.1.2,Win32,60.03121623,,,,,,,,,,,,,,p,1,1.453,1.850090623,0,5,1,1,5,1,1,,,,,,,,,,,,,,
,,,,,,,,,,,right.png,,p,left,5faf66be8dca1e20989ea7f0,2021-10-27_11h28.05.816,arrow_simon_punish,2021.1.2,Win32,60.03121623,,,,,,,,,,,,,,w,0,1.5337,1.702899863,1,5,1,2,6,0,1,,,,,,,,,,,,,,
,,,,,,,,,,,left.png,,w,left,5faf66be8dca1e20989ea7f0,2021-10-27_11h28.05.816,arrow_simon_punish,2021.1.2,Win32,60.03121623,,,,,,,,,,,,,,p,0,1.4677,1.710682737,1,5,1,3,7,2,1,,,,,,,,,,,,,,
