instruct_resp_simon.keys,instruct_resp_simon.corr,instruct_resp_simon.rt,trial_resp_simon.keys,trial_resp_simon.corr,trial_resp_simon.rt,trials_train_simon.thisRepN,trials_train_simon.thisTrialN,trials_train_simon.thisN,trials_train_simon.thisIndex,trials_train_simon.ran,target_file,target_pos,target_resp,target_side,participant,date,expName,psychopyVersion,OS,frameRate,instruct_resp_timing.keys,instruct_resp_timing.corr,instruct_resp_timing.rt,trial_resp_timing.keys,trial_resp_timing.rt,trials_train_timing.thisRepN,trials_train_timing.thisTrialN,trials_train_timing.thisN,trials_train_timing.thisIndex,trials_train_timing.ran,instruct_resp.keys,instruct_resp.corr,instruct_resp.rt,trial_resp.keys,trial_resp.corr,trial_resp.rt,target_onset,err,pun,trials.thisRepN,trials.thisTrialN,trials.thisN,trials.thisIndex,trials.ran,block_note_resp.keys,block_note_resp.rt,block_num,blocks.thisRepN,blocks.thisTrialN,blocks.thisN,blocks.thisIndex,blocks.ran,punish,complete_resp.keys,complete_resp.rt,raffle_trial,raffle_err,raffle_rew
space,0,86.777,p,1,0.877,0,0,0,1,1,right.png,,p,right,5fd66ce8aec66457ff73d743,2021-10-27_12h10.14.135,arrow_simon_punish,2021.1.2,Win32,60.0240096,,,,,,,,,,,,,,,,,,,,,,,,,,,,,,,,,,,,,,
,,,w,0,0.716,0,1,1,0,1,right.png,,p,left,5fd66ce8aec66457ff73d743,2021-10-27_12h10.14.135,arrow_simon_punish,2021.1.2,Win32,60.0240096,,,,,,,,,,,,,,,,,,,,,,,,,,,,,,,,,,,,,,
,,,w,1,1.167,0,2,2,3,1,left.png,,w,right,5fd66ce8aec66457ff73d743,2021-10-27_12h10.14.135,arrow_simon_punish,2021.1.2,Win32,60.0240096,,,,,,,,,,,,,,,,,,,,,,,,,,,,,,,,,,,,,,
,,,w,1,1.398,0,3,3,2,1,left.png,,w,left,5fd66ce8aec66457ff73d743,2021-10-27_12h10.14.135,arrow_simon_punish,2021.1.2,Win32,60.0240096,,,,,,,,,,,,,,,,,,,,,,,,,,,,,,,,,,,,,,
,,,p,1,1.234,1,0,4,1,1,right.png,,p,right,5fd66ce8aec66457ff73d743,2021-10-27_12h10.14.135,arrow_simon_punish,2021.1.2,Win32,60.0240096,,,,,,,,,,,,,,,,,,,,,,,,,,,,,,,,,,,,,,
,,,w,1,0.951,1,1,5,3,1,left.png,,w,right,5fd66ce8aec66457ff73d743,2021-10-27_12h10.14.135,arrow_simon_punish,2021.1.2,Win32,60.0240096,,,,,,,,,,,,,,,,,,,,,,,,,,,,,,,,,,,,,,
,,,w,1,1.272,1,2,6,2,1,left.png,,w,left,5fd66ce8aec66457ff73d743,2021-10-27_12h10.14.135,arrow_simon_punish,2021.1.2,Win32,60.0240096,,,,,,,,,,,,,,,,,,,,,,,,,,,,,,,,,,,,,,
,,,p,1,1.069,1,3,7,0,1,right.png,,p,left,5fd66ce8aec66457ff73d743,2021-10-27_12h10.14.135,arrow_simon_punish,2021.1.2,Win32,60.0240096,,,,,,,,,,,,,,,,,,,,,,,,,,,,,,,,,,,,,,
,,,p,1,2.254,2,0,8,1,1,right.png,,p,right,5fd66ce8aec66457ff73d743,2021-10-27_12h10.14.135,arrow_simon_punish,2021.1.2,Win32,60.0240096,,,,,,,,,,,,,,,,,,,,,,,,,,,,,,,,,,,,,,
,,,w,1,0.886,2,1,9,2,1,left.png,,w,left,5fd66ce8aec66457ff73d743,2021-10-27_12h10.14.135,arrow_simon_punish,2021.1.2,Win32,60.0240096,,,,,,,,,,,,,,,,,,,,,,,,,,,,,,,,,,,,,,
,,,p,1,1.5,2,2,10,0,1,right.png,,p,left,5fd66ce8aec66457ff73d743,2021-10-27_12h10.14.135,arrow_simon_punish,2021.1.2,Win32,60.0240096,,,,,,,,,,,,,,,,,,,,,,,,,,,,,,,,,,,,,,
,,,w,1,1.623,2,3,11,3,1,left.png,,w,right,5fd66ce8aec66457ff73d743,2021-10-27_12h10.14.135,arrow_simon_punish,2021.1.2,Win32,60.0240096,,,,,,,,,,,,,,,,,,,,,,,,,,,,,,,,,,,,,,
,,,w,1,1.371,3,0,12,3,1,left.png,,w,right,5fd66ce8aec66457ff73d743,2021-10-27_12h10.14.135,arrow_simon_punish,2021.1.2,Win32,60.0240096,,,,,,,,,,,,,,,,,,,,,,,,,,,,,,,,,,,,,,
,,,p,1,1.371,3,1,13,1,1,right.png,,p,right,5fd66ce8aec66457ff73d743,2021-10-27_12h10.14.135,arrow_simon_punish,2021.1.2,Win32,60.0240096,,,,,,,,,,,,,,,,,,,,,,,,,,,,,,,,,,,,,,
,,,p,1,1.585,3,2,14,0,1,right.png,,p,left,5fd66ce8aec66457ff73d743,2021-10-27_12h10.14.135,arrow_simon_punish,2021.1.2,Win32,60.0240096,,,,,,,,,,,,,,,,,,,,,,,,,,,,,,,,,,,,,,
,,,w,1,1.396,3,3,15,2,1,left.png,,w,left,5fd66ce8aec66457ff73d743,2021-10-27_12h10.14.135,arrow_simon_punish,2021.1.2,Win32,60.0240096,,,,,,,,,,,,,,,,,,,,,,,,,,,,,,,,,,,,,,
,,,p,1,2.15,4,0,16,0,1,right.png,,p,left,5fd66ce8aec66457ff73d743,2021-10-27_12h10.14.135,arrow_simon_punish,2021.1.2,Win32,60.0240096,,,,,,,,,,,,,,,,,,,,,,,,,,,,,,,,,,,,,,
,,,w,1,1.614,4,1,17,2,1,left.png,,w,left,5fd66ce8aec66457ff73d743,2021-10-27_12h10.14.135,arrow_simon_punish,2021.1.2,Win32,60.0240096,,,,,,,,,,,,,,,,,,,,,,,,,,,,,,,,,,,,,,
,,,p,1,0.889,4,2,18,1,1,right.png,,p,right,5fd66ce8aec66457ff73d743,2021-10-27_12h10.14.135,arrow_simon_punish,2021.1.2,Win32,60.0240096,,,,,,,,,,,,,,,,,,,,,,,,,,,,,,,,,,,,,,
,,,w,1,1.47,4,3,19,3,1,left.png,,w,right,5fd66ce8aec66457ff73d743,2021-10-27_12h10.14.135,arrow_simon_punish,2021.1.2,Win32,60.0240096,,,,,,,,,,,,,,,,,,,,,,,,,,,,,,,,,,,,,,
,,,w,1,1.493,5,0,20,2,1,left.png,,w,left,5fd66ce8aec66457ff73d743,2021-10-27_12h10.14.135,arrow_simon_punish,2021.1.2,Win32,60.0240096,,,,,,,,,,,,,,,,,,,,,,,,,,,,,,,,,,,,,,
,,,w,1,0.701,5,1,21,3,1,left.png,,w,right,5fd66ce8aec66457ff73d743,2021-10-27_12h10.14.135,arrow_simon_punish,2021.1.2,Win32,60.0240096,,,,,,,,,,,,,,,,,,,,,,,,,,,,,,,,,,,,,,
,,,p,1,1.17,5,2,22,0,1,right.png,,p,left,5fd66ce8aec66457ff73d743,2021-10-27_12h10.14.135,arrow_simon_punish,2021.1.2,Win32,60.0240096,,,,,,,,,,,,,,,,,,,,,,,,,,,,,,,,,,,,,,
,,,p,1,0.753,5,3,23,1,1,right.png,,p,right,5fd66ce8aec66457ff73d743,2021-10-27_12h10.14.135,arrow_simon_punish,2021.1.2,Win32,60.0240096,,,,,,,,,,,,,,,,,,,,,,,,,,,,,,,,,,,,,,
,,,w,1,0.902,6,0,24,3,1,left.png,,w,right,5fd66ce8aec66457ff73d743,2021-10-27_12h10.14.135,arrow_simon_punish,2021.1.2,Win32,60.0240096,,,,,,,,,,,,,,,,,,,,,,,,,,,,,,,,,,,,,,
,,,p,1,1.068,6,1,25,1,1,right.png,,p,right,5fd66ce8aec66457ff73d743,2021-10-27_12h10.14.135,arrow_simon_punish,2021.1.2,Win32,60.0240096,,,,,,,,,,,,,,,,,,,,,,,,,,,,,,,,,,,,,,
,,,w,1,1.778,6,2,26,2,1,left.png,,w,left,5fd66ce8aec66457ff73d743,2021-10-27_12h10.14.135,arrow_simon_punish,2021.1.2,Win32,60.0240096,,,,,,,,,,,,,,,,,,,,,,,,,,,,,,,,,,,,,,
,,,w,0,1.185,6,3,27,0,1,right.png,,p,left,5fd66ce8aec66457ff73d743,2021-10-27_12h10.14.135,arrow_simon_punish,2021.1.2,Win32,60.0240096,,,,,,,,,,,,,,,,,,,,,,,,,,,,,,,,,,,,,,
,,,p,1,1.534,7,0,28,1,1,right.png,,p,right,5fd66ce8aec66457ff73d743,2021-10-27_12h10.14.135,arrow_simon_punish,2021.1.2,Win32,60.0240096,,,,,,,,,,,,,,,,,,,,,,,,,,,,,,,,,,,,,,
,,,p,1,1.185,7,1,29,0,1,right.png,,p,left,5fd66ce8aec66457ff73d743,2021-10-27_12h10.14.135,arrow_simon_punish,2021.1.2,Win32,60.0240096,,,,,,,,,,,,,,,,,,,,,,,,,,,,,,,,,,,,,,
,,,w,1,1.667,7,2,30,3,1,left.png,,w,right,5fd66ce8aec66457ff73d743,2021-10-27_12h10.14.135,arrow_simon_punish,2021.1.2,Win32,60.0240096,,,,,,,,,,,,,,,,,,,,,,,,,,,,,,,,,,,,,,
,,,w,1,1.116,7,3,31,2,1,left.png,,w,left,5fd66ce8aec66457ff73d743,2021-10-27_12h10.14.135,arrow_simon_punish,2021.1.2,Win32,60.0240096,,,,,,,,,,,,,,,,,,,,,,,,,,,,,,,,,,,,,,
,,,p,1,0.885,8,0,32,0,1,right.png,,p,left,5fd66ce8aec66457ff73d743,2021-10-27_12h10.14.135,arrow_simon_punish,2021.1.2,Win32,60.0240096,,,,,,,,,,,,,,,,,,,,,,,,,,,,,,,,,,,,,,
,,,w,1,1.486,8,1,33,3,1,left.png,,w,right,5fd66ce8aec66457ff73d743,2021-10-27_12h10.14.135,arrow_simon_punish,2021.1.2,Win32,60.0240096,,,,,,,,,,,,,,,,,,,,,,,,,,,,,,,,,,,,,,
,,,w,1,1.085,8,2,34,2,1,left.png,,w,left,5fd66ce8aec66457ff73d743,2021-10-27_12h10.14.135,arrow_simon_punish,2021.1.2,Win32,60.0240096,,,,,,,,,,,,,,,,,,,,,,,,,,,,,,,,,,,,,,
,,,p,1,1.643,8,3,35,1,1,right.png,,p,right,5fd66ce8aec66457ff73d743,2021-10-27_12h10.14.135,arrow_simon_punish,2021.1.2,Win32,60.0240096,,,,,,,,,,,,,,,,,,,,,,,,,,,,,,,,,,,,,,
,,,p,1,1.407,9,0,36,0,1,right.png,,p,left,5fd66ce8aec66457ff73d743,2021-10-27_12h10.14.135,arrow_simon_punish,2021.1.2,Win32,60.0240096,,,,,,,,,,,,,,,,,,,,,,,,,,,,,,,,,,,,,,
,,,p,1,1.52,9,1,37,1,1,right.png,,p,right,5fd66ce8aec66457ff73d743,2021-10-27_12h10.14.135,arrow_simon_punish,2021.1.2,Win32,60.0240096,,,,,,,,,,,,,,,,,,,,,,,,,,,,,,,,,,,,,,
,,,w,1,0.901,9,2,38,2,1,left.png,,w,left,5fd66ce8aec66457ff73d743,2021-10-27_12h10.14.135,arrow_simon_punish,2021.1.2,Win32,60.0240096,,,,,,,,,,,,,,,,,,,,,,,,,,,,,,,,,,,,,,
,,,w,1,1.144,9,3,39,3,1,left.png,,w,right,5fd66ce8aec66457ff73d743,2021-10-27_12h10.14.135,arrow_simon_punish,2021.1.2,Win32,60.0240096,,,,,,,,,,,,,,,,,,,,,,,,,,,,,,,,,,,,,,
,,,,,,,,,,,,,,,5fd66ce8aec66457ff73d743,2021-10-27_12h10.14.135,arrow_simon_punish,2021.1.2,Win32,60.0240096,space,0,74.486,p,2.878,0,0,0,0,1,,,,,,,,,,,,,,,,,,,,,,,,,,,,
,,,,,,,,,,,,,,,5fd66ce8aec66457ff73d743,2021-10-27_12h10.14.135,arrow_simon_punish,2021.1.2,Win32,60.0240096,,,,p,2.616,1,0,1,0,1,,,,,,,,,,,,,,,,,,,,,,,,,,,,
,,,,,,,,,,,,,,,5fd66ce8aec66457ff73d743,2021-10-27_12h10.14.135,arrow_simon_punish,2021.1.2,Win32,60.0240096,,,,w,2.514,2,0,2,0,1,,,,,,,,,,,,,,,,,,,,,,,,,,,,
,,,,,,,,,,,,,,,5fd66ce8aec66457ff73d743,2021-10-27_12h10.14.135,arrow_simon_punish,2021.1.2,Win32,60.0240096,,,,w,2.736,3,0,3,0,1,,,,,,,,,,,,,,,,,,,,,,,,,,,,
,,,,,,,,,,,,,,,5fd66ce8aec66457ff73d743,2021-10-27_12h10.14.135,arrow_simon_punish,2021.1.2,Win32,60.0240096,,,,w,2.595,4,0,4,0,1,,,,,,,,,,,,,,,,,,,,,,,,,,,,
,,,,,,,,,,,,,,,5fd66ce8aec66457ff73d743,2021-10-27_12h10.14.135,arrow_simon_punish,2021.1.2,Win32,60.0240096,,,,w,2.551,5,0,5,0,1,,,,,,,,,,,,,,,,,,,,,,,,,,,,
,,,,,,,,,,,,,,,5fd66ce8aec66457ff73d743,2021-10-27_12h10.14.135,arrow_simon_punish,2021.1.2,Win32,60.0240096,,,,w,2,6,0,6,0,1,,,,,,,,,,,,,,,,,,,,,,,,,,,,
,,,,,,,,,,,,,,,5fd66ce8aec66457ff73d743,2021-10-27_12h10.14.135,arrow_simon_punish,2021.1.2,Win32,60.0240096,,,,w,1.98,7,0,7,0,1,,,,,,,,,,,,,,,,,,,,,,,,,,,,
,,,,,,,,,,,,,,,5fd66ce8aec66457ff73d743,2021-10-27_12h10.14.135,arrow_simon_punish,2021.1.2,Win32,60.0240096,,,,w,2.202,8,0,8,0,1,,,,,,,,,,,,,,,,,,,,,,,,,,,,
,,,,,,,,,,,,,,,5fd66ce8aec66457ff73d743,2021-10-27_12h10.14.135,arrow_simon_punish,2021.1.2,Win32,60.0240096,,,,w,2.796,9,0,9,0,1,,,,,,,,,,,,,,,,,,,,,,,,,,,,
,,,,,,,,,,,,,,,5fd66ce8aec66457ff73d743,2021-10-27_12h10.14.135,arrow_simon_punish,2021.1.2,Win32,60.0240096,,,,w,2.635,10,0,10,0,1,,,,,,,,,,,,,,,,,,,,,,,,,,,,
,,,,,,,,,,,,,,,5fd66ce8aec66457ff73d743,2021-10-27_12h10.14.135,arrow_simon_punish,2021.1.2,Win32,60.0240096,,,,w,2.105,11,0,11,0,1,,,,,,,,,,,,,,,,,,,,,,,,,,,,
,,,,,,,,,,,,,,,5fd66ce8aec66457ff73d743,2021-10-27_12h10.14.135,arrow_simon_punish,2021.1.2,Win32,60.0240096,,,,w,2.816,12,0,12,0,1,,,,,,,,,,,,,,,,,,,,,,,,,,,,
,,,,,,,,,,,,,,,5fd66ce8aec66457ff73d743,2021-10-27_12h10.14.135,arrow_simon_punish,2021.1.2,Win32,60.0240096,,,,w,2.501,13,0,13,0,1,,,,,,,,,,,,,,,,,,,,,,,,,,,,
,,,,,,,,,,,,,,,5fd66ce8aec66457ff73d743,2021-10-27_12h10.14.135,arrow_simon_punish,2021.1.2,Win32,60.0240096,,,,w,4.288,14,0,14,0,1,,,,,,,,,,,,,,,,,,,,,,,,,,,,
,,,,,,,,,,,,,,,5fd66ce8aec66457ff73d743,2021-10-27_12h10.14.135,arrow_simon_punish,2021.1.2,Win32,60.0240096,,,,w,2.785,15,0,15,0,1,,,,,,,,,,,,,,,,,,,,,,,,,,,,
,,,,,,,,,,,,,,,5fd66ce8aec66457ff73d743,2021-10-27_12h10.14.135,arrow_simon_punish,2021.1.2,Win32,60.0240096,,,,w,2.433,16,0,16,0,1,,,,,,,,,,,,,,,,,,,,,,,,,,,,
,,,,,,,,,,,,,,,5fd66ce8aec66457ff73d743,2021-10-27_12h10.14.135,arrow_simon_punish,2021.1.2,Win32,60.0240096,,,,w,2.652,17,0,17,0,1,,,,,,,,,,,,,,,,,,,,,,,,,,,,
,,,,,,,,,,,,,,,5fd66ce8aec66457ff73d743,2021-10-27_12h10.14.135,arrow_simon_punish,2021.1.2,Win32,60.0240096,,,,w,2.292,18,0,18,0,1,,,,,,,,,,,,,,,,,,,,,,,,,,,,
,,,,,,,,,,,,,,,5fd66ce8aec66457ff73d743,2021-10-27_12h10.14.135,arrow_simon_punish,2021.1.2,Win32,60.0240096,,,,w,2.266,19,0,19,0,1,,,,,,,,,,,,,,,,,,,,,,,,,,,,
,,,,,,,,,,,,,,,5fd66ce8aec66457ff73d743,2021-10-27_12h10.14.135,arrow_simon_punish,2021.1.2,Win32,60.0240096,,,,w,2.704,20,0,20,0,1,,,,,,,,,,,,,,,,,,,,,,,,,,,,
,,,,,,,,,,,,,,,5fd66ce8aec66457ff73d743,2021-10-27_12h10.14.135,arrow_simon_punish,2021.1.2,Win32,60.0240096,,,,w,2.767,21,0,21,0,1,,,,,,,,,,,,,,,,,,,,,,,,,,,,
,,,,,,,,,,,,,,,5fd66ce8aec66457ff73d743,2021-10-27_12h10.14.135,arrow_simon_punish,2021.1.2,Win32,60.0240096,,,,w,2.789,22,0,22,0,1,,,,,,,,,,,,,,,,,,,,,,,,,,,,
,,,,,,,,,,,,,,,5fd66ce8aec66457ff73d743,2021-10-27_12h10.14.135,arrow_simon_punish,2021.1.2,Win32,60.0240096,,,,p,2.649,23,0,23,0,1,,,,,,,,,,,,,,,,,,,,,,,,,,,,
,,,,,,,,,,,,,,,5fd66ce8aec66457ff73d743,2021-10-27_12h10.14.135,arrow_simon_punish,2021.1.2,Win32,60.0240096,,,,p,2.668,24,0,24,0,1,,,,,,,,,,,,,,,,,,,,,,,,,,,,
,,,,,,,,,,,,,,,5fd66ce8aec66457ff73d743,2021-10-27_12h10.14.135,arrow_simon_punish,2021.1.2,Win32,60.0240096,,,,p,2.669,25,0,25,0,1,,,,,,,,,,,,,,,,,,,,,,,,,,,,
,,,,,,,,,,,,,,,5fd66ce8aec66457ff73d743,2021-10-27_12h10.14.135,arrow_simon_punish,2021.1.2,Win32,60.0240096,,,,w,2.383,26,0,26,0,1,,,,,,,,,,,,,,,,,,,,,,,,,,,,
,,,,,,,,,,,,,,,5fd66ce8aec66457ff73d743,2021-10-27_12h10.14.135,arrow_simon_punish,2021.1.2,Win32,60.0240096,,,,w,2.666,27,0,27,0,1,,,,,,,,,,,,,,,,,,,,,,,,,,,,
,,,,,,,,,,,,,,,5fd66ce8aec66457ff73d743,2021-10-27_12h10.14.135,arrow_simon_punish,2021.1.2,Win32,60.0240096,,,,w,2.372,28,0,28,0,1,,,,,,,,,,,,,,,,,,,,,,,,,,,,
,,,,,,,,,,,,,,,5fd66ce8aec66457ff73d743,2021-10-27_12h10.14.135,arrow_simon_punish,2021.1.2,Win32,60.0240096,,,,w,2.602,29,0,29,0,1,,,,,,,,,,,,,,,,,,,,,,,,,,,,
,,,,,,,,,,,,,,,5fd66ce8aec66457ff73d743,2021-10-27_12h10.14.135,arrow_simon_punish,2021.1.2,Win32,60.0240096,,,,w,2.779,30,0,30,0,1,,,,,,,,,,,,,,,,,,,,,,,,,,,,
,,,,,,,,,,,,,,,5fd66ce8aec66457ff73d743,2021-10-27_12h10.14.135,arrow_simon_punish,2021.1.2,Win32,60.0240096,,,,w,2.856,31,0,31,0,1,,,,,,,,,,,,,,,,,,,,,,,,,,,,
,,,,,,,,,,,,,,,5fd66ce8aec66457ff73d743,2021-10-27_12h10.14.135,arrow_simon_punish,2021.1.2,Win32,60.0240096,,,,w,2.684,32,0,32,0,1,,,,,,,,,,,,,,,,,,,,,,,,,,,,
,,,,,,,,,,,,,,,5fd66ce8aec66457ff73d743,2021-10-27_12h10.14.135,arrow_simon_punish,2021.1.2,Win32,60.0240096,,,,w,2.265,33,0,33,0,1,,,,,,,,,,,,,,,,,,,,,,,,,,,,
,,,,,,,,,,,,,,,5fd66ce8aec66457ff73d743,2021-10-27_12h10.14.135,arrow_simon_punish,2021.1.2,Win32,60.0240096,,,,w,2.723,34,0,34,0,1,,,,,,,,,,,,,,,,,,,,,,,,,,,,
,,,,,,,,,,,,,,,5fd66ce8aec66457ff73d743,2021-10-27_12h10.14.135,arrow_simon_punish,2021.1.2,Win32,60.0240096,,,,w,3.217,35,0,35,0,1,,,,,,,,,,,,,,,,,,,,,,,,,,,,
,,,,,,,,,,,,,,,5fd66ce8aec66457ff73d743,2021-10-27_12h10.14.135,arrow_simon_punish,2021.1.2,Win32,60.0240096,,,,w,2.682,36,0,36,0,1,,,,,,,,,,,,,,,,,,,,,,,,,,,,
,,,,,,,,,,,,,,,5fd66ce8aec66457ff73d743,2021-10-27_12h10.14.135,arrow_simon_punish,2021.1.2,Win32,60.0240096,,,,w,2.835,37,0,37,0,1,,,,,,,,,,,,,,,,,,,,,,,,,,,,
,,,,,,,,,,,,,,,5fd66ce8aec66457ff73d743,2021-10-27_12h10.14.135,arrow_simon_punish,2021.1.2,Win32,60.0240096,,,,w,2.585,38,0,38,0,1,,,,,,,,,,,,,,,,,,,,,,,,,,,,
,,,,,,,,,,,,,,,5fd66ce8aec66457ff73d743,2021-10-27_12h10.14.135,arrow_simon_punish,2021.1.2,Win32,60.0240096,,,,w,2.921,39,0,39,0,1,,,,,,,,,,,,,,,,,,,,,,,,,,,,
,,,,,,,,,,,,,,,5fd66ce8aec66457ff73d743,2021-10-27_12h10.14.135,arrow_simon_punish,2021.1.2,Win32,60.0240096,,,,w,2.603,40,0,40,0,1,,,,,,,,,,,,,,,,,,,,,,,,,,,,
,,,,,,,,,,,,,,,5fd66ce8aec66457ff73d743,2021-10-27_12h10.14.135,arrow_simon_punish,2021.1.2,Win32,60.0240096,,,,w,2.453,41,0,41,0,1,,,,,,,,,,,,,,,,,,,,,,,,,,,,
,,,,,,,,,,,,,,,5fd66ce8aec66457ff73d743,2021-10-27_12h10.14.135,arrow_simon_punish,2021.1.2,Win32,60.0240096,,,,w,2.287,42,0,42,0,1,,,,,,,,,,,,,,,,,,,,,,,,,,,,
,,,,,,,,,,,,,,,5fd66ce8aec66457ff73d743,2021-10-27_12h10.14.135,arrow_simon_punish,2021.1.2,Win32,60.0240096,,,,w,2.633,43,0,43,0,1,,,,,,,,,,,,,,,,,,,,,,,,,,,,
,,,,,,,,,,,,,,,5fd66ce8aec66457ff73d743,2021-10-27_12h10.14.135,arrow_simon_punish,2021.1.2,Win32,60.0240096,,,,w,2.766,44,0,44,0,1,,,,,,,,,,,,,,,,,,,,,,,,,,,,
,,,,,,,,,,,,,,,5fd66ce8aec66457ff73d743,2021-10-27_12h10.14.135,arrow_simon_punish,2021.1.2,Win32,60.0240096,,,,w,2.569,45,0,45,0,1,,,,,,,,,,,,,,,,,,,,,,,,,,,,
,,,,,,,,,,,,,,,5fd66ce8aec66457ff73d743,2021-10-27_12h10.14.135,arrow_simon_punish,2021.1.2,Win32,60.0240096,,,,w,2.974,46,0,46,0,1,,,,,,,,,,,,,,,,,,,,,,,,,,,,
,,,,,,,,,,,,,,,5fd66ce8aec66457ff73d743,2021-10-27_12h10.14.135,arrow_simon_punish,2021.1.2,Win32,60.0240096,,,,w,2.252,47,0,47,0,1,,,,,,,,,,,,,,,,,,,,,,,,,,,,
,,,,,,,,,,,,,,,5fd66ce8aec66457ff73d743,2021-10-27_12h10.14.135,arrow_simon_punish,2021.1.2,Win32,60.0240096,,,,w,2.681,48,0,48,0,1,,,,,,,,,,,,,,,,,,,,,,,,,,,,
,,,,,,,,,,,,,,,5fd66ce8aec66457ff73d743,2021-10-27_12h10.14.135,arrow_simon_punish,2021.1.2,Win32,60.0240096,,,,w,2.517,49,0,49,0,1,,,,,,,,,,,,,,,,,,,,,,,,,,,,
,,,,,,,,,,,,,,,5fd66ce8aec66457ff73d743,2021-10-27_12h10.14.135,arrow_simon_punish,2021.1.2,Win32,60.0240096,,,,w,2.677,50,0,50,0,1,,,,,,,,,,,,,,,,,,,,,,,,,,,,
,,,,,,,,,,,,,,,5fd66ce8aec66457ff73d743,2021-10-27_12h10.14.135,arrow_simon_punish,2021.1.2,Win32,60.0240096,,,,w,2.251,51,0,51,0,1,,,,,,,,,,,,,,,,,,,,,,,,,,,,
,,,,,,,,,,,,,,,5fd66ce8aec66457ff73d743,2021-10-27_12h10.14.135,arrow_simon_punish,2021.1.2,Win32,60.0240096,,,,w,2.743,52,0,52,0,1,,,,,,,,,,,,,,,,,,,,,,,,,,,,
,,,,,,,,,,,,,,,5fd66ce8aec66457ff73d743,2021-10-27_12h10.14.135,arrow_simon_punish,2021.1.2,Win32,60.0240096,,,,w,2.654,53,0,53,0,1,,,,,,,,,,,,,,,,,,,,,,,,,,,,
,,,,,,,,,,,,,,,5fd66ce8aec66457ff73d743,2021-10-27_12h10.14.135,arrow_simon_punish,2021.1.2,Win32,60.0240096,,,,w,2.94,54,0,54,0,1,,,,,,,,,,,,,,,,,,,,,,,,,,,,
,,,,,,,,,,,,,,,5fd66ce8aec66457ff73d743,2021-10-27_12h10.14.135,arrow_simon_punish,2021.1.2,Win32,60.0240096,,,,w,2.441,55,0,55,0,1,,,,,,,,,,,,,,,,,,,,,,,,,,,,
,,,,,,,,,,,,,,,5fd66ce8aec66457ff73d743,2021-10-27_12h10.14.135,arrow_simon_punish,2021.1.2,Win32,60.0240096,,,,w,2.676,56,0,56,0,1,,,,,,,,,,,,,,,,,,,,,,,,,,,,
,,,,,,,,,,,,,,,5fd66ce8aec66457ff73d743,2021-10-27_12h10.14.135,arrow_simon_punish,2021.1.2,Win32,60.0240096,,,,w,2.549,57,0,57,0,1,,,,,,,,,,,,,,,,,,,,,,,,,,,,
,,,,,,,,,,,,,,,5fd66ce8aec66457ff73d743,2021-10-27_12h10.14.135,arrow_simon_punish,2021.1.2,Win32,60.0240096,,,,w,2.626,58,0,58,0,1,,,,,,,,,,,,,,,,,,,,,,,,,,,,
,,,,,,,,,,,,,,,5fd66ce8aec66457ff73d743,2021-10-27_12h10.14.135,arrow_simon_punish,2021.1.2,Win32,60.0240096,,,,w,2.469,59,0,59,0,1,,,,,,,,,,,,,,,,,,,,,,,,,,,,
,,,,,,,,,,,right.png,,p,right,5fd66ce8aec66457ff73d743,2021-10-27_12h10.14.135,arrow_simon_punish,2021.1.2,Win32,60.0240096,,,,,,,,,,,space,0,177.623,p,1,1.356,1.885944723,1,1,0,0,0,1,1,,,,,,,,,,,,,,
,,,,,,,,,,,left.png,,w,right,5fd66ce8aec66457ff73d743,2021-10-27_12h10.14.135,arrow_simon_punish,2021.1.2,Win32,60.0240096,,,,,,,,,,,,,,w,1,1.666,2.06369559,1,1,0,1,1,3,1,,,,,,,,,,,,,,
,,,,,,,,,,,right.png,,p,right,5fd66ce8aec66457ff73d743,2021-10-27_12h10.14.135,arrow_simon_punish,2021.1.2,Win32,60.0240096,,,,,,,,,,,,,,p,1,1.921,2.487208784,1,1,0,2,2,1,1,,,,,,,,,,,,,,
,,,,,,,,,,,left.png,,w,right,5fd66ce8aec66457ff73d743,2021-10-27_12h10.14.135,arrow_simon_punish,2021.1.2,Win32,60.0240096,,,,,,,,,,,,,,p,0,1.415,2.46417437,1,1,0,3,3,3,1,,,,,,,,,,,,,,
,,,,,,,,,,,left.png,,w,left,5fd66ce8aec66457ff73d743,2021-10-27_12h10.14.135,arrow_simon_punish,2021.1.2,Win32,60.0240096,,,,,,,,,,,,,,w,1,1.402,1.847019881,0,1,1,0,4,2,1,,,,,,,,,,,,,,
,,,,,,,,,,,right.png,,p,right,5fd66ce8aec66457ff73d743,2021-10-27_12h10.14.135,arrow_simon_punish,2021.1.2,Win32,60.0240096,,,,,,,,,,,,,,p,1,1.603,2.234361193,1,1,1,1,5,1,1,,,,,,,,,,,,,,
,,,,,,,,,,,right.png,,p,left,5fd66ce8aec66457ff73d743,2021-10-27_12h10.14.135,arrow_simon_punish,2021.1.2,Win32,60.0240096,,,,,,,,,,,,,,w,0,1.436,2.1050466,1,1,1,2,6,0,1,,,,,,,,,,,,,,
,,,,,,,,,,,right.png,,p,left,5fd66ce8aec66457ff73d743,2021-10-27_12h10.14.135,arrow_simon_punish,2021.1.2,Win32,60.0240096,,,,,,,,,,,,,,w,0,1.458,1.570028588,1,1,1,3,7,0,1,,,,,,,,,,,,,,
,,,,,,,,,,,left.png,,w,right,5fd66ce8aec66457ff73d743,2021-10-27_12h10.14.135,arrow_simon_punish,2021.1.2,Win32,60.0240096,,,,,,,,,,,,,,w,1,2.202,2.411509045,1,1,2,0,8,3,1,,,,,,,,,,,,,,
,,,,,,,,,,,right.png,,p,right,5fd66ce8aec66457ff73d743,2021-10-27_12h10.14.135,arrow_simon_punish,2021.1.2,Win32,60.0240096,,,,,,,,,,,,,,w,0,1.607,1.774658245,1,1,2,1,9,1,1,,,,,,,,,,,,,,
,,,,,,,,,,,right.png,,p,right,5fd66ce8aec66457ff73d743,2021-10-27_12h10.14.135,arrow_simon_punish,2021.1.2,Win32,60.0240096,,,,,,,,,,,,,,p,1,1.069,1.665884454,1,1,2,2,10,1,1,,,,,,,,,,,,,,
,,,,,,,,,,,left.png,,w,left,5fd66ce8aec66457ff73d743,2021-10-27_12h10.14.135,arrow_simon_punish,2021.1.2,Win32,60.0240096,,,,,,,,,,,,,,w,1,1.305,1.904723986,1,1,2,3,11,2,1,,,,,,,,,,,,,,
,,,,,,,,,,,right.png,,p,right,5fd66ce8aec66457ff73d743,2021-10-27_12h10.14.135,arrow_simon_punish,2021.1.2,Win32,60.0240096,,,,,,,,,,,,,,p,1,1.219,1.812887438,1,1,3,0,12,1,1,,,,,,,,,,,,,,
,,,,,,,,,,,left.png,,w,left,5fd66ce8aec66457ff73d743,2021-10-27_12h10.14.135,arrow_simon_punish,2021.1.2,Win32,60.0240096,,,,,,,,,,,,,,w,1,1.417,2.009603149,0,1,3,1,13,2,1,,,,,,,,,,,,,,
,,,,,,,,,,,left.png,,w,right,5fd66ce8aec66457ff73d743,2021-10-27_12h10.14.135,arrow_simon_punish,2021.1.2,Win32,60.0240096,,,,,,,,,,,,,,w,1,1.986,2.450982653,1,1,3,2,14,3,1,,,,,,,,,,,,,,
,,,,,,,,,,,left.png,,w,right,5fd66ce8aec66457ff73d743,2021-10-27_12h10.14.135,arrow_simon_punish,2021.1.2,Win32,60.0240096,,,,,,,,,,,,,,w,1,1.285,1.84780318,1,1,3,3,15,3,1,,,,,,,,,,,,,,
,,,,,,,,,,,right.png,,p,right,5fd66ce8aec66457ff73d743,2021-10-27_12h10.14.135,arrow_simon_punish,2021.1.2,Win32,60.0240096,,,,,,,,,,,,,,p,1,0.634,1.757933275,1,1,4,0,16,1,1,,,,,,,,,,,,,,
,,,,,,,,,,,left.png,,w,left,5fd66ce8aec66457ff73d743,2021-10-27_12h10.14.135,arrow_simon_punish,2021.1.2,Win32,60.0240096,,,,,,,,,,,,,,w,1,1.417,2.059982855,0,1,4,1,17,2,1,,,,,,,,,,,,,,
,,,,,,,,,,,left.png,,w,right,5fd66ce8aec66457ff73d743,2021-10-27_12h10.14.135,arrow_simon_punish,2021.1.2,Win32,60.0240096,,,,,,,,,,,,,,w,1,2.451,2.295198863,1,1,4,2,18,3,1,,,,,,,,,,,,,,
,,,,,,,,,,,left.png,,w,right,5fd66ce8aec66457ff73d743,2021-10-27_12h10.14.135,arrow_simon_punish,2021.1.2,Win32,60.0240096,,,,,,,,,,,,,,w,1,1.252,1.560512548,1,1,4,3,19,3,1,,,,,,,,,,,,,,
,,,,,,,,,,,left.png,,w,right,5fd66ce8aec66457ff73d743,2021-10-27_12h10.14.135,arrow_simon_punish,2021.1.2,Win32,60.0240096,,,,,,,,,,,,,,w,1,2.403,2.263542492,1,1,5,0,20,3,1,,,,,,,,,,,,,,
,,,,,,,,,,,right.png,,p,left,5fd66ce8aec66457ff73d743,2021-10-27_12h10.14.135,arrow_simon_punish,2021.1.2,Win32,60.0240096,,,,,,,,,,,,,,p,1,1.877,1.594598153,1,1,5,1,21,0,1,,,,,,,,,,,,,,
,,,,,,,,,,,left.png,,w,right,5fd66ce8aec66457ff73d743,2021-10-27_12h10.14.135,arrow_simon_punish,2021.1.2,Win32,60.0240096,,,,,,,,,,,,,,w,1,1.706,2.08770967,1,1,5,2,22,3,1,,,,,,,,,,,,,,
,,,,,,,,,,,right.png,,p,left,5fd66ce8aec66457ff73d743,2021-10-27_12h10.14.135,arrow_simon_punish,2021.1.2,Win32,60.0240096,,,,,,,,,,,,,,p,1,1.869,1.77943997,1,1,5,3,23,0,1,,,,,,,,,,,,,,
,,,,,,,,,,,left.png,,w,left,5fd66ce8aec66457ff73d743,2021-10-27_12h10.14.135,arrow_simon_punish,2021.1.2,Win32,60.0240096,,,,,,,,,,,,,,w,1,2.168,2.212629975,1,1,6,0,24,2,1,,,,,,,,,,,,,,
,,,,,,,,,,,left.png,,w,left,5fd66ce8aec66457ff73d743,2021-10-27_12h10.14.135,arrow_simon_punish,2021.1.2,Win32,60.0240096,,,,,,,,,,,,,,w,1,1.22,1.781624349,1,1,6,1,25,2,1,,,,,,,,,,,,,,
,,,,,,,,,,,left.png,,w,left,5fd66ce8aec66457ff73d743,2021-10-27_12h10.14.135,arrow_simon_punish,2021.1.2,Win32,60.0240096,,,,,,,,,,,,,,w,1,2.046,1.771079756,1,1,6,2,26,2,1,,,,,,,,,,,,,,
,,,,,,,,,,,right.png,,p,left,5fd66ce8aec66457ff73d743,2021-10-27_12h10.14.135,arrow_simon_punish,2021.1.2,Win32,60.0240096,,,,,,,,,,,,,,p,1,1.669,2.086078082,1,1,6,3,27,0,1,,,,,,,,,,,,,,
,,,,,,,,,,,left.png,,w,right,5fd66ce8aec66457ff73d743,2021-10-27_12h10.14.135,arrow_simon_punish,2021.1.2,Win32,60.0240096,,,,,,,,,,,,,,w,1,2.451,2.403100147,1,1,7,0,28,3,1,,,,,,,,,,,,,,
,,,,,,,,,,,left.png,,w,right,5fd66ce8aec66457ff73d743,2021-10-27_12h10.14.135,arrow_simon_punish,2021.1.2,Win32,60.0240096,,,,,,,,,,,,,,w,1,1.871,2.372144613,1,1,7,1,29,3,1,,,,,,,,,,,,,,
,,,,,,,,,,,left.png,,w,left,5fd66ce8aec66457ff73d743,2021-10-27_12h10.14.135,arrow_simon_punish,2021.1.2,Win32,60.0240096,,,,,,,,,,,,,,w,1,1.542,1.880830504,0,1,7,2,30,2,1,,,,,,,,,,,,,,
,,,,,,,,,,,right.png,,p,left,5fd66ce8aec66457ff73d743,2021-10-27_12h10.14.135,arrow_simon_punish,2021.1.2,Win32,60.0240096,,,,,,,,,,,,,,p,1,1.633,2.020987478,1,1,7,3,31,0,1,,,,,,,,,,,,,,
,,,,,,,,,,,left.png,,w,left,5fd66ce8aec66457ff73d743,2021-10-27_12h10.14.135,arrow_simon_punish,2021.1.2,Win32,60.0240096,,,,,,,,,,,,,,w,1,2.13,1.9652646,1,1,8,0,32,2,1,,,,,,,,,,,,,,
,,,,,,,,,,,left.png,,w,right,5fd66ce8aec66457ff73d743,2021-10-27_12h10.14.135,arrow_simon_punish,2021.1.2,Win32,60.0240096,,,,,,,,,,,,,,w,1,1.737,2.232034148,1,1,8,1,33,3,1,,,,,,,,,,,,,,
,,,,,,,,,,,right.png,,p,right,5fd66ce8aec66457ff73d743,2021-10-27_12h10.14.135,arrow_simon_punish,2021.1.2,Win32,60.0240096,,,,,,,,,,,,,,p,1,1.852,1.737325837,1,1,8,2,34,1,1,,,,,,,,,,,,,,
,,,,,,,,,,,right.png,,p,right,5fd66ce8aec66457ff73d743,2021-10-27_12h10.14.135,arrow_simon_punish,2021.1.2,Win32,60.0240096,,,,,,,,,,,,,,p,1,1.668,2.268996617,1,1,8,3,35,1,1,,,,,,,,,,,,,,
,,,,,,,,,,,left.png,,w,left,5fd66ce8aec66457ff73d743,2021-10-27_12h10.14.135,arrow_simon_punish,2021.1.2,Win32,60.0240096,,,,,,,,,,,,,,w,1,1.365,1.990798567,1,1,9,0,36,2,1,,,,,,,,,,,,,,
,,,,,,,,,,,right.png,,p,right,5fd66ce8aec66457ff73d743,2021-10-27_12h10.14.135,arrow_simon_punish,2021.1.2,Win32,60.0240096,,,,,,,,,,,,,,p,1,1.254,1.760754764,1,1,9,1,37,1,1,,,,,,,,,,,,,,
,,,,,,,,,,,right.png,,p,right,5fd66ce8aec66457ff73d743,2021-10-27_12h10.14.135,arrow_simon_punish,2021.1.2,Win32,60.0240096,,,,,,,,,,,,,,p,1,1.935,2.417035384,1,1,9,2,38,1,1,,,,,,,,,,,,,,
,,,,,,,,,,,right.png,,p,right,5fd66ce8aec66457ff73d743,2021-10-27_12h10.14.135,arrow_simon_punish,2021.1.2,Win32,60.0240096,,,,,,,,,,,,,,p,1,1.87,1.93373248,1,1,9,3,39,1,1,,,,,,,,,,,,,,
,,,,,,,,,,,right.png,,p,left,5fd66ce8aec66457ff73d743,2021-10-27_12h10.14.135,arrow_simon_punish,2021.1.2,Win32,60.0240096,,,,,,,,,,,,,,w,0,1.669,2.286219595,1,1,10,0,40,0,1,,,,,,,,,,,,,,
,,,,,,,,,,,right.png,,p,right,5fd66ce8aec66457ff73d743,2021-10-27_12h10.14.135,arrow_simon_punish,2021.1.2,Win32,60.0240096,,,,,,,,,,,,,,p,1,1.856,1.647345147,1,1,10,1,41,1,1,,,,,,,,,,,,,,
,,,,,,,,,,,right.png,,p,left,5fd66ce8aec66457ff73d743,2021-10-27_12h10.14.135,arrow_simon_punish,2021.1.2,Win32,60.0240096,,,,,,,,,,,,,,p,1,1.922,1.924754695,1,1,10,2,42,0,1,,,,,,,,,,,,,,
,,,,,,,,,,,left.png,,w,left,5fd66ce8aec66457ff73d743,2021-10-27_12h10.14.135,arrow_simon_punish,2021.1.2,Win32,60.0240096,,,,,,,,,,,,,,w,1,1.769,1.866173646,1,1,10,3,43,2,1,,,,,,,,,,,,,,
,,,,,,,,,,,left.png,,w,right,5fd66ce8aec66457ff73d743,2021-10-27_12h10.14.135,arrow_simon_punish,2021.1.2,Win32,60.0240096,,,,,,,,,,,,,,w,1,1.72,1.836463079,1,1,11,0,44,3,1,,,,,,,,,,,,,,
,,,,,,,,,,,left.png,,w,left,5fd66ce8aec66457ff73d743,2021-10-27_12h10.14.135,arrow_simon_punish,2021.1.2,Win32,60.0240096,,,,,,,,,,,,,,w,1,1.768,1.781050176,1,1,11,1,45,2,1,,,,,,,,,,,,,,
,,,,,,,,,,,right.png,,p,left,5fd66ce8aec66457ff73d743,2021-10-27_12h10.14.135,arrow_simon_punish,2021.1.2,Win32,60.0240096,,,,,,,,,,,,,,w,0,1.888,2.486762043,1,1,11,2,46,0,1,,,,,,,,,,,,,,
,,,,,,,,,,,left.png,,w,left,5fd66ce8aec66457ff73d743,2021-10-27_12h10.14.135,arrow_simon_punish,2021.1.2,Win32,60.0240096,,,,,,,,,,,,,,w,1,1.503,1.518513468,0,1,11,3,47,2,1,,,,,,,,,,,,,,
,,,,,,,,,,,right.png,,p,left,5fd66ce8aec66457ff73d743,2021-10-27_12h10.14.135,arrow_simon_punish,2021.1.2,Win32,60.0240096,,,,,,,,,,,,,,p,1,1.569,1.810061159,0,1,12,0,48,0,1,,,,,,,,,,,,,,
,,,,,,,,,,,left.png,,w,left,5fd66ce8aec66457ff73d743,2021-10-27_12h10.14.135,arrow_simon_punish,2021.1.2,Win32,60.0240096,,,,,,,,,,,,,,w,1,1.573,1.562651912,0,1,12,1,49,2,1,,,,,,,,,,,,,,
,,,,,,,,,,,right.png,,p,right,5fd66ce8aec66457ff73d743,2021-10-27_12h10.14.135,arrow_simon_punish,2021.1.2,Win32,60.0240096,,,,,,,,,,,,,,p,1,1.972,2.402677945,1,1,12,2,50,1,1,,,,,,,,,,,,,,
,,,,,,,,,,,right.png,,p,left,5fd66ce8aec66457ff73d743,2021-10-27_12h10.14.135,arrow_simon_punish,2021.1.2,Win32,60.0240096,,,,,,,,,,,,,,p,1,1.634,1.539566219,1,1,12,3,51,0,1,,,,,,,,,,,,,,
,,,,,,,,,,,right.png,,p,left,5fd66ce8aec66457ff73d743,2021-10-27_12h10.14.135,arrow_simon_punish,2021.1.2,Win32,60.0240096,,,,,,,,,,,,,,p,1,1.82,2.022424671,1,1,13,0,52,0,1,,,,,,,,,,,,,,
,,,,,,,,,,,left.png,,w,right,5fd66ce8aec66457ff73d743,2021-10-27_12h10.14.135,arrow_simon_punish,2021.1.2,Win32,60.0240096,,,,,,,,,,,,,,w,1,1.535,2.039295423,0,1,13,1,53,3,1,,,,,,,,,,,,,,
,,,,,,,,,,,right.png,,p,left,5fd66ce8aec66457ff73d743,2021-10-27_12h10.14.135,arrow_simon_punish,2021.1.2,Win32,60.0240096,,,,,,,,,,,,,,p,1,1.606,2.176068767,1,1,13,2,54,0,1,,,,,,,,,,,,,,
,,,,,,,,,,,left.png,,w,right,5fd66ce8aec66457ff73d743,2021-10-27_12h10.14.135,arrow_simon_punish,2021.1.2,Win32,60.0240096,,,,,,,,,,,,,,p,0,1.703,2.373893827,1,1,13,3,55,3,1,,,,,,,,,,,,,,
,,,,,,,,,,,right.png,,p,left,5fd66ce8aec66457ff73d743,2021-10-27_12h10.14.135,arrow_simon_punish,2021.1.2,Win32,60.0240096,,,,,,,,,,,,,,p,1,1.887,2.024532782,1,1,14,0,56,0,1,,,,,,,,,,,,,,
,,,,,,,,,,,left.png,,w,left,5fd66ce8aec66457ff73d743,2021-10-27_12h10.14.135,arrow_simon_punish,2021.1.2,Win32,60.0240096,,,,,,,,,,,,,,w,1,1.615,2.102561974,1,1,14,1,57,2,1,,,,,,,,,,,,,,
,,,,,,,,,,,right.png,,p,left,5fd66ce8aec66457ff73d743,2021-10-27_12h10.14.135,arrow_simon_punish,2021.1.2,Win32,60.0240096,,,,,,,,,,,,,,p,1,1.85,2.11377726,1,1,14,2,58,0,1,,,,,,,,,,,,,,
,,,,,,,,,,,right.png,,p,right,5fd66ce8aec66457ff73d743,2021-10-27_12h10.14.135,arrow_simon_punish,2021.1.2,Win32,60.0240096,,,,,,,,,,,,,,p,1,1.46,1.501285572,0,1,14,3,59,1,1,,,,,,,,,,,,,,
,,,,,,,,,,,,,,,5fd66ce8aec66457ff73d743,2021-10-27_12h10.14.135,arrow_simon_punish,2021.1.2,Win32,60.0240096,,,,,,,,,,,,,,,,,,,,,,,,,space,70.575,2,0,0,0,0,1,1,,,,,
,,,,,,,,,,,right.png,,p,left,5fd66ce8aec66457ff73d743,2021-10-27_12h10.14.135,arrow_simon_punish,2021.1.2,Win32,60.0240096,,,,,,,,,,,,,,w,0,1.389,2.012610213,1,5,0,0,0,0,1,,,,,,,,,,,,,,
,,,,,,,,,,,right.png,,p,left,5fd66ce8aec66457ff73d743,2021-10-27_12h10.14.135,arrow_simon_punish,2021.1.2,Win32,60.0240096,,,,,,,,,,,,,,w,0,1.916,1.90883973,1,5,0,1,1,0,1,,,,,,,,,,,,,,
,,,,,,,,,,,left.png,,w,right,5fd66ce8aec66457ff73d743,2021-10-27_12h10.14.135,arrow_simon_punish,2021.1.2,Win32,60.0240096,,,,,,,,,,,,,,w,1,1.351,1.534934687,1,5,0,2,2,3,1,,,,,,,,,,,,,,
,,,,,,,,,,,left.png,,w,right,5fd66ce8aec66457ff73d743,2021-10-27_12h10.14.135,arrow_simon_punish,2021.1.2,Win32,60.0240096,,,,,,,,,,,,,,p,0,1.655,1.697154459,1,5,0,3,3,3,1,,,,,,,,,,,,,,
,,,,,,,,,,,left.png,,w,left,5fd66ce8aec66457ff73d743,2021-10-27_12h10.14.135,arrow_simon_punish,2021.1.2,Win32,60.0240096,,,,,,,,,,,,,,w,1,1.502,1.847211002,0,5,1,0,4,2,1,,,,,,,,,,,,,,
,,,,,,,,,,,right.png,,p,left,5fd66ce8aec66457ff73d743,2021-10-27_12h10.14.135,arrow_simon_punish,2021.1.2,Win32,60.0240096,,,,,,,,,,,,,,w,0,2.024,2.15802419,1,5,1,1,5,0,1,,,,,,,,,,,,,,
,,,,,,,,,,,right.png,,p,left,5fd66ce8aec66457ff73d743,2021-10-27_12h10.14.135,arrow_simon_punish,2021.1.2,Win32,60.0240096,,,,,,,,,,,,,,p,1,1.467,1.92579477,0,5,1,2,6,0,1,,,,,,,,,,,,,,
,,,,,,,,,,,right.png,,p,right,5fd66ce8aec66457ff73d743,2021-10-27_12h10.14.135,arrow_simon_punish,2021.1.2,Win32,60.0240096,,,,,,,,,,,,,,p,1,1.204,1.563731603,1,5,1,3,7,1,1,,,,,,,,,,,,,,
,,,,,,,,,,,right.png,,p,right,5fd66ce8aec66457ff73d743,2021-10-27_12h10.14.135,arrow_simon_punish,2021.1.2,Win32,60.0240096,,,,,,,,,,,,,,p,1,1.583,2.225243409,0,5,2,0,8,1,1,,,,,,,,,,,,,,
,,,,,,,,,,,right.png,,p,right,5fd66ce8aec66457ff73d743,2021-10-27_12h10.14.135,arrow_simon_punish,2021.1.2,Win32,60.0240096,,,,,,,,,,,,,,p,1,1.7,1.507952578,1,5,2,1,9,1,1,,,,,,,,,,,,,,
,,,,,,,,,,,right.png,,p,right,5fd66ce8aec66457ff73d743,2021-10-27_12h10.14.135,arrow_simon_punish,2021.1.2,Win32,60.0240096,,,,,,,,,,,,,,p,1,1.72,2.023024957,1,5,2,2,10,1,1,,,,,,,,,,,,,,
,,,,,,,,,,,right.png,,p,right,5fd66ce8aec66457ff73d743,2021-10-27_12h10.14.135,arrow_simon_punish,2021.1.2,Win32,60.0240096,,,,,,,,,,,,,,p,1,2.056,2.447544173,1,5,2,3,11,1,1,,,,,,,,,,,,,,
,,,,,,,,,,,left.png,,w,left,5fd66ce8aec66457ff73d743,2021-10-27_12h10.14.135,arrow_simon_punish,2021.1.2,Win32,60.0240096,,,,,,,,,,,,,,w,1,1.751,2.037095566,1,5,3,0,12,2,1,,,,,,,,,,,,,,
,,,,,,,,,,,right.png,,p,right,5fd66ce8aec66457ff73d743,2021-10-27_12h10.14.135,arrow_simon_punish,2021.1.2,Win32,60.0240096,,,,,,,,,,,,,,p,1,1.562,1.826397614,0,5,3,1,13,1,1,,,,,,,,,,,,,,
,,,,,,,,,,,left.png,,w,right,5fd66ce8aec66457ff73d743,2021-10-27_12h10.14.135,arrow_simon_punish,2021.1.2,Win32,60.0240096,,,,,,,,,,,,,,w,1,1.936,2.488154959,1,5,3,2,14,3,1,,,,,,,,,,,,,,
,,,,,,,,,,,left.png,,w,right,5fd66ce8aec66457ff73d743,2021-10-27_12h10.14.135,arrow_simon_punish,2021.1.2,Win32,60.0240096,,,,,,,,,,,,,,w,1,1.505,2.029740498,0,5,3,3,15,3,1,,,,,,,,,,,,,,
,,,,,,,,,,,left.png,,w,right,5fd66ce8aec66457ff73d743,2021-10-27_12h10.14.135,arrow_simon_punish,2021.1.2,Win32,60.0240096,,,,,,,,,,,,,,w,1,1.636,1.681548334,1,5,4,0,16,3,1,,,,,,,,,,,,,,
,,,,,,,,,,,left.png,,w,left,5fd66ce8aec66457ff73d743,2021-10-27_12h10.14.135,arrow_simon_punish,2021.1.2,Win32,60.0240096,,,,,,,,,,,,,,w,1,1.701,1.798003299,1,5,4,1,17,2,1,,,,,,,,,,,,,,
,,,,,,,,,,,right.png,,p,right,5fd66ce8aec66457ff73d743,2021-10-27_12h10.14.135,arrow_simon_punish,2021.1.2,Win32,60.0240096,,,,,,,,,,,,,,p,1,1.819,2.286979768,1,5,4,2,18,1,1,,,,,,,,,,,,,,
,,,,,,,,,,,right.png,,p,right,5fd66ce8aec66457ff73d743,2021-10-27_12h10.14.135,arrow_simon_punish,2021.1.2,Win32,60.0240096,,,,,,,,,,,,,,p,1,1.58,2.026729581,0,5,4,3,19,1,1,,,,,,,,,,,,,,
,,,,,,,,,,,left.png,,w,right,5fd66ce8aec66457ff73d743,2021-10-27_12h10.14.135,arrow_simon_punish,2021.1.2,Win32,60.0240096,,,,,,,,,,,,,,w,1,1.156,1.518288837,1,5,5,0,20,3,1,,,,,,,,,,,,,,
,,,,,,,,,,,left.png,,w,right,5fd66ce8aec66457ff73d743,2021-10-27_12h10.14.135,arrow_simon_punish,2021.1.2,Win32,60.0240096,,,,,,,,,,,,,,w,1,1.848,2.132918791,1,5,5,1,21,3,1,,,,,,,,,,,,,,
,,,,,,,,,,,left.png,,w,right,5fd66ce8aec66457ff73d743,2021-10-27_12h10.14.135,arrow_simon_punish,2021.1.2,Win32,60.0240096,,,,,,,,,,,,,,w,1,1.604,2.141159786,1,5,5,2,22,3,1,,,,,,,,,,,,,,
,,,,,,,,,,,right.png,,p,left,5fd66ce8aec66457ff73d743,2021-10-27_12h10.14.135,arrow_simon_punish,2021.1.2,Win32,60.0240096,,,,,,,,,,,,,,p,1,1.98,2.06157722,1,5,5,3,23,0,1,,,,,,,,,,,,,,
,,,,,,,,,,,right.png,,p,left,5fd66ce8aec66457ff73d743,2021-10-27_12h10.14.135,arrow_simon_punish,2021.1.2,Win32,60.0240096,,,,,,,,,,,,,,p,1,1.769,1.884344357,1,5,6,0,24,0,1,,,,,,,,,,,,,,
,,,,,,,,,,,right.png,,p,left,5fd66ce8aec66457ff73d743,2021-10-27_12h10.14.135,arrow_simon_punish,2021.1.2,Win32,60.0240096,,,,,,,,,,,,,,p,1,1.905,1.851170259,1,5,6,1,25,0,1,,,,,,,,,,,,,,
,,,,,,,,,,,left.png,,w,right,5fd66ce8aec66457ff73d743,2021-10-27_12h10.14.135,arrow_simon_punish,2021.1.2,Win32,60.0240096,,,,,,,,,,,,,,w,1,1.851,2.308884891,1,5,6,2,26,3,1,,,,,,,,,,,,,,
,,,,,,,,,,,left.png,,w,left,5fd66ce8aec66457ff73d743,2021-10-27_12h10.14.135,arrow_simon_punish,2021.1.2,Win32,60.0240096,,,,,,,,,,,,,,w,1,1.918,2.443958064,1,5,6,3,27,2,1,,,,,,,,,,,,,,
,,,,,,,,,,,right.png,,p,left,5fd66ce8aec66457ff73d743,2021-10-27_12h10.14.135,arrow_simon_punish,2021.1.2,Win32,60.0240096,,,,,,,,,,,,,,w,0,1.151,1.721039491,1,5,7,0,28,0,1,,,,,,,,,,,,,,
,,,,,,,,,,,left.png,,w,right,5fd66ce8aec66457ff73d743,2021-10-27_12h10.14.135,arrow_simon_punish,2021.1.2,Win32,60.0240096,,,,,,,,,,,,,,w,1,1.825,2.081352237,1,5,7,1,29,3,1,,,,,,,,,,,,,,
,,,,,,,,,,,right.png,,p,left,5fd66ce8aec66457ff73d743,2021-10-27_12h10.14.135,arrow_simon_punish,2021.1.2,Win32,60.0240096,,,,,,,,,,,,,,p,1,1.817,2.180953576,1,5,7,2,30,0,1,,,,,,,,,,,,,,
,,,,,,,,,,,left.png,,w,left,5fd66ce8aec66457ff73d743,2021-10-27_12h10.14.135,arrow_simon_punish,2021.1.2,Win32,60.0240096,,,,,,,,,,,,,,w,1,1.767,2.259914196,1,5,7,3,31,2,1,,,,,,,,,,,,,,
,,,,,,,,,,,left.png,,w,left,5fd66ce8aec66457ff73d743,2021-10-27_12h10.14.135,arrow_simon_punish,2021.1.2,Win32,60.0240096,,,,,,,,,,,,,,w,1,1.218,1.637763294,1,5,8,0,32,2,1,,,,,,,,,,,,,,
,,,,,,,,,,,left.png,,w,left,5fd66ce8aec66457ff73d743,2021-10-27_12h10.14.135,arrow_simon_punish,2021.1.2,Win32,60.0240096,,,,,,,,,,,,,,w,1,1.751,2.05626457,1,5,8,1,33,2,1,,,,,,,,,,,,,,
,,,,,,,,,,,left.png,,w,left,5fd66ce8aec66457ff73d743,2021-10-27_12h10.14.135,arrow_simon_punish,2021.1.2,Win32,60.0240096,,,,,,,,,,,,,,w,1,1.202,2.378152492,1,5,8,2,34,2,1,,,,,,,,,,,,,,
,,,,,,,,,,,right.png,,p,right,5fd66ce8aec66457ff73d743,2021-10-27_12h10.14.135,arrow_simon_punish,2021.1.2,Win32,60.0240096,,,,,,,,,,,,,,p,1,1.568,2.142661211,0,5,8,3,35,1,1,,,,,,,,,,,,,,
,,,,,,,,,,,right.png,,p,right,5fd66ce8aec66457ff73d743,2021-10-27_12h10.14.135,arrow_simon_punish,2021.1.2,Win32,60.0240096,,,,,,,,,,,,,,p,1,1.484,1.594564336,0,5,9,0,36,1,1,,,,,,,,,,,,,,
,,,,,,,,,,,left.png,,w,right,5fd66ce8aec66457ff73d743,2021-10-27_12h10.14.135,arrow_simon_punish,2021.1.2,Win32,60.0240096,,,,,,,,,,,,,,w,1,1.202,1.745986386,1,5,9,1,37,3,1,,,,,,,,,,,,,,
,,,,,,,,,,,right.png,,p,right,5fd66ce8aec66457ff73d743,2021-10-27_12h10.14.135,arrow_simon_punish,2021.1.2,Win32,60.0240096,,,,,,,,,,,,,,p,1,2.192,2.060853798,1,5,9,2,38,1,1,,,,,,,,,,,,,,
,,,,,,,,,,,right.png,,p,right,5fd66ce8aec66457ff73d743,2021-10-27_12h10.14.135,arrow_simon_punish,2021.1.2,Win32,60.0240096,,,,,,,,,,,,,,p,1,1.602,2.005703335,1,5,9,3,39,1,1,,,,,,,,,,,,,,
,,,,,,,,,,,left.png,,w,right,5fd66ce8aec66457ff73d743,2021-10-27_12h10.14.135,arrow_simon_punish,2021.1.2,Win32,60.0240096,,,,,,,,,,,,,,w,1,2.062,1.77171433,1,5,10,0,40,3,1,,,,,,,,,,,,,,
,,,,,,,,,,,left.png,,w,left,5fd66ce8aec66457ff73d743,2021-10-27_12h10.14.135,arrow_simon_punish,2021.1.2,Win32,60.0240096,,,,,,,,,,,,,,w,1,1.736,1.985576318,1,5,10,1,41,2,1,,,,,,,,,,,,,,
,,,,,,,,,,,right.png,,p,left,5fd66ce8aec66457ff73d743,2021-10-27_12h10.14.135,arrow_simon_punish,2021.1.2,Win32,60.0240096,,,,,,,,,,,,,,p,1,1.911,1.866909499,1,5,10,2,42,0,1,,,,,,,,,,,,,,
,,,,,,,,,,,left.png,,w,left,5fd66ce8aec66457ff73d743,2021-10-27_12h10.14.135,arrow_simon_punish,2021.1.2,Win32,60.0240096,,,,,,,,,,,,,,w,1,1.802,2.34823379,1,5,10,3,43,2,1,,,,,,,,,,,,,,
,,,,,,,,,,,right.png,,p,left,5fd66ce8aec66457ff73d743,2021-10-27_12h10.14.135,arrow_simon_punish,2021.1.2,Win32,60.0240096,,,,,,,,,,,,,,p,1,1.997,1.679450171,1,5,11,0,44,0,1,,,,,,,,,,,,,,
,,,,,,,,,,,right.png,,p,left,5fd66ce8aec66457ff73d743,2021-10-27_12h10.14.135,arrow_simon_punish,2021.1.2,Win32,60.0240096,,,,,,,,,,,,,,p,1,1.984,2.36844614,1,5,11,1,45,0,1,,,,,,,,,,,,,,
,,,,,,,,,,,right.png,,p,left,5fd66ce8aec66457ff73d743,2021-10-27_12h10.14.135,arrow_simon_punish,2021.1.2,Win32,60.0240096,,,,,,,,,,,,,,p,1,1.965,2.010312249,1,5,11,2,46,0,1,,,,,,,,,,,,,,
,,,,,,,,,,,left.png,,w,right,5fd66ce8aec66457ff73d743,2021-10-27_12h10.14.135,arrow_simon_punish,2021.1.2,Win32,60.0240096,,,,,,,,,,,,,,w,1,1.736,2.200457701,1,5,11,3,47,3,1,,,,,,,,,,,,,,
,,,,,,,,,,,left.png,,w,right,5fd66ce8aec66457ff73d743,2021-10-27_12h10.14.135,arrow_simon_punish,2021.1.2,Win32,60.0240096,,,,,,,,,,,,,,w,1,1.852,1.950155346,1,5,12,0,48,3,1,,,,,,,,,,,,,,
,,,,,,,,,,,left.png,,w,left,5fd66ce8aec66457ff73d743,2021-10-27_12h10.14.135,arrow_simon_punish,2021.1.2,Win32,60.0240096,,,,,,,,,,,,,,w,1,1.202,1.612083859,1,5,12,1,49,2,1,,,,,,,,,,,,,,
,,,,,,,,,,,left.png,,w,left,5fd66ce8aec66457ff73d743,2021-10-27_12h10.14.135,arrow_simon_punish,2021.1.2,Win32,60.0240096,,,,,,,,,,,,,,w,1,2.328,2.25650355,1,5,12,2,50,2,1,,,,,,,,,,,,,,
,,,,,,,,,,,right.png,,p,right,5fd66ce8aec66457ff73d743,2021-10-27_12h10.14.135,arrow_simon_punish,2021.1.2,Win32,60.0240096,,,,,,,,,,,,,,p,1,1.635,2.072098945,1,5,12,3,51,1,1,,,,,,,,,,,,,,
,,,,,,,,,,,left.png,,w,left,5fd66ce8aec66457ff73d743,2021-10-27_12h10.14.135,arrow_simon_punish,2021.1.2,Win32,60.0240096,,,,,,,,,,,,,,w,1,1.288,1.69990436,1,5,13,0,52,2,1,,,,,,,,,,,,,,
,,,,,,,,,,,left.png,,w,left,5fd66ce8aec66457ff73d743,2021-10-27_12h10.14.135,arrow_simon_punish,2021.1.2,Win32,60.0240096,,,,,,,,,,,,,,w,1,1.934,2.390072377,1,5,13,1,53,2,1,,,,,,,,,,,,,,
,,,,,,,,,,,right.png,,p,left,5fd66ce8aec66457ff73d743,2021-10-27_12h10.14.135,arrow_simon_punish,2021.1.2,Win32,60.0240096,,,,,,,,,,,,,,p,1,1.791,1.745370037,1,5,13,2,54,0,1,,,,,,,,,,,,,,
,,,,,,,,,,,left.png,,w,right,5fd66ce8aec66457ff73d743,2021-10-27_12h10.14.135,arrow_simon_punish,2021.1.2,Win32,60.0240096,,,,,,,,,,,,,,w,1,1.918,2.281228277,1,5,13,3,55,3,1,,,,,,,,,,,,,,
,,,,,,,,,,,right.png,,p,right,5fd66ce8aec66457ff73d743,2021-10-27_12h10.14.135,arrow_simon_punish,2021.1.2,Win32,60.0240096,,,,,,,,,,,,,,p,1,1.465,1.999992983,0,5,14,0,56,1,1,,,,,,,,,,,,,,
,,,,,,,,,,,right.png,,p,left,5fd66ce8aec66457ff73d743,2021-10-27_12h10.14.135,arrow_simon_punish,2021.1.2,Win32,60.0240096,,,,,,,,,,,,,,p,1,1.537,1.799344723,0,5,14,1,57,0,1,,,,,,,,,,,,,,
,,,,,,,,,,,left.png,,w,left,5fd66ce8aec66457ff73d743,2021-10-27_12h10.14.135,arrow_simon_punish,2021.1.2,Win32,60.0240096,,,,,,,,,,,,,,w,1,1.834,1.970895691,1,5,14,2,58,2,1,,,,,,,,,,,,,,
,,,,,,,,,,,right.png,,p,right,5fd66ce8aec66457ff73d743,2021-10-27_12h10.14.135,arrow_simon_punish,2021.1.2,Win32,60.0240096,,,,,,,,,,,,,,p,1,1.685,2.207870458,1,5,14,3,59,1,1,,,,,,,,,,,,,,
,,,,,,,,,,,,,,,5fd66ce8aec66457ff73d743,2021-10-27_12h10.14.135,arrow_simon_punish,2021.1.2,Win32,60.0240096,,,,,,,,,,,,,,,,,,,,,,,,,space,30.598,3,0,1,1,1,1,5,,,,,
,,,,,,,,,,,right.png,,p,left,5fd66ce8aec66457ff73d743,2021-10-27_12h10.14.135,arrow_simon_punish,2021.1.2,Win32,60.0240096,,,,,,,,,,,,,,p,1,1.918,1.681019201,1,1,0,0,0,0,1,,,,,,,,,,,,,,
,,,,,,,,,,,right.png,,p,left,5fd66ce8aec66457ff73d743,2021-10-27_12h10.14.135,arrow_simon_punish,2021.1.2,Win32,60.0240096,,,,,,,,,,,,,,p,1,1.368,1.892525491,1,1,0,1,1,0,1,,,,,,,,,,,,,,
,,,,,,,,,,,right.png,,p,right,5fd66ce8aec66457ff73d743,2021-10-27_12h10.14.135,arrow_simon_punish,2021.1.2,Win32,60.0240096,,,,,,,,,,,,,,p,1,1.834,1.78330885,1,1,0,2,2,1,1,,,,,,,,,,,,,,
,,,,,,,,,,,right.png,,p,right,5fd66ce8aec66457ff73d743,2021-10-27_12h10.14.135,arrow_simon_punish,2021.1.2,Win32,60.0240096,,,,,,,,,,,,,,p,1,0.855,1.538013146,1,1,0,3,3,1,1,,,,,,,,,,,,,,
,,,,,,,,,,,right.png,,p,left,5fd66ce8aec66457ff73d743,2021-10-27_12h10.14.135,arrow_simon_punish,2021.1.2,Win32,60.0240096,,,,,,,,,,,,,,p,1,1.537,1.578372338,0,1,1,0,4,0,1,,,,,,,,,,,,,,
,,,,,,,,,,,right.png,,p,right,5fd66ce8aec66457ff73d743,2021-10-27_12h10.14.135,arrow_simon_punish,2021.1.2,Win32,60.0240096,,,,,,,,,,,,,,p,1,1.868,1.836717448,1,1,1,1,5,1,1,,,,,,,,,,,,,,
,,,,,,,,,,,left.png,,w,right,5fd66ce8aec66457ff73d743,2021-10-27_12h10.14.135,arrow_simon_punish,2021.1.2,Win32,60.0240096,,,,,,,,,,,,,,w,1,1.819,2.16043508,1,1,1,2,6,3,1,,,,,,,,,,,,,,
,,,,,,,,,,,left.png,,w,left,5fd66ce8aec66457ff73d743,2021-10-27_12h10.14.135,arrow_simon_punish,2021.1.2,Win32,60.0240096,,,,,,,,,,,,,,w,1,1.726,2.234880949,1,1,1,3,7,2,1,,,,,,,,,,,,,,
,,,,,,,,,,,left.png,,w,left,5fd66ce8aec66457ff73d743,2021-10-27_12h10.14.135,arrow_simon_punish,2021.1.2,Win32,60.0240096,,,,,,,,,,,,,,w,1,1.585,1.800796374,0,1,2,0,8,2,1,,,,,,,,,,,,,,
,,,,,,,,,,,right.png,,p,right,5fd66ce8aec66457ff73d743,2021-10-27_12h10.14.135,arrow_simon_punish,2021.1.2,Win32,60.0240096,,,,,,,,,,,,,,p,1,1.898,2.28066633,1,1,2,1,9,1,1,,,,,,,,,,,,,,
,,,,,,,,,,,left.png,,w,left,5fd66ce8aec66457ff73d743,2021-10-27_12h10.14.135,arrow_simon_punish,2021.1.2,Win32,60.0240096,,,,,,,,,,,,,,w,1,1.453,1.868884268,0,1,2,2,10,2,1,,,,,,,,,,,,,,
,,,,,,,,,,,right.png,,p,left,5fd66ce8aec66457ff73d743,2021-10-27_12h10.14.135,arrow_simon_punish,2021.1.2,Win32,60.0240096,,,,,,,,,,,,,,w,0,2.321,2.417155372,1,1,2,3,11,0,1,,,,,,,,,,,,,,
,,,,,,,,,,,right.png,,p,right,5fd66ce8aec66457ff73d743,2021-10-27_12h10.14.135,arrow_simon_punish,2021.1.2,Win32,60.0240096,,,,,,,,,,,,,,p,1,1.421,1.909639182,0,1,3,0,12,1,1,,,,,,,,,,,,,,
,,,,,,,,,,,left.png,,w,right,5fd66ce8aec66457ff73d743,2021-10-27_12h10.14.135,arrow_simon_punish,2021.1.2,Win32,60.0240096,,,,,,,,,,,,,,w,1,1.786,1.99163599,1,1,3,1,13,3,1,,,,,,,,,,,,,,
,,,,,,,,,,,right.png,,p,left,5fd66ce8aec66457ff73d743,2021-10-27_12h10.14.135,arrow_simon_punish,2021.1.2,Win32,60.0240096,,,,,,,,,,,,,,p,1,1.818,2.180193818,1,1,3,2,14,0,1,,,,,,,,,,,,,,
,,,,,,,,,,,right.png,,p,right,5fd66ce8aec66457ff73d743,2021-10-27_12h10.14.135,arrow_simon_punish,2021.1.2,Win32,60.0240096,,,,,,,,,,,,,,p,1,2.286,2.213336981,1,1,3,3,15,1,1,,,,,,,,,,,,,,
,,,,,,,,,,,left.png,,w,left,5fd66ce8aec66457ff73d743,2021-10-27_12h10.14.135,arrow_simon_punish,2021.1.2,Win32,60.0240096,,,,,,,,,,,,,,p,0,1.519,1.758098608,1,1,4,0,16,2,1,,,,,,,,,,,,,,
,,,,,,,,,,,right.png,,p,left,5fd66ce8aec66457ff73d743,2021-10-27_12h10.14.135,arrow_simon_punish,2021.1.2,Win32,60.0240096,,,,,,,,,,,,,,p,1,1.852,1.787532225,1,1,4,1,17,0,1,,,,,,,,,,,,,,
,,,,,,,,,,,left.png,,w,right,5fd66ce8aec66457ff73d743,2021-10-27_12h10.14.135,arrow_simon_punish,2021.1.2,Win32,60.0240096,,,,,,,,,,,,,,w,1,1.919,1.830555307,1,1,4,2,18,3,1,,,,,,,,,,,,,,
,,,,,,,,,,,left.png,,w,right,5fd66ce8aec66457ff73d743,2021-10-27_12h10.14.135,arrow_simon_punish,2021.1.2,Win32,60.0240096,,,,,,,,,,,,,,w,1,1.632,1.987693211,1,1,4,3,19,3,1,,,,,,,,,,,,,,
,,,,,,,,,,,left.png,,w,right,5fd66ce8aec66457ff73d743,2021-10-27_12h10.14.135,arrow_simon_punish,2021.1.2,Win32,60.0240096,,,,,,,,,,,,,,w,1,2.001,2.465718124,1,1,5,0,20,3,1,,,,,,,,,,,,,,
,,,,,,,,,,,left.png,,w,left,5fd66ce8aec66457ff73d743,2021-10-27_12h10.14.135,arrow_simon_punish,2021.1.2,Win32,60.0240096,,,,,,,,,,,,,,w,1,1.742,2.063218738,1,1,5,1,21,2,1,,,,,,,,,,,,,,
,,,,,,,,,,,right.png,,p,left,5fd66ce8aec66457ff73d743,2021-10-27_12h10.14.135,arrow_simon_punish,2021.1.2,Win32,60.0240096,,,,,,,,,,,,,,p,1,1.718,2.045596054,1,1,5,2,22,0,1,,,,,,,,,,,,,,
,,,,,,,,,,,right.png,,p,right,5fd66ce8aec66457ff73d743,2021-10-27_12h10.14.135,arrow_simon_punish,2021.1.2,Win32,60.0240096,,,,,,,,,,,,,,p,1,1.304,1.821228473,1,1,5,3,23,1,1,,,,,,,,,,,,,,
,,,,,,,,,,,left.png,,w,right,5fd66ce8aec66457ff73d743,2021-10-27_12h10.14.135,arrow_simon_punish,2021.1.2,Win32,60.0240096,,,,,,,,,,,,,,w,1,1.27,1.605623159,1,1,6,0,24,3,1,,,,,,,,,,,,,,
,,,,,,,,,,,right.png,,p,left,5fd66ce8aec66457ff73d743,2021-10-27_12h10.14.135,arrow_simon_punish,2021.1.2,Win32,60.0240096,,,,,,,,,,,,,,p,1,1.867,2.279384579,1,1,6,1,25,0,1,,,,,,,,,,,,,,
,,,,,,,,,,,left.png,,w,left,5fd66ce8aec66457ff73d743,2021-10-27_12h10.14.135,arrow_simon_punish,2021.1.2,Win32,60.0240096,,,,,,,,,,,,,,w,1,1.702,2.151250496,1,1,6,2,26,2,1,,,,,,,,,,,,,,
,,,,,,,,,,,left.png,,w,left,5fd66ce8aec66457ff73d743,2021-10-27_12h10.14.135,arrow_simon_punish,2021.1.2,Win32,60.0240096,,,,,,,,,,,,,,w,1,1.687,2.283642857,1,1,6,3,27,2,1,,,,,,,,,,,,,,
,,,,,,,,,,,right.png,,p,left,5fd66ce8aec66457ff73d743,2021-10-27_12h10.14.135,arrow_simon_punish,2021.1.2,Win32,60.0240096,,,,,,,,,,,,,,p,1,1.671,1.822578972,1,1,7,0,28,0,1,,,,,,,,,,,,,,
,,,,,,,,,,,left.png,,w,left,5fd66ce8aec66457ff73d743,2021-10-27_12h10.14.135,arrow_simon_punish,2021.1.2,Win32,60.0240096,,,,,,,,,,,,,,w,1,1.718,2.310482722,1,1,7,1,29,2,1,,,,,,,,,,,,,,
,,,,,,,,,,,right.png,,p,right,5fd66ce8aec66457ff73d743,2021-10-27_12h10.14.135,arrow_simon_punish,2021.1.2,Win32,60.0240096,,,,,,,,,,,,,,p,1,0.817,1.550970351,1,1,7,2,30,1,1,,,,,,,,,,,,,,
,,,,,,,,,,,left.png,,w,left,5fd66ce8aec66457ff73d743,2021-10-27_12h10.14.135,arrow_simon_punish,2021.1.2,Win32,60.0240096,,,,,,,,,,,,,,w,1,1.822,2.281481123,1,1,7,3,31,2,1,,,,,,,,,,,,,,
,,,,,,,,,,,right.png,,p,right,5fd66ce8aec66457ff73d743,2021-10-27_12h10.14.135,arrow_simon_punish,2021.1.2,Win32,60.0240096,,,,,,,,,,,,,,p,1,1.294,1.826536018,1,1,8,0,32,1,1,,,,,,,,,,,,,,
,,,,,,,,,,,left.png,,w,right,5fd66ce8aec66457ff73d743,2021-10-27_12h10.14.135,arrow_simon_punish,2021.1.2,Win32,60.0240096,,,,,,,,,,,,,,p,0,1.567,2.089013246,1,1,8,1,33,3,1,,,,,,,,,,,,,,
,,,,,,,,,,,right.png,,p,right,5fd66ce8aec66457ff73d743,2021-10-27_12h10.14.135,arrow_simon_punish,2021.1.2,Win32,60.0240096,,,,,,,,,,,,,,p,1,2.052,2.151275053,1,1,8,2,34,1,1,,,,,,,,,,,,,,
,,,,,,,,,,,left.png,,w,right,5fd66ce8aec66457ff73d743,2021-10-27_12h10.14.135,arrow_simon_punish,2021.1.2,Win32,60.0240096,,,,,,,,,,,,,,w,1,1.988,2.486206833,1,1,8,3,35,3,1,,,,,,,,,,,,,,
,,,,,,,,,,,right.png,,p,right,5fd66ce8aec66457ff73d743,2021-10-27_12h10.14.135,arrow_simon_punish,2021.1.2,Win32,60.0240096,,,,,,,,,,,,,,p,1,1.433,1.857192805,0,1,9,0,36,1,1,,,,,,,,,,,,,,
,,,,,,,,,,,left.png,,w,left,5fd66ce8aec66457ff73d743,2021-10-27_12h10.14.135,arrow_simon_punish,2021.1.2,Win32,60.0240096,,,,,,,,,,,,,,w,1,1.888,1.736196762,1,1,9,1,37,2,1,,,,,,,,,,,,,,
,,,,,,,,,,,left.png,,w,left,5fd66ce8aec66457ff73d743,2021-10-27_12h10.14.135,arrow_simon_punish,2021.1.2,Win32,60.0240096,,,,,,,,,,,,,,w,1,1.728,1.870014953,1,1,9,2,38,2,1,,,,,,,,,,,,,,
,,,,,,,,,,,right.png,,p,right,5fd66ce8aec66457ff73d743,2021-10-27_12h10.14.135,arrow_simon_punish,2021.1.2,Win32,60.0240096,,,,,,,,,,,,,,p,1,1.224,1.709717627,1,1,9,3,39,1,1,,,,,,,,,,,,,,
,,,,,,,,,,,left.png,,w,right,5fd66ce8aec66457ff73d743,2021-10-27_12h10.14.135,arrow_simon_punish,2021.1.2,Win32,60.0240096,,,,,,,,,,,,,,p,0,1.871,1.952253211,1,1,10,0,40,3,1,,,,,,,,,,,,,,
,,,,,,,,,,,left.png,,w,right,5fd66ce8aec66457ff73d743,2021-10-27_12h10.14.135,arrow_simon_punish,2021.1.2,Win32,60.0240096,,,,,,,,,,,,,,w,1,2.034,2.299396909,1,1,10,1,41,3,1,,,,,,,,,,,,,,
,,,,,,,,,,,right.png,,p,left,5fd66ce8aec66457ff73d743,2021-10-27_12h10.14.135,arrow_simon_punish,2021.1.2,Win32,60.0240096,,,,,,,,,,,,,,p,1,1.438,1.536415054,0,1,10,2,42,0,1,,,,,,,,,,,,,,
,,,,,,,,,,,right.png,,p,left,5fd66ce8aec66457ff73d743,2021-10-27_12h10.14.135,arrow_simon_punish,2021.1.2,Win32,60.0240096,,,,,,,,,,,,,,p,1,1.87,1.701182809,1,1,10,3,43,0,1,,,,,,,,,,,,,,
,,,,,,,,,,,left.png,,w,left,5fd66ce8aec66457ff73d743,2021-10-27_12h10.14.135,arrow_simon_punish,2021.1.2,Win32,60.0240096,,,,,,,,,,,,,,w,1,2.052,2.138255918,1,1,11,0,44,2,1,,,,,,,,,,,,,,
,,,,,,,,,,,left.png,,w,left,5fd66ce8aec66457ff73d743,2021-10-27_12h10.14.135,arrow_simon_punish,2021.1.2,Win32,60.0240096,,,,,,,,,,,,,,w,1,1.784,1.859289724,1,1,11,1,45,2,1,,,,,,,,,,,,,,
,,,,,,,,,,,left.png,,w,right,5fd66ce8aec66457ff73d743,2021-10-27_12h10.14.135,arrow_simon_punish,2021.1.2,Win32,60.0240096,,,,,,,,,,,,,,w,1,1.666,1.990606109,1,1,11,2,46,3,1,,,,,,,,,,,,,,
,,,,,,,,,,,right.png,,p,right,5fd66ce8aec66457ff73d743,2021-10-27_12h10.14.135,arrow_simon_punish,2021.1.2,Win32,60.0240096,,,,,,,,,,,,,,p,1,1.188,1.628968342,1,1,11,3,47,1,1,,,,,,,,,,,,,,
,,,,,,,,,,,right.png,,p,right,5fd66ce8aec66457ff73d743,2021-10-27_12h10.14.135,arrow_simon_punish,2021.1.2,Win32,60.0240096,,,,,,,,,,,,,,p,1,1.569,2.040246381,0,1,12,0,48,1,1,,,,,,,,,,,,,,
,,,,,,,,,,,right.png,,p,left,5fd66ce8aec66457ff73d743,2021-10-27_12h10.14.135,arrow_simon_punish,2021.1.2,Win32,60.0240096,,,,,,,,,,,,,,p,1,1.586,2.010345771,0,1,12,1,49,0,1,,,,,,,,,,,,,,
,,,,,,,,,,,left.png,,w,left,5fd66ce8aec66457ff73d743,2021-10-27_12h10.14.135,arrow_simon_punish,2021.1.2,Win32,60.0240096,,,,,,,,,,,,,,w,1,1.649,1.530997592,1,1,12,2,50,2,1,,,,,,,,,,,,,,
,,,,,,,,,,,left.png,,w,left,5fd66ce8aec66457ff73d743,2021-10-27_12h10.14.135,arrow_simon_punish,2021.1.2,Win32,60.0240096,,,,,,,,,,,,,,w,1,1.304,1.758560396,1,1,12,3,51,2,1,,,,,,,,,,,,,,
,,,,,,,,,,,right.png,,p,left,5fd66ce8aec66457ff73d743,2021-10-27_12h10.14.135,arrow_simon_punish,2021.1.2,Win32,60.0240096,,,,,,,,,,,,,,w,0,1.684,2.348991349,1,1,13,0,52,0,1,,,,,,,,,,,,,,
,,,,,,,,,,,right.png,,p,left,5fd66ce8aec66457ff73d743,2021-10-27_12h10.14.135,arrow_simon_punish,2021.1.2,Win32,60.0240096,,,,,,,,,,,,,,p,1,1.856,1.963810424,1,1,13,1,53,0,1,,,,,,,,,,,,,,
,,,,,,,,,,,left.png,,w,right,5fd66ce8aec66457ff73d743,2021-10-27_12h10.14.135,arrow_simon_punish,2021.1.2,Win32,60.0240096,,,,,,,,,,,,,,w,1,1.911,1.857871891,1,1,13,2,54,3,1,,,,,,,,,,,,,,
,,,,,,,,,,,right.png,,p,left,5fd66ce8aec66457ff73d743,2021-10-27_12h10.14.135,arrow_simon_punish,2021.1.2,Win32,60.0240096,,,,,,,,,,,,,,p,1,1.885,2.251840222,1,1,13,3,55,0,1,,,,,,,,,,,,,,
,,,,,,,,,,,left.png,,w,right,5fd66ce8aec66457ff73d743,2021-10-27_12h10.14.135,arrow_simon_punish,2021.1.2,Win32,60.0240096,,,,,,,,,,,,,,w,1,1.238,1.633677427,1,1,14,0,56,3,1,,,,,,,,,,,,,,
,,,,,,,,,,,left.png,,w,right,5fd66ce8aec66457ff73d743,2021-10-27_12h10.14.135,arrow_simon_punish,2021.1.2,Win32,60.0240096,,,,,,,,,,,,,,w,1,2.435,1.863715529,1,1,14,1,57,3,1,,,,,,,,,,,,,,
,,,,,,,,,,,right.png,,p,right,5fd66ce8aec66457ff73d743,2021-10-27_12h10.14.135,arrow_simon_punish,2021.1.2,Win32,60.0240096,,,,,,,,,,,,,,p,1,2.025,2.32461984,1,1,14,2,58,1,1,,,,,,,,,,,,,,
,,,,,,,,,,,left.png,,w,right,5fd66ce8aec66457ff73d743,2021-10-27_12h10.14.135,arrow_simon_punish,2021.1.2,Win32,60.0240096,,,,,,,,,,,,,,w,1,1.718,2.04291049,1,1,14,3,59,3,1,,,,,,,,,,,,,,
,,,,,,,,,,,,,,,5fd66ce8aec66457ff73d743,2021-10-27_12h10.14.135,arrow_simon_punish,2021.1.2,Win32,60.0240096,,,,,,,,,,,,,,,,,,,,,,,,,space,47.944,4,1,0,2,0,1,1,,,,,
,,,,,,,,,,,right.png,,p,left,5fd66ce8aec66457ff73d743,2021-10-27_12h10.14.135,arrow_simon_punish,2021.1.2,Win32,60.0240096,,,,,,,,,,,,,,p,1,2.366,2.443323046,1,5,0,0,0,0,1,,,,,,,,,,,,,,
,,,,,,,,,,,left.png,,w,left,5fd66ce8aec66457ff73d743,2021-10-27_12h10.14.135,arrow_simon_punish,2021.1.2,Win32,60.0240096,,,,,,,,,,,,,,w,1,1.454,2.003663185,0,5,0,1,1,2,1,,,,,,,,,,,,,,
,,,,,,,,,,,left.png,,w,left,5fd66ce8aec66457ff73d743,2021-10-27_12h10.14.135,arrow_simon_punish,2021.1.2,Win32,60.0240096,,,,,,,,,,,,,,w,1,2.079,2.343132103,1,5,0,2,2,2,1,,,,,,,,,,,,,,
,,,,,,,,,,,left.png,,w,right,5fd66ce8aec66457ff73d743,2021-10-27_12h10.14.135,arrow_simon_punish,2021.1.2,Win32,60.0240096,,,,,,,,,,,,,,w,1,1.619,1.883085612,1,5,0,3,3,3,1,,,,,,,,,,,,,,
,,,,,,,,,,,right.png,,p,left,5fd66ce8aec66457ff73d743,2021-10-27_12h10.14.135,arrow_simon_punish,2021.1.2,Win32,60.0240096,,,,,,,,,,,,,,p,1,2.113,2.154378089,1,5,1,0,4,0,1,,,,,,,,,,,,,,
,,,,,,,,,,,right.png,,p,left,5fd66ce8aec66457ff73d743,2021-10-27_12h10.14.135,arrow_simon_punish,2021.1.2,Win32,60.0240096,,,,,,,,,,,,,,p,1,1.589,1.980914669,0,5,1,1,5,0,1,,,,,,,,,,,,,,
,,,,,,,,,,,right.png,,p,right,5fd66ce8aec66457ff73d743,2021-10-27_12h10.14.135,arrow_simon_punish,2021.1.2,Win32,60.0240096,,,,,,,,,,,,,,p,1,2.152,2.380745854,1,5,1,2,6,1,1,,,,,,,,,,,,,,
,,,,,,,,,,,left.png,,w,left,5fd66ce8aec66457ff73d743,2021-10-27_12h10.14.135,arrow_simon_punish,2021.1.2,Win32,60.0240096,,,,,,,,,,,,,,w,1,1.851,2.208984209,1,5,1,3,7,2,1,,,,,,,,,,,,,,
,,,,,,,,,,,right.png,,p,right,5fd66ce8aec66457ff73d743,2021-10-27_12h10.14.135,arrow_simon_punish,2021.1.2,Win32,60.0240096,,,,,,,,,,,,,,p,1,2.253,2.499635811,1,5,2,0,8,1,1,,,,,,,,,,,,,,
,,,,,,,,,,,left.png,,w,right,5fd66ce8aec66457ff73d743,2021-10-27_12h10.14.135,arrow_simon_punish,2021.1.2,Win32,60.0240096,,,,,,,,,,,,,,w,1,1.739,2.103123113,1,5,2,1,9,3,1,,,,,,,,,,,,,,
,,,,,,,,,,,left.png,,w,right,5fd66ce8aec66457ff73d743,2021-10-27_12h10.14.135,arrow_simon_punish,2021.1.2,Win32,60.0240096,,,,,,,,,,,,,,w,1,2.021,2.393245877,1,5,2,2,10,3,1,,,,,,,,,,,,,,
,,,,,,,,,,,left.png,,w,left,5fd66ce8aec66457ff73d743,2021-10-27_12h10.14.135,arrow_simon_punish,2021.1.2,Win32,60.0240096,,,,,,,,,,,,,,w,1,1.285,1.76984565,1,5,2,3,11,2,1,,,,,,,,,,,,,,
,,,,,,,,,,,right.png,,p,right,5fd66ce8aec66457ff73d743,2021-10-27_12h10.14.135,arrow_simon_punish,2021.1.2,Win32,60.0240096,,,,,,,,,,,,,,p,1,0.962,1.537052104,1,5,3,0,12,1,1,,,,,,,,,,,,,,
,,,,,,,,,,,right.png,,p,left,5fd66ce8aec66457ff73d743,2021-10-27_12h10.14.135,arrow_simon_punish,2021.1.2,Win32,60.0240096,,,,,,,,,,,,,,w,0,1.118,1.800369884,1,5,3,1,13,0,1,,,,,,,,,,,,,,
,,,,,,,,,,,left.png,,w,left,5fd66ce8aec66457ff73d743,2021-10-27_12h10.14.135,arrow_simon_punish,2021.1.2,Win32,60.0240096,,,,,,,,,,,,,,w,1,1.167,1.59886378,1,5,3,2,14,2,1,,,,,,,,,,,,,,
,,,,,,,,,,,right.png,,p,right,5fd66ce8aec66457ff73d743,2021-10-27_12h10.14.135,arrow_simon_punish,2021.1.2,Win32,60.0240096,,,,,,,,,,,,,,p,1,1.137,2.115576554,1,5,3,3,15,1,1,,,,,,,,,,,,,,
,,,,,,,,,,,right.png,,p,right,5fd66ce8aec66457ff73d743,2021-10-27_12h10.14.135,arrow_simon_punish,2021.1.2,Win32,60.0240096,,,,,,,,,,,,,,p,1,1.804,2.207406204,1,5,4,0,16,1,1,,,,,,,,,,,,,,
,,,,,,,,,,,left.png,,w,left,5fd66ce8aec66457ff73d743,2021-10-27_12h10.14.135,arrow_simon_punish,2021.1.2,Win32,60.0240096,,,,,,,,,,,,,,w,1,1.281,1.662247537,1,5,4,1,17,2,1,,,,,,,,,,,,,,
,,,,,,,,,,,right.png,,p,left,5fd66ce8aec66457ff73d743,2021-10-27_12h10.14.135,arrow_simon_punish,2021.1.2,Win32,60.0240096,,,,,,,,,,,,,,w,0,1.935,2.210905512,1,5,4,2,18,0,1,,,,,,,,,,,,,,
,,,,,,,,,,,right.png,,p,left,5fd66ce8aec66457ff73d743,2021-10-27_12h10.14.135,arrow_simon_punish,2021.1.2,Win32,60.0240096,,,,,,,,,,,,,,p,1,1.765,1.718777774,1,5,4,3,19,0,1,,,,,,,,,,,,,,
,,,,,,,,,,,right.png,,p,right,5fd66ce8aec66457ff73d743,2021-10-27_12h10.14.135,arrow_simon_punish,2021.1.2,Win32,60.0240096,,,,,,,,,,,,,,p,1,1.303,1.705298712,1,5,5,0,20,1,1,,,,,,,,,,,,,,
,,,,,,,,,,,left.png,,w,left,5fd66ce8aec66457ff73d743,2021-10-27_12h10.14.135,arrow_simon_punish,2021.1.2,Win32,60.0240096,,,,,,,,,,,,,,w,1,1.289,1.663108306,1,5,5,1,21,2,1,,,,,,,,,,,,,,
,,,,,,,,,,,left.png,,w,right,5fd66ce8aec66457ff73d743,2021-10-27_12h10.14.135,arrow_simon_punish,2021.1.2,Win32,60.0240096,,,,,,,,,,,,,,w,1,1.687,1.524618235,1,5,5,2,22,3,1,,,,,,,,,,,,,,
,,,,,,,,,,,left.png,,w,left,5fd66ce8aec66457ff73d743,2021-10-27_12h10.14.135,arrow_simon_punish,2021.1.2,Win32,60.0240096,,,,,,,,,,,,,,w,1,1.798,2.225637179,1,5,5,3,23,2,1,,,,,,,,,,,,,,
,,,,,,,,,,,left.png,,w,right,5fd66ce8aec66457ff73d743,2021-10-27_12h10.14.135,arrow_simon_punish,2021.1.2,Win32,60.0240096,,,,,,,,,,,,,,p,0,1.936,2.077704825,1,5,6,0,24,3,1,,,,,,,,,,,,,,
,,,,,,,,,,,right.png,,p,right,5fd66ce8aec66457ff73d743,2021-10-27_12h10.14.135,arrow_simon_punish,2021.1.2,Win32,60.0240096,,,,,,,,,,,,,,p,1,1.737,1.934310017,1,5,6,1,25,1,1,,,,,,,,,,,,,,
,,,,,,,,,,,left.png,,w,left,5fd66ce8aec66457ff73d743,2021-10-27_12h10.14.135,arrow_simon_punish,2021.1.2,Win32,60.0240096,,,,,,,,,,,,,,w,1,1.655,2.083307779,1,5,6,2,26,2,1,,,,,,,,,,,,,,
,,,,,,,,,,,left.png,,w,right,5fd66ce8aec66457ff73d743,2021-10-27_12h10.14.135,arrow_simon_punish,2021.1.2,Win32,60.0240096,,,,,,,,,,,,,,w,1,1.67,1.688623366,1,5,6,3,27,3,1,,,,,,,,,,,,,,
,,,,,,,,,,,left.png,,w,right,5fd66ce8aec66457ff73d743,2021-10-27_12h10.14.135,arrow_simon_punish,2021.1.2,Win32,60.0240096,,,,,,,,,,,,,,w,1,1.633,1.879866902,1,5,7,0,28,3,1,,,,,,,,,,,,,,
,,,,,,,,,,,left.png,,w,right,5fd66ce8aec66457ff73d743,2021-10-27_12h10.14.135,arrow_simon_punish,2021.1.2,Win32,60.0240096,,,,,,,,,,,,,,w,1,1.43,1.595442201,0,5,7,1,29,3,1,,,,,,,,,,,,,,
,,,,,,,,,,,left.png,,w,left,5fd66ce8aec66457ff73d743,2021-10-27_12h10.14.135,arrow_simon_punish,2021.1.2,Win32,60.0240096,,,,,,,,,,,,,,w,1,1.671,2.243798705,1,5,7,2,30,2,1,,,,,,,,,,,,,,
,,,,,,,,,,,right.png,,p,right,5fd66ce8aec66457ff73d743,2021-10-27_12h10.14.135,arrow_simon_punish,2021.1.2,Win32,60.0240096,,,,,,,,,,,,,,p,1,1.853,2.309721153,1,5,7,3,31,1,1,,,,,,,,,,,,,,
,,,,,,,,,,,left.png,,w,right,5fd66ce8aec66457ff73d743,2021-10-27_12h10.14.135,arrow_simon_punish,2021.1.2,Win32,60.0240096,,,,,,,,,,,,,,w,1,1.302,1.80183623,1,5,8,0,32,3,1,,,,,,,,,,,,,,
,,,,,,,,,,,left.png,,w,left,5fd66ce8aec66457ff73d743,2021-10-27_12h10.14.135,arrow_simon_punish,2021.1.2,Win32,60.0240096,,,,,,,,,,,,,,w,1,1.352,1.63560086,1,5,8,1,33,2,1,,,,,,,,,,,,,,
,,,,,,,,,,,right.png,,p,right,5fd66ce8aec66457ff73d743,2021-10-27_12h10.14.135,arrow_simon_punish,2021.1.2,Win32,60.0240096,,,,,,,,,,,,,,p,1,1.488,1.932441119,0,5,8,2,34,1,1,,,,,,,,,,,,,,
,,,,,,,,,,,left.png,,w,right,5fd66ce8aec66457ff73d743,2021-10-27_12h10.14.135,arrow_simon_punish,2021.1.2,Win32,60.0240096,,,,,,,,,,,,,,w,1,1.918,2.372155938,1,5,8,3,35,3,1,,,,,,,,,,,,,,
,,,,,,,,,,,left.png,,w,right,5fd66ce8aec66457ff73d743,2021-10-27_12h10.14.135,arrow_simon_punish,2021.1.2,Win32,60.0240096,,,,,,,,,,,,,,w,1,1.781,1.700563161,1,5,9,0,36,3,1,,,,,,,,,,,,,,
,,,,,,,,,,,right.png,,p,left,5fd66ce8aec66457ff73d743,2021-10-27_12h10.14.135,arrow_simon_punish,2021.1.2,Win32,60.0240096,,,,,,,,,,,,,,p,1,1.317,1.54975226,1,5,9,1,37,0,1,,,,,,,,,,,,,,
,,,,,,,,,,,right.png,,p,left,5fd66ce8aec66457ff73d743,2021-10-27_12h10.14.135,arrow_simon_punish,2021.1.2,Win32,60.0240096,,,,,,,,,,,,,,p,1,2.317,2.110981241,1,5,9,2,38,0,1,,,,,,,,,,,,,,
,,,,,,,,,,,right.png,,p,right,5fd66ce8aec66457ff73d743,2021-10-27_12h10.14.135,arrow_simon_punish,2021.1.2,Win32,60.0240096,,,,,,,,,,,,,,p,1,2.035,2.449247831,1,5,9,3,39,1,1,,,,,,,,,,,,,,
,,,,,,,,,,,left.png,,w,left,5fd66ce8aec66457ff73d743,2021-10-27_12h10.14.135,arrow_simon_punish,2021.1.2,Win32,60.0240096,,,,,,,,,,,,,,w,1,1.667,2.252409875,1,5,10,0,40,2,1,,,,,,,,,,,,,,
,,,,,,,,,,,left.png,,w,left,5fd66ce8aec66457ff73d743,2021-10-27_12h10.14.135,arrow_simon_punish,2021.1.2,Win32,60.0240096,,,,,,,,,,,,,,w,1,1.669,2.250965658,1,5,10,1,41,2,1,,,,,,,,,,,,,,
,,,,,,,,,,,right.png,,p,right,5fd66ce8aec66457ff73d743,2021-10-27_12h10.14.135,arrow_simon_punish,2021.1.2,Win32,60.0240096,,,,,,,,,,,,,,p,1,1.934,2.233495928,1,5,10,2,42,1,1,,,,,,,,,,,,,,
,,,,,,,,,,,right.png,,p,right,5fd66ce8aec66457ff73d743,2021-10-27_12h10.14.135,arrow_simon_punish,2021.1.2,Win32,60.0240096,,,,,,,,,,,,,,p,1,1.485,1.646037949,0,5,10,3,43,1,1,,,,,,,,,,,,,,
,,,,,,,,,,,left.png,,w,right,5fd66ce8aec66457ff73d743,2021-10-27_12h10.14.135,arrow_simon_punish,2021.1.2,Win32,60.0240096,,,,,,,,,,,,,,w,1,1.082,1.514777099,1,5,11,0,44,3,1,,,,,,,,,,,,,,
,,,,,,,,,,,right.png,,p,left,5fd66ce8aec66457ff73d743,2021-10-27_12h10.14.135,arrow_simon_punish,2021.1.2,Win32,60.0240096,,,,,,,,,,,,,,w,0,1.618,2.203430498,1,5,11,1,45,0,1,,,,,,,,,,,,,,
,,,,,,,,,,,left.png,,w,left,5fd66ce8aec66457ff73d743,2021-10-27_12h10.14.135,arrow_simon_punish,2021.1.2,Win32,60.0240096,,,,,,,,,,,,,,w,1,1.423,1.951468743,0,5,11,2,46,2,1,,,,,,,,,,,,,,
,,,,,,,,,,,right.png,,p,right,5fd66ce8aec66457ff73d743,2021-10-27_12h10.14.135,arrow_simon_punish,2021.1.2,Win32,60.0240096,,,,,,,,,,,,,,p,1,1.038,1.578802759,1,5,11,3,47,1,1,,,,,,,,,,,,,,
,,,,,,,,,,,right.png,,p,left,5fd66ce8aec66457ff73d743,2021-10-27_12h10.14.135,arrow_simon_punish,2021.1.2,Win32,60.0240096,,,,,,,,,,,,,,p,1,1.468,1.624571446,0,5,12,0,48,0,1,,,,,,,,,,,,,,
,,,,,,,,,,,left.png,,w,right,5fd66ce8aec66457ff73d743,2021-10-27_12h10.14.135,arrow_simon_punish,2021.1.2,Win32,60.0240096,,,,,,,,,,,,,,w,1,0.874,1.603587561,1,5,12,1,49,3,1,,,,,,,,,,,,,,
,,,,,,,,,,,left.png,,w,right,5fd66ce8aec66457ff73d743,2021-10-27_12h10.14.135,arrow_simon_punish,2021.1.2,Win32,60.0240096,,,,,,,,,,,,,,w,1,2.236,2.240640628,1,5,12,2,50,3,1,,,,,,,,,,,,,,
,,,,,,,,,,,left.png,,w,left,5fd66ce8aec66457ff73d743,2021-10-27_12h10.14.135,arrow_simon_punish,2021.1.2,Win32,60.0240096,,,,,,,,,,,,,,w,1,0.577,1.595238407,1,5,12,3,51,2,1,,,,,,,,,,,,,,
,,,,,,,,,,,right.png,,p,left,5fd66ce8aec66457ff73d743,2021-10-27_12h10.14.135,arrow_simon_punish,2021.1.2,Win32,60.0240096,,,,,,,,,,,,,,p,1,1.785,1.646457255,1,5,13,0,52,0,1,,,,,,,,,,,,,,
,,,,,,,,,,,right.png,,p,left,5fd66ce8aec66457ff73d743,2021-10-27_12h10.14.135,arrow_simon_punish,2021.1.2,Win32,60.0240096,,,,,,,,,,,,,,p,1,2.169,2.190203029,1,5,13,1,53,0,1,,,,,,,,,,,,,,
,,,,,,,,,,,left.png,,w,right,5fd66ce8aec66457ff73d743,2021-10-27_12h10.14.135,arrow_simon_punish,2021.1.2,Win32,60.0240096,,,,,,,,,,,,,,w,1,1.652,1.958556235,1,5,13,2,54,3,1,,,,,,,,,,,,,,
,,,,,,,,,,,right.png,,p,left,5fd66ce8aec66457ff73d743,2021-10-27_12h10.14.135,arrow_simon_punish,2021.1.2,Win32,60.0240096,,,,,,,,,,,,,,p,1,1.982,2.116278068,1,5,13,3,55,0,1,,,,,,,,,,,,,,
,,,,,,,,,,,right.png,,p,right,5fd66ce8aec66457ff73d743,2021-10-27_12h10.14.135,arrow_simon_punish,2021.1.2,Win32,60.0240096,,,,,,,,,,,,,,p,1,1.888,2.255136968,1,5,14,0,56,1,1,,,,,,,,,,,,,,
,,,,,,,,,,,right.png,,p,right,5fd66ce8aec66457ff73d743,2021-10-27_12h10.14.135,arrow_simon_punish,2021.1.2,Win32,60.0240096,,,,,,,,,,,,,,p,1,1.924,2.33437748,1,5,14,1,57,1,1,,,,,,,,,,,,,,
,,,,,,,,,,,right.png,,p,left,5fd66ce8aec66457ff73d743,2021-10-27_12h10.14.135,arrow_simon_punish,2021.1.2,Win32,60.0240096,,,,,,,,,,,,,,p,1,1.434,1.804433341,0,5,14,2,58,0,1,,,,,,,,,,,,,,
,,,,,,,,,,,right.png,,p,left,5fd66ce8aec66457ff73d743,2021-10-27_12h10.14.135,arrow_simon_punish,2021.1.2,Win32,60.0240096,,,,,,,,,,,,,,p,1,1.636,1.572340742,1,5,14,3,59,0,1,,,,,,,,,,,,,,
,,,,,,,,,,,,,,,5fd66ce8aec66457ff73d743,2021-10-27_12h10.14.135,arrow_simon_punish,2021.1.2,Win32,60.0240096,,,,,,,,,,,,,,,,,,,,,,,,,space,81.45,5,1,1,3,1,1,5,,,,,
,,,,,,,,,,,left.png,,w,left,5fd66ce8aec66457ff73d743,2021-10-27_12h10.14.135,arrow_simon_punish,2021.1.2,Win32,60.0240096,,,,,,,,,,,,,,w,1,1.87,1.892535448,1,1,0,0,0,2,1,,,,,,,,,,,,,,
,,,,,,,,,,,right.png,,p,left,5fd66ce8aec66457ff73d743,2021-10-27_12h10.14.135,arrow_simon_punish,2021.1.2,Win32,60.0240096,,,,,,,,,,,,,,p,1,1.484,1.808077763,0,1,0,1,1,0,1,,,,,,,,,,,,,,
,,,,,,,,,,,right.png,,p,right,5fd66ce8aec66457ff73d743,2021-10-27_12h10.14.135,arrow_simon_punish,2021.1.2,Win32,60.0240096,,,,,,,,,,,,,,p,1,1.59,1.956381211,0,1,0,2,2,1,1,,,,,,,,,,,,,,
,,,,,,,,,,,left.png,,w,right,5fd66ce8aec66457ff73d743,2021-10-27_12h10.14.135,arrow_simon_punish,2021.1.2,Win32,60.0240096,,,,,,,,,,,,,,w,1,1.733,2.144416885,1,1,0,3,3,3,1,,,,,,,,,,,,,,
,,,,,,,,,,,left.png,,w,left,5fd66ce8aec66457ff73d743,2021-10-27_12h10.14.135,arrow_simon_punish,2021.1.2,Win32,60.0240096,,,,,,,,,,,,,,w,1,1.89,2.166100599,1,1,1,0,4,2,1,,,,,,,,,,,,,,
,,,,,,,,,,,left.png,,w,right,5fd66ce8aec66457ff73d743,2021-10-27_12h10.14.135,arrow_simon_punish,2021.1.2,Win32,60.0240096,,,,,,,,,,,,,,w,1,3.456,2.373967535,1,1,1,1,5,3,1,,,,,,,,,,,,,,
,,,,,,,,,,,right.png,,p,left,5fd66ce8aec66457ff73d743,2021-10-27_12h10.14.135,arrow_simon_punish,2021.1.2,Win32,60.0240096,,,,,,,,,,,,,,p,1,1.006,1.700520676,1,1,1,2,6,0,1,,,,,,,,,,,,,,
,,,,,,,,,,,left.png,,w,left,5fd66ce8aec66457ff73d743,2021-10-27_12h10.14.135,arrow_simon_punish,2021.1.2,Win32,60.0240096,,,,,,,,,,,,,,w,1,2.094,1.941687942,1,1,1,3,7,2,1,,,,,,,,,,,,,,
,,,,,,,,,,,right.png,,p,right,5fd66ce8aec66457ff73d743,2021-10-27_12h10.14.135,arrow_simon_punish,2021.1.2,Win32,60.0240096,,,,,,,,,,,,,,p,1,1.193,1.566100795,1,1,2,0,8,1,1,,,,,,,,,,,,,,
,,,,,,,,,,,right.png,,p,left,5fd66ce8aec66457ff73d743,2021-10-27_12h10.14.135,arrow_simon_punish,2021.1.2,Win32,60.0240096,,,,,,,,,,,,,,w,0,1.981,2.361688142,1,1,2,1,9,0,1,,,,,,,,,,,,,,
,,,,,,,,,,,left.png,,w,left,5fd66ce8aec66457ff73d743,2021-10-27_12h10.14.135,arrow_simon_punish,2021.1.2,Win32,60.0240096,,,,,,,,,,,,,,w,1,1.588,1.631222201,0,1,2,2,10,2,1,,,,,,,,,,,,,,
,,,,,,,,,,,left.png,,w,left,5fd66ce8aec66457ff73d743,2021-10-27_12h10.14.135,arrow_simon_punish,2021.1.2,Win32,60.0240096,,,,,,,,,,,,,,w,1,1.552,2.002172713,0,1,2,3,11,2,1,,,,,,,,,,,,,,
,,,,,,,,,,,left.png,,w,left,5fd66ce8aec66457ff73d743,2021-10-27_12h10.14.135,arrow_simon_punish,2021.1.2,Win32,60.0240096,,,,,,,,,,,,,,w,1,2.017,2.379647227,1,1,3,0,12,2,1,,,,,,,,,,,,,,
,,,,,,,,,,,right.png,,p,left,5fd66ce8aec66457ff73d743,2021-10-27_12h10.14.135,arrow_simon_punish,2021.1.2,Win32,60.0240096,,,,,,,,,,,,,,p,1,1.64,1.981826654,1,1,3,1,13,0,1,,,,,,,,,,,,,,
,,,,,,,,,,,right.png,,p,right,5fd66ce8aec66457ff73d743,2021-10-27_12h10.14.135,arrow_simon_punish,2021.1.2,Win32,60.0240096,,,,,,,,,,,,,,p,1,1.557,1.578505868,0,1,3,2,14,1,1,,,,,,,,,,,,,,
,,,,,,,,,,,right.png,,p,left,5fd66ce8aec66457ff73d743,2021-10-27_12h10.14.135,arrow_simon_punish,2021.1.2,Win32,60.0240096,,,,,,,,,,,,,,p,1,2.368,2.241510112,1,1,3,3,15,0,1,,,,,,,,,,,,,,
,,,,,,,,,,,right.png,,p,left,5fd66ce8aec66457ff73d743,2021-10-27_12h10.14.135,arrow_simon_punish,2021.1.2,Win32,60.0240096,,,,,,,,,,,,,,p,1,2.201,1.992278166,1,1,4,0,16,0,1,,,,,,,,,,,,,,
,,,,,,,,,,,right.png,,p,right,5fd66ce8aec66457ff73d743,2021-10-27_12h10.14.135,arrow_simon_punish,2021.1.2,Win32,60.0240096,,,,,,,,,,,,,,p,1,1.961,2.140673194,1,1,4,1,17,1,1,,,,,,,,,,,,,,
,,,,,,,,,,,right.png,,p,right,5fd66ce8aec66457ff73d743,2021-10-27_12h10.14.135,arrow_simon_punish,2021.1.2,Win32,60.0240096,,,,,,,,,,,,,,p,1,1.686,2.181625611,1,1,4,2,18,1,1,,,,,,,,,,,,,,
,,,,,,,,,,,right.png,,p,left,5fd66ce8aec66457ff73d743,2021-10-27_12h10.14.135,arrow_simon_punish,2021.1.2,Win32,60.0240096,,,,,,,,,,,,,,p,1,2.069,2.263917685,1,1,4,3,19,0,1,,,,,,,,,,,,,,
,,,,,,,,,,,right.png,,p,right,5fd66ce8aec66457ff73d743,2021-10-27_12h10.14.135,arrow_simon_punish,2021.1.2,Win32,60.0240096,,,,,,,,,,,,,,p,1,1.573,1.974740567,0,1,5,0,20,1,1,,,,,,,,,,,,,,
,,,,,,,,,,,left.png,,w,left,5fd66ce8aec66457ff73d743,2021-10-27_12h10.14.135,arrow_simon_punish,2021.1.2,Win32,60.0240096,,,,,,,,,,,,,,w,1,1.101,1.639602032,1,1,5,1,21,2,1,,,,,,,,,,,,,,
,,,,,,,,,,,left.png,,w,right,5fd66ce8aec66457ff73d743,2021-10-27_12h10.14.135,arrow_simon_punish,2021.1.2,Win32,60.0240096,,,,,,,,,,,,,,p,0,2.318,2.324856244,1,1,5,2,22,3,1,,,,,,,,,,,,,,
,,,,,,,,,,,right.png,,p,right,5fd66ce8aec66457ff73d743,2021-10-27_12h10.14.135,arrow_simon_punish,2021.1.2,Win32,60.0240096,,,,,,,,,,,,,,p,1,1.574,1.894974807,0,1,5,3,23,1,1,,,,,,,,,,,,,,
,,,,,,,,,,,left.png,,w,right,5fd66ce8aec66457ff73d743,2021-10-27_12h10.14.135,arrow_simon_punish,2021.1.2,Win32,60.0240096,,,,,,,,,,,,,,w,1,1.269,1.6679444,1,1,6,0,24,3,1,,,,,,,,,,,,,,
,,,,,,,,,,,right.png,,p,right,5fd66ce8aec66457ff73d743,2021-10-27_12h10.14.135,arrow_simon_punish,2021.1.2,Win32,60.0240096,,,,,,,,,,,,,,p,1,1.118,1.648278423,1,1,6,1,25,1,1,,,,,,,,,,,,,,
,,,,,,,,,,,right.png,,p,right,5fd66ce8aec66457ff73d743,2021-10-27_12h10.14.135,arrow_simon_punish,2021.1.2,Win32,60.0240096,,,,,,,,,,,,,,p,1,1.996,2.37125618,1,1,6,2,26,1,1,,,,,,,,,,,,,,
,,,,,,,,,,,left.png,,w,left,5fd66ce8aec66457ff73d743,2021-10-27_12h10.14.135,arrow_simon_punish,2021.1.2,Win32,60.0240096,,,,,,,,,,,,,,w,1,1.552,1.989634247,0,1,6,3,27,2,1,,,,,,,,,,,,,,
,,,,,,,,,,,left.png,,w,right,5fd66ce8aec66457ff73d743,2021-10-27_12h10.14.135,arrow_simon_punish,2021.1.2,Win32,60.0240096,,,,,,,,,,,,,,w,1,1.067,1.581984184,1,1,7,0,28,3,1,,,,,,,,,,,,,,
,,,,,,,,,,,right.png,,p,right,5fd66ce8aec66457ff73d743,2021-10-27_12h10.14.135,arrow_simon_punish,2021.1.2,Win32,60.0240096,,,,,,,,,,,,,,p,1,1.697,2.298545833,1,1,7,1,29,1,1,,,,,,,,,,,,,,
,,,,,,,,,,,right.png,,p,right,5fd66ce8aec66457ff73d743,2021-10-27_12h10.14.135,arrow_simon_punish,2021.1.2,Win32,60.0240096,,,,,,,,,,,,,,p,1,1.596,2.166219888,0,1,7,2,30,1,1,,,,,,,,,,,,,,
,,,,,,,,,,,left.png,,w,right,5fd66ce8aec66457ff73d743,2021-10-27_12h10.14.135,arrow_simon_punish,2021.1.2,Win32,60.0240096,,,,,,,,,,,,,,w,1,1.598,2.364205611,0,1,7,3,31,3,1,,,,,,,,,,,,,,
,,,,,,,,,,,right.png,,p,left,5fd66ce8aec66457ff73d743,2021-10-27_12h10.14.135,arrow_simon_punish,2021.1.2,Win32,60.0240096,,,,,,,,,,,,,,p,1,1.97,2.373334686,1,1,8,0,32,0,1,,,,,,,,,,,,,,
,,,,,,,,,,,right.png,,p,left,5fd66ce8aec66457ff73d743,2021-10-27_12h10.14.135,arrow_simon_punish,2021.1.2,Win32,60.0240096,,,,,,,,,,,,,,p,1,1.723,2.178168562,1,1,8,1,33,0,1,,,,,,,,,,,,,,
,,,,,,,,,,,left.png,,w,right,5fd66ce8aec66457ff73d743,2021-10-27_12h10.14.135,arrow_simon_punish,2021.1.2,Win32,60.0240096,,,,,,,,,,,,,,w,1,1.313,1.774298863,1,1,8,2,34,3,1,,,,,,,,,,,,,,
,,,,,,,,,,,left.png,,w,right,5fd66ce8aec66457ff73d743,2021-10-27_12h10.14.135,arrow_simon_punish,2021.1.2,Win32,60.0240096,,,,,,,,,,,,,,w,1,1.438,1.503597174,0,1,8,3,35,3,1,,,,,,,,,,,,,,
,,,,,,,,,,,left.png,,w,left,5fd66ce8aec66457ff73d743,2021-10-27_12h10.14.135,arrow_simon_punish,2021.1.2,Win32,60.0240096,,,,,,,,,,,,,,w,1,1.218,1.71466191,1,1,9,0,36,2,1,,,,,,,,,,,,,,
,,,,,,,,,,,right.png,,p,right,5fd66ce8aec66457ff73d743,2021-10-27_12h10.14.135,arrow_simon_punish,2021.1.2,Win32,60.0240096,,,,,,,,,,,,,,p,1,2.185,2.107625483,1,1,9,1,37,1,1,,,,,,,,,,,,,,
,,,,,,,,,,,left.png,,w,left,5fd66ce8aec66457ff73d743,2021-10-27_12h10.14.135,arrow_simon_punish,2021.1.2,Win32,60.0240096,,,,,,,,,,,,,,w,1,1.487,1.918082214,0,1,9,2,38,2,1,,,,,,,,,,,,,,
,,,,,,,,,,,left.png,,w,left,5fd66ce8aec66457ff73d743,2021-10-27_12h10.14.135,arrow_simon_punish,2021.1.2,Win32,60.0240096,,,,,,,,,,,,,,w,1,2.28,2.479825014,1,1,9,3,39,2,1,,,,,,,,,,,,,,
,,,,,,,,,,,left.png,,w,left,5fd66ce8aec66457ff73d743,2021-10-27_12h10.14.135,arrow_simon_punish,2021.1.2,Win32,60.0240096,,,,,,,,,,,,,,w,1,1.402,1.964330909,0,1,10,0,40,2,1,,,,,,,,,,,,,,
,,,,,,,,,,,left.png,,w,right,5fd66ce8aec66457ff73d743,2021-10-27_12h10.14.135,arrow_simon_punish,2021.1.2,Win32,60.0240096,,,,,,,,,,,,,,p,0,1.949,2.459131283,1,1,10,1,41,3,1,,,,,,,,,,,,,,
,,,,,,,,,,,left.png,,w,right,5fd66ce8aec66457ff73d743,2021-10-27_12h10.14.135,arrow_simon_punish,2021.1.2,Win32,60.0240096,,,,,,,,,,,,,,w,1,1.954,2.488032466,1,1,10,2,42,3,1,,,,,,,,,,,,,,
,,,,,,,,,,,left.png,,w,right,5fd66ce8aec66457ff73d743,2021-10-27_12h10.14.135,arrow_simon_punish,2021.1.2,Win32,60.0240096,,,,,,,,,,,,,,w,1,1.823,2.141236463,1,1,10,3,43,3,1,,,,,,,,,,,,,,
,,,,,,,,,,,right.png,,p,right,5fd66ce8aec66457ff73d743,2021-10-27_12h10.14.135,arrow_simon_punish,2021.1.2,Win32,60.0240096,,,,,,,,,,,,,,p,1,1.067,1.602702122,1,1,11,0,44,1,1,,,,,,,,,,,,,,
,,,,,,,,,,,left.png,,w,right,5fd66ce8aec66457ff73d743,2021-10-27_12h10.14.135,arrow_simon_punish,2021.1.2,Win32,60.0240096,,,,,,,,,,,,,,w,1,2.366,2.43850474,1,1,11,1,45,3,1,,,,,,,,,,,,,,
,,,,,,,,,,,left.png,,w,right,5fd66ce8aec66457ff73d743,2021-10-27_12h10.14.135,arrow_simon_punish,2021.1.2,Win32,60.0240096,,,,,,,,,,,,,,w,1,1.335,1.610050753,1,1,11,2,46,3,1,,,,,,,,,,,,,,
,,,,,,,,,,,left.png,,w,right,5fd66ce8aec66457ff73d743,2021-10-27_12h10.14.135,arrow_simon_punish,2021.1.2,Win32,60.0240096,,,,,,,,,,,,,,w,1,1.986,2.024748424,1,1,11,3,47,3,1,,,,,,,,,,,,,,
,,,,,,,,,,,right.png,,p,left,5fd66ce8aec66457ff73d743,2021-10-27_12h10.14.135,arrow_simon_punish,2021.1.2,Win32,60.0240096,,,,,,,,,,,,,,p,1,1.585,2.163292081,0,1,12,0,48,0,1,,,,,,,,,,,,,,
,,,,,,,,,,,right.png,,p,left,5fd66ce8aec66457ff73d743,2021-10-27_12h10.14.135,arrow_simon_punish,2021.1.2,Win32,60.0240096,,,,,,,,,,,,,,p,1,1.969,1.572255781,1,1,12,1,49,0,1,,,,,,,,,,,,,,
,,,,,,,,,,,left.png,,w,left,5fd66ce8aec66457ff73d743,2021-10-27_12h10.14.135,arrow_simon_punish,2021.1.2,Win32,60.0240096,,,,,,,,,,,,,,w,1,2.103,2.487675094,1,1,12,2,50,2,1,,,,,,,,,,,,,,
,,,,,,,,,,,right.png,,p,right,5fd66ce8aec66457ff73d743,2021-10-27_12h10.14.135,arrow_simon_punish,2021.1.2,Win32,60.0240096,,,,,,,,,,,,,,p,1,2.087,2.371771288,1,1,12,3,51,1,1,,,,,,,,,,,,,,
,,,,,,,,,,,right.png,,p,left,5fd66ce8aec66457ff73d743,2021-10-27_12h10.14.135,arrow_simon_punish,2021.1.2,Win32,60.0240096,,,,,,,,,,,,,,w,0,1.552,2.115942258,1,1,13,0,52,0,1,,,,,,,,,,,,,,
,,,,,,,,,,,right.png,,p,left,5fd66ce8aec66457ff73d743,2021-10-27_12h10.14.135,arrow_simon_punish,2021.1.2,Win32,60.0240096,,,,,,,,,,,,,,p,1,1.705,1.854257619,1,1,13,1,53,0,1,,,,,,,,,,,,,,
,,,,,,,,,,,right.png,,p,left,5fd66ce8aec66457ff73d743,2021-10-27_12h10.14.135,arrow_simon_punish,2021.1.2,Win32,60.0240096,,,,,,,,,,,,,,p,1,1.568,1.835599246,0,1,13,2,54,0,1,,,,,,,,,,,,,,
,,,,,,,,,,,left.png,,w,right,5fd66ce8aec66457ff73d743,2021-10-27_12h10.14.135,arrow_simon_punish,2021.1.2,Win32,60.0240096,,,,,,,,,,,,,,w,1,2.043,2.292718893,1,1,13,3,55,3,1,,,,,,,,,,,,,,
,,,,,,,,,,,left.png,,w,left,5fd66ce8aec66457ff73d743,2021-10-27_12h10.14.135,arrow_simon_punish,2021.1.2,Win32,60.0240096,,,,,,,,,,,,,,w,1,1.403,1.963733725,0,1,14,0,56,2,1,,,,,,,,,,,,,,
,,,,,,,,,,,left.png,,w,left,5fd66ce8aec66457ff73d743,2021-10-27_12h10.14.135,arrow_simon_punish,2021.1.2,Win32,60.0240096,,,,,,,,,,,,,,w,1,2.288,2.1942612,1,1,14,1,57,2,1,,,,,,,,,,,,,,
,,,,,,,,,,,right.png,,p,right,5fd66ce8aec66457ff73d743,2021-10-27_12h10.14.135,arrow_simon_punish,2021.1.2,Win32,60.0240096,,,,,,,,,,,,,,p,1,1.102,1.691669339,1,1,14,2,58,1,1,,,,,,,,,,,,,,
,,,,,,,,,,,right.png,,p,left,5fd66ce8aec66457ff73d743,2021-10-27_12h10.14.135,arrow_simon_punish,2021.1.2,Win32,60.0240096,,,,,,,,,,,,,,p,1,1.506,1.996025743,0,1,14,3,59,0,1,,,,,,,,,,,,,,
,,,,,,,,,,,,,,,5fd66ce8aec66457ff73d743,2021-10-27_12h10.14.135,arrow_simon_punish,2021.1.2,Win32,60.0240096,,,,,,,,,,,,,,,,,,,,,,,,,space,13.094,6,2,0,4,0,1,1,,,,,
,,,,,,,,,,,right.png,,p,left,5fd66ce8aec66457ff73d743,2021-10-27_12h10.14.135,arrow_simon_punish,2021.1.2,Win32,60.0240096,,,,,,,,,,,,,,w,0,1.953,2.258409177,1,5,0,0,0,0,1,,,,,,,,,,,,,,
,,,,,,,,,,,left.png,,w,right,5fd66ce8aec66457ff73d743,2021-10-27_12h10.14.135,arrow_simon_punish,2021.1.2,Win32,60.0240096,,,,,,,,,,,,,,w,1,1.285,1.602509195,1,5,0,1,1,3,1,,,,,,,,,,,,,,
,,,,,,,,,,,right.png,,p,right,5fd66ce8aec66457ff73d743,2021-10-27_12h10.14.135,arrow_simon_punish,2021.1.2,Win32,60.0240096,,,,,,,,,,,,,,p,1,1.068,1.554139564,1,5,0,2,2,1,1,,,,,,,,,,,,,,
,,,,,,,,,,,right.png,,p,left,5fd66ce8aec66457ff73d743,2021-10-27_12h10.14.135,arrow_simon_punish,2021.1.2,Win32,60.0240096,,,,,,,,,,,,,,p,1,1.722,2.220730883,1,5,0,3,3,0,1,,,,,,,,,,,,,,
,,,,,,,,,,,right.png,,p,right,5fd66ce8aec66457ff73d743,2021-10-27_12h10.14.135,arrow_simon_punish,2021.1.2,Win32,60.0240096,,,,,,,,,,,,,,w,0,1.203,1.74459838,1,5,1,0,4,1,1,,,,,,,,,,,,,,
,,,,,,,,,,,left.png,,w,right,5fd66ce8aec66457ff73d743,2021-10-27_12h10.14.135,arrow_simon_punish,2021.1.2,Win32,60.0240096,,,,,,,,,,,,,,w,1,1.852,2.309491848,1,5,1,1,5,3,1,,,,,,,,,,,,,,
,,,,,,,,,,,left.png,,w,left,5fd66ce8aec66457ff73d743,2021-10-27_12h10.14.135,arrow_simon_punish,2021.1.2,Win32,60.0240096,,,,,,,,,,,,,,w,1,0.986,1.531916049,1,5,1,2,6,2,1,,,,,,,,,,,,,,
,,,,,,,,,,,left.png,,w,left,5fd66ce8aec66457ff73d743,2021-10-27_12h10.14.135,arrow_simon_punish,2021.1.2,Win32,60.0240096,,,,,,,,,,,,,,w,1,1.262,2.349327002,1,5,1,3,7,2,1,,,,,,,,,,,,,,
,,,,,,,,,,,right.png,,p,left,5fd66ce8aec66457ff73d743,2021-10-27_12h10.14.135,arrow_simon_punish,2021.1.2,Win32,60.0240096,,,,,,,,,,,,,,p,1,1.82,1.565789034,1,5,2,0,8,0,1,,,,,,,,,,,,,,
,,,,,,,,,,,right.png,,p,right,5fd66ce8aec66457ff73d743,2021-10-27_12h10.14.135,arrow_simon_punish,2021.1.2,Win32,60.0240096,,,,,,,,,,,,,,p,1,1.306,2.299411092,1,5,2,1,9,1,1,,,,,,,,,,,,,,
,,,,,,,,,,,right.png,,p,right,5fd66ce8aec66457ff73d743,2021-10-27_12h10.14.135,arrow_simon_punish,2021.1.2,Win32,60.0240096,,,,,,,,,,,,,,p,1,1.583,2.142277999,0,5,2,2,10,1,1,,,,,,,,,,,,,,
,,,,,,,,,,,left.png,,w,right,5fd66ce8aec66457ff73d743,2021-10-27_12h10.14.135,arrow_simon_punish,2021.1.2,Win32,60.0240096,,,,,,,,,,,,,,w,1,1.551,1.997358603,0,5,2,3,11,3,1,,,,,,,,,,,,,,
,,,,,,,,,,,right.png,,p,right,5fd66ce8aec66457ff73d743,2021-10-27_12h10.14.135,arrow_simon_punish,2021.1.2,Win32,60.0240096,,,,,,,,,,,,,,p,1,1.519,2.023853107,0,5,3,0,12,1,1,,,,,,,,,,,,,,
,,,,,,,,,,,left.png,,w,left,5fd66ce8aec66457ff73d743,2021-10-27_12h10.14.135,arrow_simon_punish,2021.1.2,Win32,60.0240096,,,,,,,,,,,,,,w,1,1.69,1.880917662,1,5,3,1,13,2,1,,,,,,,,,,,,,,
,,,,,,,,,,,right.png,,p,left,5fd66ce8aec66457ff73d743,2021-10-27_12h10.14.135,arrow_simon_punish,2021.1.2,Win32,60.0240096,,,,,,,,,,,,,,p,1,1.732,2.074380694,1,5,3,2,14,0,1,,,,,,,,,,,,,,
,,,,,,,,,,,left.png,,w,left,5fd66ce8aec66457ff73d743,2021-10-27_12h10.14.135,arrow_simon_punish,2021.1.2,Win32,60.0240096,,,,,,,,,,,,,,w,1,1.464,1.674234333,0,5,3,3,15,2,1,,,,,,,,,,,,,,
,,,,,,,,,,,left.png,,w,left,5fd66ce8aec66457ff73d743,2021-10-27_12h10.14.135,arrow_simon_punish,2021.1.2,Win32,60.0240096,,,,,,,,,,,,,,w,1,1.322,1.879367048,1,5,4,0,16,2,1,,,,,,,,,,,,,,
,,,,,,,,,,,right.png,,p,left,5fd66ce8aec66457ff73d743,2021-10-27_12h10.14.135,arrow_simon_punish,2021.1.2,Win32,60.0240096,,,,,,,,,,,,,,p,1,1.901,2.384955088,1,5,4,1,17,0,1,,,,,,,,,,,,,,
,,,,,,,,,,,left.png,,w,left,5fd66ce8aec66457ff73d743,2021-10-27_12h10.14.135,arrow_simon_punish,2021.1.2,Win32,60.0240096,,,,,,,,,,,,,,w,1,1.52,2.06730204,0,5,4,2,18,2,1,,,,,,,,,,,,,,
,,,,,,,,,,,right.png,,p,right,5fd66ce8aec66457ff73d743,2021-10-27_12h10.14.135,arrow_simon_punish,2021.1.2,Win32,60.0240096,,,,,,,,,,,,,,p,1,1.682,2.323965458,1,5,4,3,19,1,1,,,,,,,,,,,,,,
,,,,,,,,,,,left.png,,w,right,5fd66ce8aec66457ff73d743,2021-10-27_12h10.14.135,arrow_simon_punish,2021.1.2,Win32,60.0240096,,,,,,,,,,,,,,p,0,1.92,2.427585997,1,5,5,0,20,3,1,,,,,,,,,,,,,,
,,,,,,,,,,,left.png,,w,right,5fd66ce8aec66457ff73d743,2021-10-27_12h10.14.135,arrow_simon_punish,2021.1.2,Win32,60.0240096,,,,,,,,,,,,,,w,1,1.592,2.126750101,0,5,5,1,21,3,1,,,,,,,,,,,,,,
,,,,,,,,,,,right.png,,p,right,5fd66ce8aec66457ff73d743,2021-10-27_12h10.14.135,arrow_simon_punish,2021.1.2,Win32,60.0240096,,,,,,,,,,,,,,p,1,1.499,1.877956794,0,5,5,2,22,1,1,,,,,,,,,,,,,,
,,,,,,,,,,,left.png,,w,right,5fd66ce8aec66457ff73d743,2021-10-27_12h10.14.135,arrow_simon_punish,2021.1.2,Win32,60.0240096,,,,,,,,,,,,,,w,1,1.602,1.824115758,1,5,5,3,23,3,1,,,,,,,,,,,,,,
,,,,,,,,,,,left.png,,w,right,5fd66ce8aec66457ff73d743,2021-10-27_12h10.14.135,arrow_simon_punish,2021.1.2,Win32,60.0240096,,,,,,,,,,,,,,w,1,1.452,1.967122336,0,5,6,0,24,3,1,,,,,,,,,,,,,,
,,,,,,,,,,,right.png,,p,right,5fd66ce8aec66457ff73d743,2021-10-27_12h10.14.135,arrow_simon_punish,2021.1.2,Win32,60.0240096,,,,,,,,,,,,,,p,1,1.419,1.933160147,0,5,6,1,25,1,1,,,,,,,,,,,,,,
,,,,,,,,,,,right.png,,p,left,5fd66ce8aec66457ff73d743,2021-10-27_12h10.14.135,arrow_simon_punish,2021.1.2,Win32,60.0240096,,,,,,,,,,,,,,p,1,1.786,1.541651489,1,5,6,2,26,0,1,,,,,,,,,,,,,,
,,,,,,,,,,,right.png,,p,left,5fd66ce8aec66457ff73d743,2021-10-27_12h10.14.135,arrow_simon_punish,2021.1.2,Win32,60.0240096,,,,,,,,,,,,,,p,1,1.285,1.804226911,1,5,6,3,27,0,1,,,,,,,,,,,,,,
,,,,,,,,,,,left.png,,w,left,5fd66ce8aec66457ff73d743,2021-10-27_12h10.14.135,arrow_simon_punish,2021.1.2,Win32,60.0240096,,,,,,,,,,,,,,w,1,2.048,2.006598151,1,5,7,0,28,2,1,,,,,,,,,,,,,,
,,,,,,,,,,,left.png,,w,right,5fd66ce8aec66457ff73d743,2021-10-27_12h10.14.135,arrow_simon_punish,2021.1.2,Win32,60.0240096,,,,,,,,,,,,,,w,1,1.605,1.80188379,1,5,7,1,29,3,1,,,,,,,,,,,,,,
,,,,,,,,,,,left.png,,w,left,5fd66ce8aec66457ff73d743,2021-10-27_12h10.14.135,arrow_simon_punish,2021.1.2,Win32,60.0240096,,,,,,,,,,,,,,w,1,1.735,1.637126795,1,5,7,2,30,2,1,,,,,,,,,,,,,,
,,,,,,,,,,,left.png,,w,left,5fd66ce8aec66457ff73d743,2021-10-27_12h10.14.135,arrow_simon_punish,2021.1.2,Win32,60.0240096,,,,,,,,,,,,,,w,1,1.118,1.579100898,1,5,7,3,31,2,1,,,,,,,,,,,,,,
,,,,,,,,,,,left.png,,w,left,5fd66ce8aec66457ff73d743,2021-10-27_12h10.14.135,arrow_simon_punish,2021.1.2,Win32,60.0240096,,,,,,,,,,,,,,w,1,1.799,2.483593771,1,5,8,0,32,2,1,,,,,,,,,,,,,,
,,,,,,,,,,,right.png,,p,left,5fd66ce8aec66457ff73d743,2021-10-27_12h10.14.135,arrow_simon_punish,2021.1.2,Win32,60.0240096,,,,,,,,,,,,,,p,1,1.232,1.585251853,1,5,8,1,33,0,1,,,,,,,,,,,,,,
,,,,,,,,,,,right.png,,p,left,5fd66ce8aec66457ff73d743,2021-10-27_12h10.14.135,arrow_simon_punish,2021.1.2,Win32,60.0240096,,,,,,,,,,,,,,p,1,1.752,2.278265677,1,5,8,2,34,0,1,,,,,,,,,,,,,,
,,,,,,,,,,,left.png,,w,right,5fd66ce8aec66457ff73d743,2021-10-27_12h10.14.135,arrow_simon_punish,2021.1.2,Win32,60.0240096,,,,,,,,,,,,,,w,1,1.618,2.140470867,1,5,8,3,35,3,1,,,,,,,,,,,,,,
,,,,,,,,,,,left.png,,w,left,5fd66ce8aec66457ff73d743,2021-10-27_12h10.14.135,arrow_simon_punish,2021.1.2,Win32,60.0240096,,,,,,,,,,,,,,w,1,1.969,2.417068392,1,5,9,0,36,2,1,,,,,,,,,,,,,,
,,,,,,,,,,,right.png,,p,right,5fd66ce8aec66457ff73d743,2021-10-27_12h10.14.135,arrow_simon_punish,2021.1.2,Win32,60.0240096,,,,,,,,,,,,,,p,1,1.519,2.10328631,0,5,9,1,37,1,1,,,,,,,,,,,,,,
,,,,,,,,,,,left.png,,w,left,5fd66ce8aec66457ff73d743,2021-10-27_12h10.14.135,arrow_simon_punish,2021.1.2,Win32,60.0240096,,,,,,,,,,,,,,w,1,1.681,2.208080389,1,5,9,2,38,2,1,,,,,,,,,,,,,,
,,,,,,,,,,,right.png,,p,right,5fd66ce8aec66457ff73d743,2021-10-27_12h10.14.135,arrow_simon_punish,2021.1.2,Win32,60.0240096,,,,,,,,,,,,,,p,1,1.602,2.09317457,1,5,9,3,39,1,1,,,,,,,,,,,,,,
,,,,,,,,,,,right.png,,p,right,5fd66ce8aec66457ff73d743,2021-10-27_12h10.14.135,arrow_simon_punish,2021.1.2,Win32,60.0240096,,,,,,,,,,,,,,p,1,1.436,1.927293878,0,5,10,0,40,1,1,,,,,,,,,,,,,,
,,,,,,,,,,,left.png,,w,right,5fd66ce8aec66457ff73d743,2021-10-27_12h10.14.135,arrow_simon_punish,2021.1.2,Win32,60.0240096,,,,,,,,,,,,,,w,1,1.468,1.78181994,0,5,10,1,41,3,1,,,,,,,,,,,,,,
,,,,,,,,,,,right.png,,p,left,5fd66ce8aec66457ff73d743,2021-10-27_12h10.14.135,arrow_simon_punish,2021.1.2,Win32,60.0240096,,,,,,,,,,,,,,p,1,1.352,1.762798442,1,5,10,2,42,0,1,,,,,,,,,,,,,,
,,,,,,,,,,,left.png,,w,right,5fd66ce8aec66457ff73d743,2021-10-27_12h10.14.135,arrow_simon_punish,2021.1.2,Win32,60.0240096,,,,,,,,,,,,,,w,1,1.584,2.131247526,0,5,10,3,43,3,1,,,,,,,,,,,,,,
,,,,,,,,,,,right.png,,p,left,5fd66ce8aec66457ff73d743,2021-10-27_12h10.14.135,arrow_simon_punish,2021.1.2,Win32,60.0240096,,,,,,,,,,,,,,p,1,1.287,1.801293158,1,5,11,0,44,0,1,,,,,,,,,,,,,,
,,,,,,,,,,,left.png,,w,right,5fd66ce8aec66457ff73d743,2021-10-27_12h10.14.135,arrow_simon_punish,2021.1.2,Win32,60.0240096,,,,,,,,,,,,,,w,1,2.238,2.47574921,1,5,11,1,45,3,1,,,,,,,,,,,,,,
,,,,,,,,,,,right.png,,p,right,5fd66ce8aec66457ff73d743,2021-10-27_12h10.14.135,arrow_simon_punish,2021.1.2,Win32,60.0240096,,,,,,,,,,,,,,p,1,1.708,1.941840103,1,5,11,2,46,1,1,,,,,,,,,,,,,,
,,,,,,,,,,,right.png,,p,left,5fd66ce8aec66457ff73d743,2021-10-27_12h10.14.135,arrow_simon_punish,2021.1.2,Win32,60.0240096,,,,,,,,,,,,,,p,1,1.512,1.804161854,0,5,11,3,47,0,1,,,,,,,,,,,,,,
,,,,,,,,,,,right.png,,p,right,5fd66ce8aec66457ff73d743,2021-10-27_12h10.14.135,arrow_simon_punish,2021.1.2,Win32,60.0240096,,,,,,,,,,,,,,p,1,1.566,1.981530743,0,5,12,0,48,1,1,,,,,,,,,,,,,,
,,,,,,,,,,,left.png,,w,right,5fd66ce8aec66457ff73d743,2021-10-27_12h10.14.135,arrow_simon_punish,2021.1.2,Win32,60.0240096,,,,,,,,,,,,,,w,1,2.332,2.295384747,1,5,12,1,49,3,1,,,,,,,,,,,,,,
,,,,,,,,,,,right.png,,p,left,5fd66ce8aec66457ff73d743,2021-10-27_12h10.14.135,arrow_simon_punish,2021.1.2,Win32,60.0240096,,,,,,,,,,,,,,p,1,1.303,1.691236201,1,5,12,2,50,0,1,,,,,,,,,,,,,,
,,,,,,,,,,,left.png,,w,right,5fd66ce8aec66457ff73d743,2021-10-27_12h10.14.135,arrow_simon_punish,2021.1.2,Win32,60.0240096,,,,,,,,,,,,,,w,1,1.735,1.639148434,1,5,12,3,51,3,1,,,,,,,,,,,,,,
,,,,,,,,,,,right.png,,p,right,5fd66ce8aec66457ff73d743,2021-10-27_12h10.14.135,arrow_simon_punish,2021.1.2,Win32,60.0240096,,,,,,,,,,,,,,p,1,1.867,1.692621938,1,5,13,0,52,1,1,,,,,,,,,,,,,,
,,,,,,,,,,,left.png,,w,left,5fd66ce8aec66457ff73d743,2021-10-27_12h10.14.135,arrow_simon_punish,2021.1.2,Win32,60.0240096,,,,,,,,,,,,,,w,1,1.719,1.699424847,1,5,13,1,53,2,1,,,,,,,,,,,,,,
,,,,,,,,,,,left.png,,w,left,5fd66ce8aec66457ff73d743,2021-10-27_12h10.14.135,arrow_simon_punish,2021.1.2,Win32,60.0240096,,,,,,,,,,,,,,w,1,1.784,2.233936443,1,5,13,2,54,2,1,,,,,,,,,,,,,,
,,,,,,,,,,,right.png,,p,right,5fd66ce8aec66457ff73d743,2021-10-27_12h10.14.135,arrow_simon_punish,2021.1.2,Win32,60.0240096,,,,,,,,,,,,,,p,1,1.133,1.576221153,1,5,13,3,55,1,1,,,,,,,,,,,,,,
,,,,,,,,,,,right.png,,p,left,5fd66ce8aec66457ff73d743,2021-10-27_12h10.14.135,arrow_simon_punish,2021.1.2,Win32,60.0240096,,,,,,,,,,,,,,p,1,1.901,1.961606507,1,5,14,0,56,0,1,,,,,,,,,,,,,,
,,,,,,,,,,,left.png,,w,right,5fd66ce8aec66457ff73d743,2021-10-27_12h10.14.135,arrow_simon_punish,2021.1.2,Win32,60.0240096,,,,,,,,,,,,,,w,1,1.483,2.115369268,0,5,14,1,57,3,1,,,,,,,,,,,,,,
,,,,,,,,,,,right.png,,p,left,5fd66ce8aec66457ff73d743,2021-10-27_12h10.14.135,arrow_simon_punish,2021.1.2,Win32,60.0240096,,,,,,,,,,,,,,p,1,1.244,1.621605283,1,5,14,2,58,0,1,,,,,,,,,,,,,,
,,,,,,,,,,,left.png,,w,left,5fd66ce8aec66457ff73d743,2021-10-27_12h10.14.135,arrow_simon_punish,2021.1.2,Win32,60.0240096,,,,,,,,,,,,,,w,1,1.617,1.883902752,1,5,14,3,59,2,1,,,,,,,,,,,,,,
,,,,,,,,,,,,,,,5fd66ce8aec66457ff73d743,2021-10-27_12h10.14.135,arrow_simon_punish,2021.1.2,Win32,60.0240096,,,,,,,,,,,,,,,,,,,,,,,,,space,25.468,7,2,1,5,1,1,5,,,,,
,,,,,,,,,,,left.png,,w,left,5fd66ce8aec66457ff73d743,2021-10-27_12h10.14.135,arrow_simon_punish,2021.1.2,Win32,60.0240096,,,,,,,,,,,,,,w,1,1.909,2.359902639,1,1,0,0,0,2,1,,,,,,,,,,,,,,
,,,,,,,,,,,right.png,,p,right,5fd66ce8aec66457ff73d743,2021-10-27_12h10.14.135,arrow_simon_punish,2021.1.2,Win32,60.0240096,,,,,,,,,,,,,,p,1,1.801,2.37326456,1,1,0,1,1,1,1,,,,,,,,,,,,,,
,,,,,,,,,,,right.png,,p,right,5fd66ce8aec66457ff73d743,2021-10-27_12h10.14.135,arrow_simon_punish,2021.1.2,Win32,60.0240096,,,,,,,,,,,,,,p,1,1.301,1.862496044,1,1,0,2,2,1,1,,,,,,,,,,,,,,
,,,,,,,,,,,left.png,,w,right,5fd66ce8aec66457ff73d743,2021-10-27_12h10.14.135,arrow_simon_punish,2021.1.2,Win32,60.0240096,,,,,,,,,,,,,,w,1,1.953,2.403124143,1,1,0,3,3,3,1,,,,,,,,,,,,,,
,,,,,,,,,,,right.png,,p,left,5fd66ce8aec66457ff73d743,2021-10-27_12h10.14.135,arrow_simon_punish,2021.1.2,Win32,60.0240096,,,,,,,,,,,,,,p,1,1.268,1.674495492,1,1,1,0,4,0,1,,,,,,,,,,,,,,
,,,,,,,,,,,right.png,,p,right,5fd66ce8aec66457ff73d743,2021-10-27_12h10.14.135,arrow_simon_punish,2021.1.2,Win32,60.0240096,,,,,,,,,,,,,,p,1,1.414,1.911780745,0,1,1,1,5,1,1,,,,,,,,,,,,,,
,,,,,,,,,,,left.png,,w,right,5fd66ce8aec66457ff73d743,2021-10-27_12h10.14.135,arrow_simon_punish,2021.1.2,Win32,60.0240096,,,,,,,,,,,,,,p,0,1.859,2.417582394,1,1,1,2,6,3,1,,,,,,,,,,,,,,
,,,,,,,,,,,right.png,,p,right,5fd66ce8aec66457ff73d743,2021-10-27_12h10.14.135,arrow_simon_punish,2021.1.2,Win32,60.0240096,,,,,,,,,,,,,,p,1,1.562,2.02912843,0,1,1,3,7,1,1,,,,,,,,,,,,,,
,,,,,,,,,,,left.png,,w,left,5fd66ce8aec66457ff73d743,2021-10-27_12h10.14.135,arrow_simon_punish,2021.1.2,Win32,60.0240096,,,,,,,,,,,,,,w,1,1.331,2.273405828,1,1,2,0,8,2,1,,,,,,,,,,,,,,
,,,,,,,,,,,right.png,,p,right,5fd66ce8aec66457ff73d743,2021-10-27_12h10.14.135,arrow_simon_punish,2021.1.2,Win32,60.0240096,,,,,,,,,,,,,,p,1,1.745,2.313605715,1,1,2,1,9,1,1,,,,,,,,,,,,,,
,,,,,,,,,,,left.png,,w,left,5fd66ce8aec66457ff73d743,2021-10-27_12h10.14.135,arrow_simon_punish,2021.1.2,Win32,60.0240096,,,,,,,,,,,,,,w,1,0.669,1.583819403,1,1,2,2,10,2,1,,,,,,,,,,,,,,
,,,,,,,,,,,right.png,,p,right,5fd66ce8aec66457ff73d743,2021-10-27_12h10.14.135,arrow_simon_punish,2021.1.2,Win32,60.0240096,,,,,,,,,,,,,,p,1,1.868,2.463489771,1,1,2,3,11,1,1,,,,,,,,,,,,,,
,,,,,,,,,,,left.png,,w,right,5fd66ce8aec66457ff73d743,2021-10-27_12h10.14.135,arrow_simon_punish,2021.1.2,Win32,60.0240096,,,,,,,,,,,,,,w,1,1.932,1.867532633,1,1,3,0,12,3,1,,,,,,,,,,,,,,
,,,,,,,,,,,left.png,,w,left,5fd66ce8aec66457ff73d743,2021-10-27_12h10.14.135,arrow_simon_punish,2021.1.2,Win32,60.0240096,,,,,,,,,,,,,,w,1,1.284,1.735500634,1,1,3,1,13,2,1,,,,,,,,,,,,,,
,,,,,,,,,,,left.png,,w,right,5fd66ce8aec66457ff73d743,2021-10-27_12h10.14.135,arrow_simon_punish,2021.1.2,Win32,60.0240096,,,,,,,,,,,,,,w,1,1.574,1.678026462,0,1,3,2,14,3,1,,,,,,,,,,,,,,
,,,,,,,,,,,left.png,,w,left,5fd66ce8aec66457ff73d743,2021-10-27_12h10.14.135,arrow_simon_punish,2021.1.2,Win32,60.0240096,,,,,,,,,,,,,,w,1,1.218,1.525781119,1,1,3,3,15,2,1,,,,,,,,,,,,,,
,,,,,,,,,,,right.png,,p,left,5fd66ce8aec66457ff73d743,2021-10-27_12h10.14.135,arrow_simon_punish,2021.1.2,Win32,60.0240096,,,,,,,,,,,,,,p,1,1.263,1.631458183,1,1,4,0,16,0,1,,,,,,,,,,,,,,
,,,,,,,,,,,left.png,,w,left,5fd66ce8aec66457ff73d743,2021-10-27_12h10.14.135,arrow_simon_punish,2021.1.2,Win32,60.0240096,,,,,,,,,,,,,,w,1,1.832,2.068472469,1,1,4,1,17,2,1,,,,,,,,,,,,,,
,,,,,,,,,,,right.png,,p,left,5fd66ce8aec66457ff73d743,2021-10-27_12h10.14.135,arrow_simon_punish,2021.1.2,Win32,60.0240096,,,,,,,,,,,,,,p,1,1.52,2.118720367,0,1,4,2,18,0,1,,,,,,,,,,,,,,
,,,,,,,,,,,right.png,,p,left,5fd66ce8aec66457ff73d743,2021-10-27_12h10.14.135,arrow_simon_punish,2021.1.2,Win32,60.0240096,,,,,,,,,,,,,,p,1,1.634,2.167639553,1,1,4,3,19,0,1,,,,,,,,,,,,,,
,,,,,,,,,,,right.png,,p,right,5fd66ce8aec66457ff73d743,2021-10-27_12h10.14.135,arrow_simon_punish,2021.1.2,Win32,60.0240096,,,,,,,,,,,,,,p,1,1.251,1.758623249,1,1,5,0,20,1,1,,,,,,,,,,,,,,
,,,,,,,,,,,right.png,,p,left,5fd66ce8aec66457ff73d743,2021-10-27_12h10.14.135,arrow_simon_punish,2021.1.2,Win32,60.0240096,,,,,,,,,,,,,,p,1,1.367,1.629050378,1,1,5,1,21,0,1,,,,,,,,,,,,,,
,,,,,,,,,,,left.png,,w,left,5fd66ce8aec66457ff73d743,2021-10-27_12h10.14.135,arrow_simon_punish,2021.1.2,Win32,60.0240096,,,,,,,,,,,,,,w,1,1.615,2.148991493,1,1,5,2,22,2,1,,,,,,,,,,,,,,
,,,,,,,,,,,right.png,,p,left,5fd66ce8aec66457ff73d743,2021-10-27_12h10.14.135,arrow_simon_punish,2021.1.2,Win32,60.0240096,,,,,,,,,,,,,,p,1,1.917,2.298840514,1,1,5,3,23,0,1,,,,,,,,,,,,,,
,,,,,,,,,,,right.png,,p,right,5fd66ce8aec66457ff73d743,2021-10-27_12h10.14.135,arrow_simon_punish,2021.1.2,Win32,60.0240096,,,,,,,,,,,,,,p,1,1.554,2.034910122,0,1,6,0,24,1,1,,,,,,,,,,,,,,
,,,,,,,,,,,right.png,,p,left,5fd66ce8aec66457ff73d743,2021-10-27_12h10.14.135,arrow_simon_punish,2021.1.2,Win32,60.0240096,,,,,,,,,,,,,,w,0,1.738,2.228376464,1,1,6,1,25,0,1,,,,,,,,,,,,,,
,,,,,,,,,,,right.png,,p,right,5fd66ce8aec66457ff73d743,2021-10-27_12h10.14.135,arrow_simon_punish,2021.1.2,Win32,60.0240096,,,,,,,,,,,,,,p,1,1.818,2.271686394,1,1,6,2,26,1,1,,,,,,,,,,,,,,
,,,,,,,,,,,right.png,,p,left,5fd66ce8aec66457ff73d743,2021-10-27_12h10.14.135,arrow_simon_punish,2021.1.2,Win32,60.0240096,,,,,,,,,,,,,,p,1,1.48,1.590074472,0,1,6,3,27,0,1,,,,,,,,,,,,,,
,,,,,,,,,,,right.png,,p,left,5fd66ce8aec66457ff73d743,2021-10-27_12h10.14.135,arrow_simon_punish,2021.1.2,Win32,60.0240096,,,,,,,,,,,,,,p,1,1.15,1.598169076,1,1,7,0,28,0,1,,,,,,,,,,,,,,
,,,,,,,,,,,left.png,,w,right,5fd66ce8aec66457ff73d743,2021-10-27_12h10.14.135,arrow_simon_punish,2021.1.2,Win32,60.0240096,,,,,,,,,,,,,,w,1,1.137,1.501479939,1,1,7,1,29,3,1,,,,,,,,,,,,,,
,,,,,,,,,,,left.png,,w,right,5fd66ce8aec66457ff73d743,2021-10-27_12h10.14.135,arrow_simon_punish,2021.1.2,Win32,60.0240096,,,,,,,,,,,,,,w,1,1.3,1.595992408,1,1,7,2,30,3,1,,,,,,,,,,,,,,
,,,,,,,,,,,right.png,,p,left,5fd66ce8aec66457ff73d743,2021-10-27_12h10.14.135,arrow_simon_punish,2021.1.2,Win32,60.0240096,,,,,,,,,,,,,,p,1,1.668,2.082239089,1,1,7,3,31,0,1,,,,,,,,,,,,,,
,,,,,,,,,,,left.png,,w,left,5fd66ce8aec66457ff73d743,2021-10-27_12h10.14.135,arrow_simon_punish,2021.1.2,Win32,60.0240096,,,,,,,,,,,,,,p,0,1.788,2.483079675,1,1,8,0,32,2,1,,,,,,,,,,,,,,
,,,,,,,,,,,left.png,,w,left,5fd66ce8aec66457ff73d743,2021-10-27_12h10.14.135,arrow_simon_punish,2021.1.2,Win32,60.0240096,,,,,,,,,,,,,,w,1,1.515,1.875776937,0,1,8,1,33,2,1,,,,,,,,,,,,,,
,,,,,,,,,,,left.png,,w,right,5fd66ce8aec66457ff73d743,2021-10-27_12h10.14.135,arrow_simon_punish,2021.1.2,Win32,60.0240096,,,,,,,,,,,,,,w,1,1.484,1.861465171,0,1,8,2,34,3,1,,,,,,,,,,,,,,
,,,,,,,,,,,left.png,,w,right,5fd66ce8aec66457ff73d743,2021-10-27_12h10.14.135,arrow_simon_punish,2021.1.2,Win32,60.0240096,,,,,,,,,,,,,,w,1,1.843,1.997310378,1,1,8,3,35,3,1,,,,,,,,,,,,,,
,,,,,,,,,,,right.png,,p,right,5fd66ce8aec66457ff73d743,2021-10-27_12h10.14.135,arrow_simon_punish,2021.1.2,Win32,60.0240096,,,,,,,,,,,,,,p,1,1.302,1.728011734,1,1,9,0,36,1,1,,,,,,,,,,,,,,
,,,,,,,,,,,left.png,,w,left,5fd66ce8aec66457ff73d743,2021-10-27_12h10.14.135,arrow_simon_punish,2021.1.2,Win32,60.0240096,,,,,,,,,,,,,,w,1,1.523,1.745779377,0,1,9,1,37,2,1,,,,,,,,,,,,,,
,,,,,,,,,,,left.png,,w,right,5fd66ce8aec66457ff73d743,2021-10-27_12h10.14.135,arrow_simon_punish,2021.1.2,Win32,60.0240096,,,,,,,,,,,,,,w,1,1.804,1.515899982,1,1,9,2,38,3,1,,,,,,,,,,,,,,
,,,,,,,,,,,right.png,,p,left,5fd66ce8aec66457ff73d743,2021-10-27_12h10.14.135,arrow_simon_punish,2021.1.2,Win32,60.0240096,,,,,,,,,,,,,,p,1,1.638,1.581750948,1,1,9,3,39,0,1,,,,,,,,,,,,,,
,,,,,,,,,,,right.png,,p,left,5fd66ce8aec66457ff73d743,2021-10-27_12h10.14.135,arrow_simon_punish,2021.1.2,Win32,60.0240096,,,,,,,,,,,,,,p,1,1.754,2.191412906,1,1,10,0,40,0,1,,,,,,,,,,,,,,
,,,,,,,,,,,left.png,,w,right,5fd66ce8aec66457ff73d743,2021-10-27_12h10.14.135,arrow_simon_punish,2021.1.2,Win32,60.0240096,,,,,,,,,,,,,,w,1,1.25,1.603833152,1,1,10,1,41,3,1,,,,,,,,,,,,,,
,,,,,,,,,,,left.png,,w,left,5fd66ce8aec66457ff73d743,2021-10-27_12h10.14.135,arrow_simon_punish,2021.1.2,Win32,60.0240096,,,,,,,,,,,,,,w,1,1.302,1.697050823,1,1,10,2,42,2,1,,,,,,,,,,,,,,
,,,,,,,,,,,right.png,,p,right,5fd66ce8aec66457ff73d743,2021-10-27_12h10.14.135,arrow_simon_punish,2021.1.2,Win32,60.0240096,,,,,,,,,,,,,,p,1,1.803,2.472149094,1,1,10,3,43,1,1,,,,,,,,,,,,,,
,,,,,,,,,,,left.png,,w,left,5fd66ce8aec66457ff73d743,2021-10-27_12h10.14.135,arrow_simon_punish,2021.1.2,Win32,60.0240096,,,,,,,,,,,,,,w,1,2.035,2.226159776,1,1,11,0,44,2,1,,,,,,,,,,,,,,
,,,,,,,,,,,right.png,,p,right,5fd66ce8aec66457ff73d743,2021-10-27_12h10.14.135,arrow_simon_punish,2021.1.2,Win32,60.0240096,,,,,,,,,,,,,,p,1,1.254,1.853740169,1,1,11,1,45,1,1,,,,,,,,,,,,,,
,,,,,,,,,,,left.png,,w,right,5fd66ce8aec66457ff73d743,2021-10-27_12h10.14.135,arrow_simon_punish,2021.1.2,Win32,60.0240096,,,,,,,,,,,,,,w,1,1.161,1.620234267,1,1,11,2,46,3,1,,,,,,,,,,,,,,
,,,,,,,,,,,left.png,,w,right,5fd66ce8aec66457ff73d743,2021-10-27_12h10.14.135,arrow_simon_punish,2021.1.2,Win32,60.0240096,,,,,,,,,,,,,,w,1,1.969,2.463256535,1,1,11,3,47,3,1,,,,,,,,,,,,,,
,,,,,,,,,,,right.png,,p,left,5fd66ce8aec66457ff73d743,2021-10-27_12h10.14.135,arrow_simon_punish,2021.1.2,Win32,60.0240096,,,,,,,,,,,,,,p,1,1.395,1.765243955,1,1,12,0,48,0,1,,,,,,,,,,,,,,
,,,,,,,,,,,left.png,,w,left,5fd66ce8aec66457ff73d743,2021-10-27_12h10.14.135,arrow_simon_punish,2021.1.2,Win32,60.0240096,,,,,,,,,,,,,,w,1,1.552,2.11330171,0,1,12,1,49,2,1,,,,,,,,,,,,,,
,,,,,,,,,,,left.png,,w,right,5fd66ce8aec66457ff73d743,2021-10-27_12h10.14.135,arrow_simon_punish,2021.1.2,Win32,60.0240096,,,,,,,,,,,,,,w,1,2.02,2.17778553,1,1,12,2,50,3,1,,,,,,,,,,,,,,
,,,,,,,,,,,right.png,,p,right,5fd66ce8aec66457ff73d743,2021-10-27_12h10.14.135,arrow_simon_punish,2021.1.2,Win32,60.0240096,,,,,,,,,,,,,,p,1,1.634,1.89332961,1,1,12,3,51,1,1,,,,,,,,,,,,,,
,,,,,,,,,,,left.png,,w,right,5fd66ce8aec66457ff73d743,2021-10-27_12h10.14.135,arrow_simon_punish,2021.1.2,Win32,60.0240096,,,,,,,,,,,,,,w,1,1.14,1.50356063,1,1,13,0,52,3,1,,,,,,,,,,,,,,
,,,,,,,,,,,left.png,,w,left,5fd66ce8aec66457ff73d743,2021-10-27_12h10.14.135,arrow_simon_punish,2021.1.2,Win32,60.0240096,,,,,,,,,,,,,,w,1,1.701,2.104735004,1,1,13,1,53,2,1,,,,,,,,,,,,,,
,,,,,,,,,,,right.png,,p,right,5fd66ce8aec66457ff73d743,2021-10-27_12h10.14.135,arrow_simon_punish,2021.1.2,Win32,60.0240096,,,,,,,,,,,,,,p,1,1.07,1.691554564,1,1,13,2,54,1,1,,,,,,,,,,,,,,
,,,,,,,,,,,right.png,,p,left,5fd66ce8aec66457ff73d743,2021-10-27_12h10.14.135,arrow_simon_punish,2021.1.2,Win32,60.0240096,,,,,,,,,,,,,,w,0,1.518,2.100366863,1,1,13,3,55,0,1,,,,,,,,,,,,,,
,,,,,,,,,,,left.png,,w,right,5fd66ce8aec66457ff73d743,2021-10-27_12h10.14.135,arrow_simon_punish,2021.1.2,Win32,60.0240096,,,,,,,,,,,,,,w,1,1.221,1.634873474,1,1,14,0,56,3,1,,,,,,,,,,,,,,
,,,,,,,,,,,right.png,,p,left,5fd66ce8aec66457ff73d743,2021-10-27_12h10.14.135,arrow_simon_punish,2021.1.2,Win32,60.0240096,,,,,,,,,,,,,,p,1,1.727,1.791392736,1,1,14,1,57,0,1,,,,,,,,,,,,,,
,,,,,,,,,,,right.png,,p,right,5fd66ce8aec66457ff73d743,2021-10-27_12h10.14.135,arrow_simon_punish,2021.1.2,Win32,60.0240096,,,,,,,,,,,,,,p,1,1.891,2.446529298,1,1,14,2,58,1,1,,,,,,,,,,,,,,
,,,,,,,,,,,left.png,,w,left,5fd66ce8aec66457ff73d743,2021-10-27_12h10.14.135,arrow_simon_punish,2021.1.2,Win32,60.0240096,,,,,,,,,,,,,,w,1,1.775,1.701896193,1,1,14,3,59,2,1,,,,,,,,,,,,,,
,,,,,,,,,,,,,,,5fd66ce8aec66457ff73d743,2021-10-27_12h10.14.135,arrow_simon_punish,2021.1.2,Win32,60.0240096,,,,,,,,,,,,,,,,,,,,,,,,,space,20.778,8,3,0,6,0,1,1,,,,,
,,,,,,,,,,,right.png,,p,right,5fd66ce8aec66457ff73d743,2021-10-27_12h10.14.135,arrow_simon_punish,2021.1.2,Win32,60.0240096,,,,,,,,,,,,,,p,1,1.148,2.016877661,1,5,0,0,0,1,1,,,,,,,,,,,,,,
,,,,,,,,,,,left.png,,w,left,5fd66ce8aec66457ff73d743,2021-10-27_12h10.14.135,arrow_simon_punish,2021.1.2,Win32,60.0240096,,,,,,,,,,,,,,w,1,1.019,1.605099878,1,5,0,1,1,2,1,,,,,,,,,,,,,,
,,,,,,,,,,,left.png,,w,right,5fd66ce8aec66457ff73d743,2021-10-27_12h10.14.135,arrow_simon_punish,2021.1.2,Win32,60.0240096,,,,,,,,,,,,,,p,0,1.718,2.400833643,1,5,0,2,2,3,1,,,,,,,,,,,,,,
,,,,,,,,,,,right.png,,p,right,5fd66ce8aec66457ff73d743,2021-10-27_12h10.14.135,arrow_simon_punish,2021.1.2,Win32,60.0240096,,,,,,,,,,,,,,p,1,1.183,1.624099362,1,5,0,3,3,1,1,,,,,,,,,,,,,,
,,,,,,,,,,,left.png,,w,left,5fd66ce8aec66457ff73d743,2021-10-27_12h10.14.135,arrow_simon_punish,2021.1.2,Win32,60.0240096,,,,,,,,,,,,,,w,1,1.182,1.755961582,1,5,1,0,4,2,1,,,,,,,,,,,,,,
,,,,,,,,,,,left.png,,w,left,5fd66ce8aec66457ff73d743,2021-10-27_12h10.14.135,arrow_simon_punish,2021.1.2,Win32,60.0240096,,,,,,,,,,,,,,w,1,1.003,1.558238472,1,5,1,1,5,2,1,,,,,,,,,,,,,,
,,,,,,,,,,,right.png,,p,left,5fd66ce8aec66457ff73d743,2021-10-27_12h10.14.135,arrow_simon_punish,2021.1.2,Win32,60.0240096,,,,,,,,,,,,,,p,1,1.513,1.895316949,0,5,1,2,6,0,1,,,,,,,,,,,,,,
,,,,,,,,,,,left.png,,w,right,5fd66ce8aec66457ff73d743,2021-10-27_12h10.14.135,arrow_simon_punish,2021.1.2,Win32,60.0240096,,,,,,,,,,,,,,w,1,1.336,2.341800916,1,5,1,3,7,3,1,,,,,,,,,,,,,,
,,,,,,,,,,,left.png,,w,left,5fd66ce8aec66457ff73d743,2021-10-27_12h10.14.135,arrow_simon_punish,2021.1.2,Win32,60.0240096,,,,,,,,,,,,,,w,1,1.656,2.189821729,1,5,2,0,8,2,1,,,,,,,,,,,,,,
,,,,,,,,,,,left.png,,w,left,5fd66ce8aec66457ff73d743,2021-10-27_12h10.14.135,arrow_simon_punish,2021.1.2,Win32,60.0240096,,,,,,,,,,,,,,w,1,0.564,1.509052608,1,5,2,1,9,2,1,,,,,,,,,,,,,,
,,,,,,,,,,,left.png,,w,left,5fd66ce8aec66457ff73d743,2021-10-27_12h10.14.135,arrow_simon_punish,2021.1.2,Win32,60.0240096,,,,,,,,,,,,,,w,1,1.72,2.237305378,1,5,2,2,10,2,1,,,,,,,,,,,,,,
,,,,,,,,,,,left.png,,w,right,5fd66ce8aec66457ff73d743,2021-10-27_12h10.14.135,arrow_simon_punish,2021.1.2,Win32,60.0240096,,,,,,,,,,,,,,p,0,1.711,2.065964545,1,5,2,3,11,3,1,,,,,,,,,,,,,,
,,,,,,,,,,,left.png,,w,left,5fd66ce8aec66457ff73d743,2021-10-27_12h10.14.135,arrow_simon_punish,2021.1.2,Win32,60.0240096,,,,,,,,,,,,,,w,1,1.501,2.017084524,0,5,3,0,12,2,1,,,,,,,,,,,,,,
,,,,,,,,,,,left.png,,w,left,5fd66ce8aec66457ff73d743,2021-10-27_12h10.14.135,arrow_simon_punish,2021.1.2,Win32,60.0240096,,,,,,,,,,,,,,w,1,2.302,2.244012916,1,5,3,1,13,2,1,,,,,,,,,,,,,,
