instruct_resp_simon.keys,instruct_resp_simon.corr,instruct_resp_simon.rt,trial_resp_simon.keys,trial_resp_simon.corr,trial_resp_simon.rt,trials_train_simon.thisRepN,trials_train_simon.thisTrialN,trials_train_simon.thisN,trials_train_simon.thisIndex,trials_train_simon.ran,target_file,target_pos,target_resp,target_side,participant,date,expName,psychopyVersion,OS,frameRate,instruct_resp_timing.keys,instruct_resp_timing.corr,instruct_resp_timing.rt,trial_resp_timing.keys,trial_resp_timing.rt,trials_train_timing.thisRepN,trials_train_timing.thisTrialN,trials_train_timing.thisN,trials_train_timing.thisIndex,trials_train_timing.ran,instruct_resp.keys,instruct_resp.corr,instruct_resp.rt,trial_resp.keys,trial_resp.corr,trial_resp.rt,target_onset,err,pun,trials.thisRepN,trials.thisTrialN,trials.thisN,trials.thisIndex,trials.ran,block_note_resp.keys,block_note_resp.rt,block_num,blocks.thisRepN,blocks.thisTrialN,blocks.thisN,blocks.thisIndex,blocks.ran,punish,complete_resp.keys,complete_resp.rt,raffle_trial,raffle_err,raffle_rew
space,0,42.817,w,0,1.4356,0,0,0,0,1,right.png,,p,left,60e4c09a4b30f16f5a1053e7,2021-10-27_11h09.29.555,arrow_simon_punish,2021.1.2,Win32,20.02162335,,,,,,,,,,,,,,,,,,,,,,,,,,,,,,,,,,,,,,
,,,w,1,1.7618,0,1,1,3,1,left.png,,w,right,60e4c09a4b30f16f5a1053e7,2021-10-27_11h09.29.555,arrow_simon_punish,2021.1.2,Win32,20.02162335,,,,,,,,,,,,,,,,,,,,,,,,,,,,,,,,,,,,,,
,,,p,0,1.1499,0,2,2,2,1,left.png,,w,left,60e4c09a4b30f16f5a1053e7,2021-10-27_11h09.29.555,arrow_simon_punish,2021.1.2,Win32,20.02162335,,,,,,,,,,,,,,,,,,,,,,,,,,,,,,,,,,,,,,
,,,p,1,1.3516,0,3,3,1,1,right.png,,p,right,60e4c09a4b30f16f5a1053e7,2021-10-27_11h09.29.555,arrow_simon_punish,2021.1.2,Win32,20.02162335,,,,,,,,,,,,,,,,,,,,,,,,,,,,,,,,,,,,,,
,,,w,1,2.0577,1,0,4,3,1,left.png,,w,right,60e4c09a4b30f16f5a1053e7,2021-10-27_11h09.29.555,arrow_simon_punish,2021.1.2,Win32,20.02162335,,,,,,,,,,,,,,,,,,,,,,,,,,,,,,,,,,,,,,
,,,p,1,1.5313,1,1,5,0,1,right.png,,p,left,60e4c09a4b30f16f5a1053e7,2021-10-27_11h09.29.555,arrow_simon_punish,2021.1.2,Win32,20.02162335,,,,,,,,,,,,,,,,,,,,,,,,,,,,,,,,,,,,,,
,,,p,0,1.2639,1,2,6,2,1,left.png,,w,left,60e4c09a4b30f16f5a1053e7,2021-10-27_11h09.29.555,arrow_simon_punish,2021.1.2,Win32,20.02162335,,,,,,,,,,,,,,,,,,,,,,,,,,,,,,,,,,,,,,
,,,p,1,0.969,1,3,7,1,1,right.png,,p,right,60e4c09a4b30f16f5a1053e7,2021-10-27_11h09.29.555,arrow_simon_punish,2021.1.2,Win32,20.02162335,,,,,,,,,,,,,,,,,,,,,,,,,,,,,,,,,,,,,,
,,,p,1,1.7429,2,0,8,0,1,right.png,,p,left,60e4c09a4b30f16f5a1053e7,2021-10-27_11h09.29.555,arrow_simon_punish,2021.1.2,Win32,20.02162335,,,,,,,,,,,,,,,,,,,,,,,,,,,,,,,,,,,,,,
,,,p,1,0.841,2,1,9,1,1,right.png,,p,right,60e4c09a4b30f16f5a1053e7,2021-10-27_11h09.29.555,arrow_simon_punish,2021.1.2,Win32,20.02162335,,,,,,,,,,,,,,,,,,,,,,,,,,,,,,,,,,,,,,
,,,w,1,0.8167,2,2,10,2,1,left.png,,w,left,60e4c09a4b30f16f5a1053e7,2021-10-27_11h09.29.555,arrow_simon_punish,2021.1.2,Win32,20.02162335,,,,,,,,,,,,,,,,,,,,,,,,,,,,,,,,,,,,,,
,,,p,0,1.4286,2,3,11,3,1,left.png,,w,right,60e4c09a4b30f16f5a1053e7,2021-10-27_11h09.29.555,arrow_simon_punish,2021.1.2,Win32,20.02162335,,,,,,,,,,,,,,,,,,,,,,,,,,,,,,,,,,,,,,
,,,p,1,1.0933,3,0,12,1,1,right.png,,p,right,60e4c09a4b30f16f5a1053e7,2021-10-27_11h09.29.555,arrow_simon_punish,2021.1.2,Win32,20.02162335,,,,,,,,,,,,,,,,,,,,,,,,,,,,,,,,,,,,,,
,,,w,1,1.5769,3,1,13,2,1,left.png,,w,left,60e4c09a4b30f16f5a1053e7,2021-10-27_11h09.29.555,arrow_simon_punish,2021.1.2,Win32,20.02162335,,,,,,,,,,,,,,,,,,,,,,,,,,,,,,,,,,,,,,
,,,w,1,1.7156,3,2,14,3,1,left.png,,w,right,60e4c09a4b30f16f5a1053e7,2021-10-27_11h09.29.555,arrow_simon_punish,2021.1.2,Win32,20.02162335,,,,,,,,,,,,,,,,,,,,,,,,,,,,,,,,,,,,,,
,,,p,1,1.6666,3,3,15,0,1,right.png,,p,left,60e4c09a4b30f16f5a1053e7,2021-10-27_11h09.29.555,arrow_simon_punish,2021.1.2,Win32,20.02162335,,,,,,,,,,,,,,,,,,,,,,,,,,,,,,,,,,,,,,
,,,p,1,1.6859,4,0,16,1,1,right.png,,p,right,60e4c09a4b30f16f5a1053e7,2021-10-27_11h09.29.555,arrow_simon_punish,2021.1.2,Win32,20.02162335,,,,,,,,,,,,,,,,,,,,,,,,,,,,,,,,,,,,,,
,,,p,1,1.7083,4,1,17,0,1,right.png,,p,left,60e4c09a4b30f16f5a1053e7,2021-10-27_11h09.29.555,arrow_simon_punish,2021.1.2,Win32,20.02162335,,,,,,,,,,,,,,,,,,,,,,,,,,,,,,,,,,,,,,
,,,w,1,1.2187,4,2,18,3,1,left.png,,w,right,60e4c09a4b30f16f5a1053e7,2021-10-27_11h09.29.555,arrow_simon_punish,2021.1.2,Win32,20.02162335,,,,,,,,,,,,,,,,,,,,,,,,,,,,,,,,,,,,,,
,,,p,0,1.557,4,3,19,2,1,left.png,,w,left,60e4c09a4b30f16f5a1053e7,2021-10-27_11h09.29.555,arrow_simon_punish,2021.1.2,Win32,20.02162335,,,,,,,,,,,,,,,,,,,,,,,,,,,,,,,,,,,,,,
,,,w,1,0.9645,5,0,20,3,1,left.png,,w,right,60e4c09a4b30f16f5a1053e7,2021-10-27_11h09.29.555,arrow_simon_punish,2021.1.2,Win32,20.02162335,,,,,,,,,,,,,,,,,,,,,,,,,,,,,,,,,,,,,,
,,,w,1,1.2517,5,1,21,2,1,left.png,,w,left,60e4c09a4b30f16f5a1053e7,2021-10-27_11h09.29.555,arrow_simon_punish,2021.1.2,Win32,20.02162335,,,,,,,,,,,,,,,,,,,,,,,,,,,,,,,,,,,,,,
,,,p,1,1.7906,5,2,22,0,1,right.png,,p,left,60e4c09a4b30f16f5a1053e7,2021-10-27_11h09.29.555,arrow_simon_punish,2021.1.2,Win32,20.02162335,,,,,,,,,,,,,,,,,,,,,,,,,,,,,,,,,,,,,,
,,,p,1,1.1439,5,3,23,1,1,right.png,,p,right,60e4c09a4b30f16f5a1053e7,2021-10-27_11h09.29.555,arrow_simon_punish,2021.1.2,Win32,20.02162335,,,,,,,,,,,,,,,,,,,,,,,,,,,,,,,,,,,,,,
,,,p,0,1.8637,6,0,24,2,1,left.png,,w,left,60e4c09a4b30f16f5a1053e7,2021-10-27_11h09.29.555,arrow_simon_punish,2021.1.2,Win32,20.02162335,,,,,,,,,,,,,,,,,,,,,,,,,,,,,,,,,,,,,,
,,,w,1,1.5758,6,1,25,3,1,left.png,,w,right,60e4c09a4b30f16f5a1053e7,2021-10-27_11h09.29.555,arrow_simon_punish,2021.1.2,Win32,20.02162335,,,,,,,,,,,,,,,,,,,,,,,,,,,,,,,,,,,,,,
,,,p,1,1.6177,6,2,26,1,1,right.png,,p,right,60e4c09a4b30f16f5a1053e7,2021-10-27_11h09.29.555,arrow_simon_punish,2021.1.2,Win32,20.02162335,,,,,,,,,,,,,,,,,,,,,,,,,,,,,,,,,,,,,,
,,,p,1,1.0509,6,3,27,0,1,right.png,,p,left,60e4c09a4b30f16f5a1053e7,2021-10-27_11h09.29.555,arrow_simon_punish,2021.1.2,Win32,20.02162335,,,,,,,,,,,,,,,,,,,,,,,,,,,,,,,,,,,,,,
,,,p,1,1.5923,7,0,28,0,1,right.png,,p,left,60e4c09a4b30f16f5a1053e7,2021-10-27_11h09.29.555,arrow_simon_punish,2021.1.2,Win32,20.02162335,,,,,,,,,,,,,,,,,,,,,,,,,,,,,,,,,,,,,,
,,,w,1,1.6388,7,1,29,2,1,left.png,,w,left,60e4c09a4b30f16f5a1053e7,2021-10-27_11h09.29.555,arrow_simon_punish,2021.1.2,Win32,20.02162335,,,,,,,,,,,,,,,,,,,,,,,,,,,,,,,,,,,,,,
,,,w,1,1.5895,7,2,30,3,1,left.png,,w,right,60e4c09a4b30f16f5a1053e7,2021-10-27_11h09.29.555,arrow_simon_punish,2021.1.2,Win32,20.02162335,,,,,,,,,,,,,,,,,,,,,,,,,,,,,,,,,,,,,,
,,,p,1,1.0159,7,3,31,1,1,right.png,,p,right,60e4c09a4b30f16f5a1053e7,2021-10-27_11h09.29.555,arrow_simon_punish,2021.1.2,Win32,20.02162335,,,,,,,,,,,,,,,,,,,,,,,,,,,,,,,,,,,,,,
,,,p,1,1.6314,8,0,32,1,1,right.png,,p,right,60e4c09a4b30f16f5a1053e7,2021-10-27_11h09.29.555,arrow_simon_punish,2021.1.2,Win32,20.02162335,,,,,,,,,,,,,,,,,,,,,,,,,,,,,,,,,,,,,,
,,,p,1,0.9551,8,1,33,0,1,right.png,,p,left,60e4c09a4b30f16f5a1053e7,2021-10-27_11h09.29.555,arrow_simon_punish,2021.1.2,Win32,20.02162335,,,,,,,,,,,,,,,,,,,,,,,,,,,,,,,,,,,,,,
,,,w,1,1.7208,8,2,34,3,1,left.png,,w,right,60e4c09a4b30f16f5a1053e7,2021-10-27_11h09.29.555,arrow_simon_punish,2021.1.2,Win32,20.02162335,,,,,,,,,,,,,,,,,,,,,,,,,,,,,,,,,,,,,,
,,,w,1,0.9746,8,3,35,2,1,left.png,,w,left,60e4c09a4b30f16f5a1053e7,2021-10-27_11h09.29.555,arrow_simon_punish,2021.1.2,Win32,20.02162335,,,,,,,,,,,,,,,,,,,,,,,,,,,,,,,,,,,,,,
,,,w,1,1.6285,9,0,36,3,1,left.png,,w,right,60e4c09a4b30f16f5a1053e7,2021-10-27_11h09.29.555,arrow_simon_punish,2021.1.2,Win32,20.02162335,,,,,,,,,,,,,,,,,,,,,,,,,,,,,,,,,,,,,,
,,,w,1,1.9091,9,1,37,2,1,left.png,,w,left,60e4c09a4b30f16f5a1053e7,2021-10-27_11h09.29.555,arrow_simon_punish,2021.1.2,Win32,20.02162335,,,,,,,,,,,,,,,,,,,,,,,,,,,,,,,,,,,,,,
,,,p,1,1.3914,9,2,38,0,1,right.png,,p,left,60e4c09a4b30f16f5a1053e7,2021-10-27_11h09.29.555,arrow_simon_punish,2021.1.2,Win32,20.02162335,,,,,,,,,,,,,,,,,,,,,,,,,,,,,,,,,,,,,,
,,,p,1,0.9229,9,3,39,1,1,right.png,,p,right,60e4c09a4b30f16f5a1053e7,2021-10-27_11h09.29.555,arrow_simon_punish,2021.1.2,Win32,20.02162335,,,,,,,,,,,,,,,,,,,,,,,,,,,,,,,,,,,,,,
,,,,,,,,,,,,,,,60e4c09a4b30f16f5a1053e7,2021-10-27_11h09.29.555,arrow_simon_punish,2021.1.2,Win32,20.02162335,space,0,19.4468,p,2.8861,0,0,0,0,1,,,,,,,,,,,,,,,,,,,,,,,,,,,,
,,,,,,,,,,,,,,,60e4c09a4b30f16f5a1053e7,2021-10-27_11h09.29.555,arrow_simon_punish,2021.1.2,Win32,20.02162335,,,,p,2.8649,1,0,1,0,1,,,,,,,,,,,,,,,,,,,,,,,,,,,,
,,,,,,,,,,,,,,,60e4c09a4b30f16f5a1053e7,2021-10-27_11h09.29.555,arrow_simon_punish,2021.1.2,Win32,20.02162335,,,,p,2.6217,2,0,2,0,1,,,,,,,,,,,,,,,,,,,,,,,,,,,,
,,,,,,,,,,,,,,,60e4c09a4b30f16f5a1053e7,2021-10-27_11h09.29.555,arrow_simon_punish,2021.1.2,Win32,20.02162335,,,,p,2.3694,3,0,3,0,1,,,,,,,,,,,,,,,,,,,,,,,,,,,,
,,,,,,,,,,,,,,,60e4c09a4b30f16f5a1053e7,2021-10-27_11h09.29.555,arrow_simon_punish,2021.1.2,Win32,20.02162335,,,,p,2.4941,4,0,4,0,1,,,,,,,,,,,,,,,,,,,,,,,,,,,,
,,,,,,,,,,,,,,,60e4c09a4b30f16f5a1053e7,2021-10-27_11h09.29.555,arrow_simon_punish,2021.1.2,Win32,20.02162335,,,,p,2.6033,5,0,5,0,1,,,,,,,,,,,,,,,,,,,,,,,,,,,,
,,,,,,,,,,,,,,,60e4c09a4b30f16f5a1053e7,2021-10-27_11h09.29.555,arrow_simon_punish,2021.1.2,Win32,20.02162335,,,,p,2.5801,6,0,6,0,1,,,,,,,,,,,,,,,,,,,,,,,,,,,,
,,,,,,,,,,,,,,,60e4c09a4b30f16f5a1053e7,2021-10-27_11h09.29.555,arrow_simon_punish,2021.1.2,Win32,20.02162335,,,,p,2.5776,7,0,7,0,1,,,,,,,,,,,,,,,,,,,,,,,,,,,,
,,,,,,,,,,,,,,,60e4c09a4b30f16f5a1053e7,2021-10-27_11h09.29.555,arrow_simon_punish,2021.1.2,Win32,20.02162335,,,,p,2.5273,8,0,8,0,1,,,,,,,,,,,,,,,,,,,,,,,,,,,,
,,,,,,,,,,,,,,,60e4c09a4b30f16f5a1053e7,2021-10-27_11h09.29.555,arrow_simon_punish,2021.1.2,Win32,20.02162335,,,,p,2.6051,9,0,9,0,1,,,,,,,,,,,,,,,,,,,,,,,,,,,,
,,,,,,,,,,,,,,,60e4c09a4b30f16f5a1053e7,2021-10-27_11h09.29.555,arrow_simon_punish,2021.1.2,Win32,20.02162335,,,,p,2.528,10,0,10,0,1,,,,,,,,,,,,,,,,,,,,,,,,,,,,
,,,,,,,,,,,,,,,60e4c09a4b30f16f5a1053e7,2021-10-27_11h09.29.555,arrow_simon_punish,2021.1.2,Win32,20.02162335,,,,p,2.5996,11,0,11,0,1,,,,,,,,,,,,,,,,,,,,,,,,,,,,
,,,,,,,,,,,,,,,60e4c09a4b30f16f5a1053e7,2021-10-27_11h09.29.555,arrow_simon_punish,2021.1.2,Win32,20.02162335,,,,p,2.7203,12,0,12,0,1,,,,,,,,,,,,,,,,,,,,,,,,,,,,
,,,,,,,,,,,,,,,60e4c09a4b30f16f5a1053e7,2021-10-27_11h09.29.555,arrow_simon_punish,2021.1.2,Win32,20.02162335,,,,p,2.5818,13,0,13,0,1,,,,,,,,,,,,,,,,,,,,,,,,,,,,
,,,,,,,,,,,,,,,60e4c09a4b30f16f5a1053e7,2021-10-27_11h09.29.555,arrow_simon_punish,2021.1.2,Win32,20.02162335,,,,p,2.4933,14,0,14,0,1,,,,,,,,,,,,,,,,,,,,,,,,,,,,
,,,,,,,,,,,,,,,60e4c09a4b30f16f5a1053e7,2021-10-27_11h09.29.555,arrow_simon_punish,2021.1.2,Win32,20.02162335,,,,p,2.4344,15,0,15,0,1,,,,,,,,,,,,,,,,,,,,,,,,,,,,
,,,,,,,,,,,,,,,60e4c09a4b30f16f5a1053e7,2021-10-27_11h09.29.555,arrow_simon_punish,2021.1.2,Win32,20.02162335,,,,p,2.4773,16,0,16,0,1,,,,,,,,,,,,,,,,,,,,,,,,,,,,
,,,,,,,,,,,,,,,60e4c09a4b30f16f5a1053e7,2021-10-27_11h09.29.555,arrow_simon_punish,2021.1.2,Win32,20.02162335,,,,p,2.6079,17,0,17,0,1,,,,,,,,,,,,,,,,,,,,,,,,,,,,
,,,,,,,,,,,,,,,60e4c09a4b30f16f5a1053e7,2021-10-27_11h09.29.555,arrow_simon_punish,2021.1.2,Win32,20.02162335,,,,p,2.4808,18,0,18,0,1,,,,,,,,,,,,,,,,,,,,,,,,,,,,
,,,,,,,,,,,,,,,60e4c09a4b30f16f5a1053e7,2021-10-27_11h09.29.555,arrow_simon_punish,2021.1.2,Win32,20.02162335,,,,p,2.4509,19,0,19,0,1,,,,,,,,,,,,,,,,,,,,,,,,,,,,
,,,,,,,,,,,,,,,60e4c09a4b30f16f5a1053e7,2021-10-27_11h09.29.555,arrow_simon_punish,2021.1.2,Win32,20.02162335,,,,p,2.4725,20,0,20,0,1,,,,,,,,,,,,,,,,,,,,,,,,,,,,
,,,,,,,,,,,,,,,60e4c09a4b30f16f5a1053e7,2021-10-27_11h09.29.555,arrow_simon_punish,2021.1.2,Win32,20.02162335,,,,p,2.4847,21,0,21,0,1,,,,,,,,,,,,,,,,,,,,,,,,,,,,
,,,,,,,,,,,,,,,60e4c09a4b30f16f5a1053e7,2021-10-27_11h09.29.555,arrow_simon_punish,2021.1.2,Win32,20.02162335,,,,p,2.5432,22,0,22,0,1,,,,,,,,,,,,,,,,,,,,,,,,,,,,
,,,,,,,,,,,,,,,60e4c09a4b30f16f5a1053e7,2021-10-27_11h09.29.555,arrow_simon_punish,2021.1.2,Win32,20.02162335,,,,p,2.5118,23,0,23,0,1,,,,,,,,,,,,,,,,,,,,,,,,,,,,
,,,,,,,,,,,,,,,60e4c09a4b30f16f5a1053e7,2021-10-27_11h09.29.555,arrow_simon_punish,2021.1.2,Win32,20.02162335,,,,p,2.5004,24,0,24,0,1,,,,,,,,,,,,,,,,,,,,,,,,,,,,
,,,,,,,,,,,,,,,60e4c09a4b30f16f5a1053e7,2021-10-27_11h09.29.555,arrow_simon_punish,2021.1.2,Win32,20.02162335,,,,p,2.5636,25,0,25,0,1,,,,,,,,,,,,,,,,,,,,,,,,,,,,
,,,,,,,,,,,,,,,60e4c09a4b30f16f5a1053e7,2021-10-27_11h09.29.555,arrow_simon_punish,2021.1.2,Win32,20.02162335,,,,p,2.5244,26,0,26,0,1,,,,,,,,,,,,,,,,,,,,,,,,,,,,
,,,,,,,,,,,,,,,60e4c09a4b30f16f5a1053e7,2021-10-27_11h09.29.555,arrow_simon_punish,2021.1.2,Win32,20.02162335,,,,p,2.5143,27,0,27,0,1,,,,,,,,,,,,,,,,,,,,,,,,,,,,
,,,,,,,,,,,,,,,60e4c09a4b30f16f5a1053e7,2021-10-27_11h09.29.555,arrow_simon_punish,2021.1.2,Win32,20.02162335,,,,p,2.5605,28,0,28,0,1,,,,,,,,,,,,,,,,,,,,,,,,,,,,
,,,,,,,,,,,,,,,60e4c09a4b30f16f5a1053e7,2021-10-27_11h09.29.555,arrow_simon_punish,2021.1.2,Win32,20.02162335,,,,p,2.4994,29,0,29,0,1,,,,,,,,,,,,,,,,,,,,,,,,,,,,
,,,,,,,,,,,,,,,60e4c09a4b30f16f5a1053e7,2021-10-27_11h09.29.555,arrow_simon_punish,2021.1.2,Win32,20.02162335,,,,p,2.4878,30,0,30,0,1,,,,,,,,,,,,,,,,,,,,,,,,,,,,
,,,,,,,,,,,,,,,60e4c09a4b30f16f5a1053e7,2021-10-27_11h09.29.555,arrow_simon_punish,2021.1.2,Win32,20.02162335,,,,p,2.5011,31,0,31,0,1,,,,,,,,,,,,,,,,,,,,,,,,,,,,
,,,,,,,,,,,,,,,60e4c09a4b30f16f5a1053e7,2021-10-27_11h09.29.555,arrow_simon_punish,2021.1.2,Win32,20.02162335,,,,p,2.5342,32,0,32,0,1,,,,,,,,,,,,,,,,,,,,,,,,,,,,
,,,,,,,,,,,,,,,60e4c09a4b30f16f5a1053e7,2021-10-27_11h09.29.555,arrow_simon_punish,2021.1.2,Win32,20.02162335,,,,p,2.4277,33,0,33,0,1,,,,,,,,,,,,,,,,,,,,,,,,,,,,
,,,,,,,,,,,,,,,60e4c09a4b30f16f5a1053e7,2021-10-27_11h09.29.555,arrow_simon_punish,2021.1.2,Win32,20.02162335,,,,p,2.5596,34,0,34,0,1,,,,,,,,,,,,,,,,,,,,,,,,,,,,
,,,,,,,,,,,,,,,60e4c09a4b30f16f5a1053e7,2021-10-27_11h09.29.555,arrow_simon_punish,2021.1.2,Win32,20.02162335,,,,p,2.7588,35,0,35,0,1,,,,,,,,,,,,,,,,,,,,,,,,,,,,
,,,,,,,,,,,,,,,60e4c09a4b30f16f5a1053e7,2021-10-27_11h09.29.555,arrow_simon_punish,2021.1.2,Win32,20.02162335,,,,p,2.5484,36,0,36,0,1,,,,,,,,,,,,,,,,,,,,,,,,,,,,
,,,,,,,,,,,,,,,60e4c09a4b30f16f5a1053e7,2021-10-27_11h09.29.555,arrow_simon_punish,2021.1.2,Win32,20.02162335,,,,p,2.5019,37,0,37,0,1,,,,,,,,,,,,,,,,,,,,,,,,,,,,
,,,,,,,,,,,,,,,60e4c09a4b30f16f5a1053e7,2021-10-27_11h09.29.555,arrow_simon_punish,2021.1.2,Win32,20.02162335,,,,p,3.1939,38,0,38,0,1,,,,,,,,,,,,,,,,,,,,,,,,,,,,
,,,,,,,,,,,,,,,60e4c09a4b30f16f5a1053e7,2021-10-27_11h09.29.555,arrow_simon_punish,2021.1.2,Win32,20.02162335,,,,p,2.4972,39,0,39,0,1,,,,,,,,,,,,,,,,,,,,,,,,,,,,
,,,,,,,,,,,,,,,60e4c09a4b30f16f5a1053e7,2021-10-27_11h09.29.555,arrow_simon_punish,2021.1.2,Win32,20.02162335,,,,p,2.479,40,0,40,0,1,,,,,,,,,,,,,,,,,,,,,,,,,,,,
,,,,,,,,,,,,,,,60e4c09a4b30f16f5a1053e7,2021-10-27_11h09.29.555,arrow_simon_punish,2021.1.2,Win32,20.02162335,,,,p,2.5006,41,0,41,0,1,,,,,,,,,,,,,,,,,,,,,,,,,,,,
,,,,,,,,,,,,,,,60e4c09a4b30f16f5a1053e7,2021-10-27_11h09.29.555,arrow_simon_punish,2021.1.2,Win32,20.02162335,,,,p,2.3918,42,0,42,0,1,,,,,,,,,,,,,,,,,,,,,,,,,,,,
,,,,,,,,,,,,,,,60e4c09a4b30f16f5a1053e7,2021-10-27_11h09.29.555,arrow_simon_punish,2021.1.2,Win32,20.02162335,,,,p,2.4699,43,0,43,0,1,,,,,,,,,,,,,,,,,,,,,,,,,,,,
,,,,,,,,,,,,,,,60e4c09a4b30f16f5a1053e7,2021-10-27_11h09.29.555,arrow_simon_punish,2021.1.2,Win32,20.02162335,,,,p,2.4858,44,0,44,0,1,,,,,,,,,,,,,,,,,,,,,,,,,,,,
,,,,,,,,,,,,,,,60e4c09a4b30f16f5a1053e7,2021-10-27_11h09.29.555,arrow_simon_punish,2021.1.2,Win32,20.02162335,,,,p,2.4395,45,0,45,0,1,,,,,,,,,,,,,,,,,,,,,,,,,,,,
,,,,,,,,,,,,,,,60e4c09a4b30f16f5a1053e7,2021-10-27_11h09.29.555,arrow_simon_punish,2021.1.2,Win32,20.02162335,,,,p,2.4658,46,0,46,0,1,,,,,,,,,,,,,,,,,,,,,,,,,,,,
,,,,,,,,,,,,,,,60e4c09a4b30f16f5a1053e7,2021-10-27_11h09.29.555,arrow_simon_punish,2021.1.2,Win32,20.02162335,,,,p,3.1146,47,0,47,0,1,,,,,,,,,,,,,,,,,,,,,,,,,,,,
,,,,,,,,,,,,,,,60e4c09a4b30f16f5a1053e7,2021-10-27_11h09.29.555,arrow_simon_punish,2021.1.2,Win32,20.02162335,,,,p,2.3217,48,0,48,0,1,,,,,,,,,,,,,,,,,,,,,,,,,,,,
,,,,,,,,,,,,,,,60e4c09a4b30f16f5a1053e7,2021-10-27_11h09.29.555,arrow_simon_punish,2021.1.2,Win32,20.02162335,,,,p,2.4497,49,0,49,0,1,,,,,,,,,,,,,,,,,,,,,,,,,,,,
,,,,,,,,,,,,,,,60e4c09a4b30f16f5a1053e7,2021-10-27_11h09.29.555,arrow_simon_punish,2021.1.2,Win32,20.02162335,,,,p,2.0544,50,0,50,0,1,,,,,,,,,,,,,,,,,,,,,,,,,,,,
,,,,,,,,,,,,,,,60e4c09a4b30f16f5a1053e7,2021-10-27_11h09.29.555,arrow_simon_punish,2021.1.2,Win32,20.02162335,,,,p,2.0717,51,0,51,0,1,,,,,,,,,,,,,,,,,,,,,,,,,,,,
,,,,,,,,,,,,,,,60e4c09a4b30f16f5a1053e7,2021-10-27_11h09.29.555,arrow_simon_punish,2021.1.2,Win32,20.02162335,,,,p,2.5007,52,0,52,0,1,,,,,,,,,,,,,,,,,,,,,,,,,,,,
,,,,,,,,,,,,,,,60e4c09a4b30f16f5a1053e7,2021-10-27_11h09.29.555,arrow_simon_punish,2021.1.2,Win32,20.02162335,,,,p,2.4353,53,0,53,0,1,,,,,,,,,,,,,,,,,,,,,,,,,,,,
,,,,,,,,,,,,,,,60e4c09a4b30f16f5a1053e7,2021-10-27_11h09.29.555,arrow_simon_punish,2021.1.2,Win32,20.02162335,,,,p,2.3903,54,0,54,0,1,,,,,,,,,,,,,,,,,,,,,,,,,,,,
,,,,,,,,,,,,,,,60e4c09a4b30f16f5a1053e7,2021-10-27_11h09.29.555,arrow_simon_punish,2021.1.2,Win32,20.02162335,,,,p,2.4431,55,0,55,0,1,,,,,,,,,,,,,,,,,,,,,,,,,,,,
,,,,,,,,,,,,,,,60e4c09a4b30f16f5a1053e7,2021-10-27_11h09.29.555,arrow_simon_punish,2021.1.2,Win32,20.02162335,,,,p,2.3228,56,0,56,0,1,,,,,,,,,,,,,,,,,,,,,,,,,,,,
,,,,,,,,,,,,,,,60e4c09a4b30f16f5a1053e7,2021-10-27_11h09.29.555,arrow_simon_punish,2021.1.2,Win32,20.02162335,,,,p,2.3883,57,0,57,0,1,,,,,,,,,,,,,,,,,,,,,,,,,,,,
,,,,,,,,,,,,,,,60e4c09a4b30f16f5a1053e7,2021-10-27_11h09.29.555,arrow_simon_punish,2021.1.2,Win32,20.02162335,,,,p,2.5459,58,0,58,0,1,,,,,,,,,,,,,,,,,,,,,,,,,,,,
,,,,,,,,,,,,,,,60e4c09a4b30f16f5a1053e7,2021-10-27_11h09.29.555,arrow_simon_punish,2021.1.2,Win32,20.02162335,,,,p,2.5473,59,0,59,0,1,,,,,,,,,,,,,,,,,,,,,,,,,,,,
,,,,,,,,,,,left.png,,w,right,60e4c09a4b30f16f5a1053e7,2021-10-27_11h09.29.555,arrow_simon_punish,2021.1.2,Win32,20.02162335,,,,,,,,,,,space,0,28.0144,w,1,1.6033,1.59031075,1,1,0,0,0,3,1,,,,,,,,,,,,,,
,,,,,,,,,,,left.png,,w,right,60e4c09a4b30f16f5a1053e7,2021-10-27_11h09.29.555,arrow_simon_punish,2021.1.2,Win32,20.02162335,,,,,,,,,,,,,,w,1,1.4515,1.880543822,0,1,0,1,1,3,1,,,,,,,,,,,,,,
,,,,,,,,,,,right.png,,p,right,60e4c09a4b30f16f5a1053e7,2021-10-27_11h09.29.555,arrow_simon_punish,2021.1.2,Win32,20.02162335,,,,,,,,,,,,,,p,1,1.4111,1.957459909,0,1,0,2,2,1,1,,,,,,,,,,,,,,
,,,,,,,,,,,left.png,,w,left,60e4c09a4b30f16f5a1053e7,2021-10-27_11h09.29.555,arrow_simon_punish,2021.1.2,Win32,20.02162335,,,,,,,,,,,,,,w,1,1.3131,1.724356317,1,1,0,3,3,2,1,,,,,,,,,,,,,,
,,,,,,,,,,,right.png,,p,left,60e4c09a4b30f16f5a1053e7,2021-10-27_11h09.29.555,arrow_simon_punish,2021.1.2,Win32,20.02162335,,,,,,,,,,,,,,p,1,1.5049,1.595930773,0,1,1,0,4,0,1,,,,,,,,,,,,,,
,,,,,,,,,,,right.png,,p,left,60e4c09a4b30f16f5a1053e7,2021-10-27_11h09.29.555,arrow_simon_punish,2021.1.2,Win32,20.02162335,,,,,,,,,,,,,,p,1,2.0871,2.406905613,1,1,1,1,5,0,1,,,,,,,,,,,,,,
,,,,,,,,,,,right.png,,p,left,60e4c09a4b30f16f5a1053e7,2021-10-27_11h09.29.555,arrow_simon_punish,2021.1.2,Win32,20.02162335,,,,,,,,,,,,,,w,0,1.9112,2.465481254,1,1,1,2,6,0,1,,,,,,,,,,,,,,
,,,,,,,,,,,right.png,,p,right,60e4c09a4b30f16f5a1053e7,2021-10-27_11h09.29.555,arrow_simon_punish,2021.1.2,Win32,20.02162335,,,,,,,,,,,,,,p,1,1.8072,1.926401074,1,1,1,3,7,1,1,,,,,,,,,,,,,,
,,,,,,,,,,,left.png,,w,right,60e4c09a4b30f16f5a1053e7,2021-10-27_11h09.29.555,arrow_simon_punish,2021.1.2,Win32,20.02162335,,,,,,,,,,,,,,p,0,1.3014,1.8976509,1,1,2,0,8,3,1,,,,,,,,,,,,,,
,,,,,,,,,,,left.png,,w,right,60e4c09a4b30f16f5a1053e7,2021-10-27_11h09.29.555,arrow_simon_punish,2021.1.2,Win32,20.02162335,,,,,,,,,,,,,,p,0,1.608,2.08255148,1,1,2,1,9,3,1,,,,,,,,,,,,,,
,,,,,,,,,,,left.png,,w,left,60e4c09a4b30f16f5a1053e7,2021-10-27_11h09.29.555,arrow_simon_punish,2021.1.2,Win32,20.02162335,,,,,,,,,,,,,,p,0,1.8223,2.066974922,1,1,2,2,10,2,1,,,,,,,,,,,,,,
,,,,,,,,,,,right.png,,p,right,60e4c09a4b30f16f5a1053e7,2021-10-27_11h09.29.555,arrow_simon_punish,2021.1.2,Win32,20.02162335,,,,,,,,,,,,,,p,1,1.797,2.234345197,1,1,2,3,11,1,1,,,,,,,,,,,,,,
,,,,,,,,,,,right.png,,p,left,60e4c09a4b30f16f5a1053e7,2021-10-27_11h09.29.555,arrow_simon_punish,2021.1.2,Win32,20.02162335,,,,,,,,,,,,,,p,1,1.2561,1.58977614,1,1,3,0,12,0,1,,,,,,,,,,,,,,
,,,,,,,,,,,right.png,,p,right,60e4c09a4b30f16f5a1053e7,2021-10-27_11h09.29.555,arrow_simon_punish,2021.1.2,Win32,20.02162335,,,,,,,,,,,,,,p,1,1.7816,2.201094622,1,1,3,1,13,1,1,,,,,,,,,,,,,,
,,,,,,,,,,,right.png,,p,left,60e4c09a4b30f16f5a1053e7,2021-10-27_11h09.29.555,arrow_simon_punish,2021.1.2,Win32,20.02162335,,,,,,,,,,,,,,p,1,1.511,1.877573064,0,1,3,2,14,0,1,,,,,,,,,,,,,,
,,,,,,,,,,,left.png,,w,right,60e4c09a4b30f16f5a1053e7,2021-10-27_11h09.29.555,arrow_simon_punish,2021.1.2,Win32,20.02162335,,,,,,,,,,,,,,w,1,2.2181,2.254070624,1,1,3,3,15,3,1,,,,,,,,,,,,,,
,,,,,,,,,,,left.png,,w,right,60e4c09a4b30f16f5a1053e7,2021-10-27_11h09.29.555,arrow_simon_punish,2021.1.2,Win32,20.02162335,,,,,,,,,,,,,,p,0,1.2282,1.810165571,1,1,4,0,16,3,1,,,,,,,,,,,,,,
,,,,,,,,,,,left.png,,w,right,60e4c09a4b30f16f5a1053e7,2021-10-27_11h09.29.555,arrow_simon_punish,2021.1.2,Win32,20.02162335,,,,,,,,,,,,,,w,1,1.5887,2.003501383,0,1,4,1,17,3,1,,,,,,,,,,,,,,
,,,,,,,,,,,left.png,,w,right,60e4c09a4b30f16f5a1053e7,2021-10-27_11h09.29.555,arrow_simon_punish,2021.1.2,Win32,20.02162335,,,,,,,,,,,,,,w,1,1.3824,1.787347447,1,1,4,2,18,3,1,,,,,,,,,,,,,,
,,,,,,,,,,,right.png,,p,right,60e4c09a4b30f16f5a1053e7,2021-10-27_11h09.29.555,arrow_simon_punish,2021.1.2,Win32,20.02162335,,,,,,,,,,,,,,p,1,1.6886,2.016181398,1,1,4,3,19,1,1,,,,,,,,,,,,,,
,,,,,,,,,,,left.png,,w,right,60e4c09a4b30f16f5a1053e7,2021-10-27_11h09.29.555,arrow_simon_punish,2021.1.2,Win32,20.02162335,,,,,,,,,,,,,,w,1,1.5651,1.977117707,0,1,5,0,20,3,1,,,,,,,,,,,,,,
,,,,,,,,,,,right.png,,p,right,60e4c09a4b30f16f5a1053e7,2021-10-27_11h09.29.555,arrow_simon_punish,2021.1.2,Win32,20.02162335,,,,,,,,,,,,,,p,1,1.2724,1.776565565,1,1,5,1,21,1,1,,,,,,,,,,,,,,
,,,,,,,,,,,right.png,,p,left,60e4c09a4b30f16f5a1053e7,2021-10-27_11h09.29.555,arrow_simon_punish,2021.1.2,Win32,20.02162335,,,,,,,,,,,,,,p,1,1.8067,2.150596348,1,1,5,2,22,0,1,,,,,,,,,,,,,,
,,,,,,,,,,,right.png,,p,left,60e4c09a4b30f16f5a1053e7,2021-10-27_11h09.29.555,arrow_simon_punish,2021.1.2,Win32,20.02162335,,,,,,,,,,,,,,w,0,1.2292,1.639713162,1,1,5,3,23,0,1,,,,,,,,,,,,,,
,,,,,,,,,,,right.png,,p,right,60e4c09a4b30f16f5a1053e7,2021-10-27_11h09.29.555,arrow_simon_punish,2021.1.2,Win32,20.02162335,,,,,,,,,,,,,,p,1,1.3654,1.85951674,1,1,6,0,24,1,1,,,,,,,,,,,,,,
,,,,,,,,,,,right.png,,p,left,60e4c09a4b30f16f5a1053e7,2021-10-27_11h09.29.555,arrow_simon_punish,2021.1.2,Win32,20.02162335,,,,,,,,,,,,,,w,0,1.6858,2.060722382,1,1,6,1,25,0,1,,,,,,,,,,,,,,
,,,,,,,,,,,right.png,,p,left,60e4c09a4b30f16f5a1053e7,2021-10-27_11h09.29.555,arrow_simon_punish,2021.1.2,Win32,20.02162335,,,,,,,,,,,,,,p,1,2.0848,2.358910423,1,1,6,2,26,0,1,,,,,,,,,,,,,,
,,,,,,,,,,,left.png,,w,left,60e4c09a4b30f16f5a1053e7,2021-10-27_11h09.29.555,arrow_simon_punish,2021.1.2,Win32,20.02162335,,,,,,,,,,,,,,w,1,2.4065,2.332358516,1,1,6,3,27,2,1,,,,,,,,,,,,,,
,,,,,,,,,,,left.png,,w,right,60e4c09a4b30f16f5a1053e7,2021-10-27_11h09.29.555,arrow_simon_punish,2021.1.2,Win32,20.02162335,,,,,,,,,,,,,,w,1,1.552,1.695674701,0,1,7,0,28,3,1,,,,,,,,,,,,,,
,,,,,,,,,,,right.png,,p,right,60e4c09a4b30f16f5a1053e7,2021-10-27_11h09.29.555,arrow_simon_punish,2021.1.2,Win32,20.02162335,,,,,,,,,,,,,,p,1,2.1483,2.447235892,1,1,7,1,29,1,1,,,,,,,,,,,,,,
,,,,,,,,,,,left.png,,w,left,60e4c09a4b30f16f5a1053e7,2021-10-27_11h09.29.555,arrow_simon_punish,2021.1.2,Win32,20.02162335,,,,,,,,,,,,,,p,0,2.183,2.449040116,1,1,7,2,30,2,1,,,,,,,,,,,,,,
,,,,,,,,,,,left.png,,w,right,60e4c09a4b30f16f5a1053e7,2021-10-27_11h09.29.555,arrow_simon_punish,2021.1.2,Win32,20.02162335,,,,,,,,,,,,,,w,1,1.3074,1.522470697,1,1,7,3,31,3,1,,,,,,,,,,,,,,
,,,,,,,,,,,right.png,,p,right,60e4c09a4b30f16f5a1053e7,2021-10-27_11h09.29.555,arrow_simon_punish,2021.1.2,Win32,20.02162335,,,,,,,,,,,,,,p,1,1.6593,2.073782305,1,1,8,0,32,1,1,,,,,,,,,,,,,,
,,,,,,,,,,,left.png,,w,left,60e4c09a4b30f16f5a1053e7,2021-10-27_11h09.29.555,arrow_simon_punish,2021.1.2,Win32,20.02162335,,,,,,,,,,,,,,w,1,1.5046,1.624632165,0,1,8,1,33,2,1,,,,,,,,,,,,,,
,,,,,,,,,,,left.png,,w,right,60e4c09a4b30f16f5a1053e7,2021-10-27_11h09.29.555,arrow_simon_punish,2021.1.2,Win32,20.02162335,,,,,,,,,,,,,,w,1,1.2489,1.565366183,1,1,8,2,34,3,1,,,,,,,,,,,,,,
,,,,,,,,,,,right.png,,p,left,60e4c09a4b30f16f5a1053e7,2021-10-27_11h09.29.555,arrow_simon_punish,2021.1.2,Win32,20.02162335,,,,,,,,,,,,,,p,1,1.745,2.098801151,1,1,8,3,35,0,1,,,,,,,,,,,,,,
,,,,,,,,,,,left.png,,w,right,60e4c09a4b30f16f5a1053e7,2021-10-27_11h09.29.555,arrow_simon_punish,2021.1.2,Win32,20.02162335,,,,,,,,,,,,,,p,0,1.8532,2.252613847,1,1,9,0,36,3,1,,,,,,,,,,,,,,
,,,,,,,,,,,left.png,,w,left,60e4c09a4b30f16f5a1053e7,2021-10-27_11h09.29.555,arrow_simon_punish,2021.1.2,Win32,20.02162335,,,,,,,,,,,,,,p,0,1.2212,2.317068694,1,1,9,1,37,2,1,,,,,,,,,,,,,,
,,,,,,,,,,,left.png,,w,right,60e4c09a4b30f16f5a1053e7,2021-10-27_11h09.29.555,arrow_simon_punish,2021.1.2,Win32,20.02162335,,,,,,,,,,,,,,p,0,1.8938,2.43305283,1,1,9,2,38,3,1,,,,,,,,,,,,,,
,,,,,,,,,,,right.png,,p,right,60e4c09a4b30f16f5a1053e7,2021-10-27_11h09.29.555,arrow_simon_punish,2021.1.2,Win32,20.02162335,,,,,,,,,,,,,,p,1,1.7747,2.099915424,1,1,9,3,39,1,1,,,,,,,,,,,,,,
,,,,,,,,,,,left.png,,w,left,60e4c09a4b30f16f5a1053e7,2021-10-27_11h09.29.555,arrow_simon_punish,2021.1.2,Win32,20.02162335,,,,,,,,,,,,,,w,1,1.6218,2.083236128,1,1,10,0,40,2,1,,,,,,,,,,,,,,
,,,,,,,,,,,right.png,,p,right,60e4c09a4b30f16f5a1053e7,2021-10-27_11h09.29.555,arrow_simon_punish,2021.1.2,Win32,20.02162335,,,,,,,,,,,,,,p,1,1.1285,1.583912014,1,1,10,1,41,1,1,,,,,,,,,,,,,,
,,,,,,,,,,,right.png,,p,left,60e4c09a4b30f16f5a1053e7,2021-10-27_11h09.29.555,arrow_simon_punish,2021.1.2,Win32,20.02162335,,,,,,,,,,,,,,p,1,1.7293,1.977713692,1,1,10,2,42,0,1,,,,,,,,,,,,,,
,,,,,,,,,,,right.png,,p,left,60e4c09a4b30f16f5a1053e7,2021-10-27_11h09.29.555,arrow_simon_punish,2021.1.2,Win32,20.02162335,,,,,,,,,,,,,,p,1,2.0395,2.345748046,1,1,10,3,43,0,1,,,,,,,,,,,,,,
,,,,,,,,,,,left.png,,w,left,60e4c09a4b30f16f5a1053e7,2021-10-27_11h09.29.555,arrow_simon_punish,2021.1.2,Win32,20.02162335,,,,,,,,,,,,,,w,1,1.9303,2.010872345,1,1,11,0,44,2,1,,,,,,,,,,,,,,
,,,,,,,,,,,left.png,,w,left,60e4c09a4b30f16f5a1053e7,2021-10-27_11h09.29.555,arrow_simon_punish,2021.1.2,Win32,20.02162335,,,,,,,,,,,,,,w,1,1.9146,2.252991447,1,1,11,1,45,2,1,,,,,,,,,,,,,,
,,,,,,,,,,,left.png,,w,right,60e4c09a4b30f16f5a1053e7,2021-10-27_11h09.29.555,arrow_simon_punish,2021.1.2,Win32,20.02162335,,,,,,,,,,,,,,w,1,1.601,1.991523519,1,1,11,2,46,3,1,,,,,,,,,,,,,,
,,,,,,,,,,,right.png,,p,right,60e4c09a4b30f16f5a1053e7,2021-10-27_11h09.29.555,arrow_simon_punish,2021.1.2,Win32,20.02162335,,,,,,,,,,,,,,p,1,2.0487,2.426738842,1,1,11,3,47,1,1,,,,,,,,,,,,,,
,,,,,,,,,,,left.png,,w,left,60e4c09a4b30f16f5a1053e7,2021-10-27_11h09.29.555,arrow_simon_punish,2021.1.2,Win32,20.02162335,,,,,,,,,,,,,,w,1,1.4948,1.742631048,0,1,12,0,48,2,1,,,,,,,,,,,,,,
,,,,,,,,,,,left.png,,w,left,60e4c09a4b30f16f5a1053e7,2021-10-27_11h09.29.555,arrow_simon_punish,2021.1.2,Win32,20.02162335,,,,,,,,,,,,,,w,1,1.7042,2.116248631,1,1,12,1,49,2,1,,,,,,,,,,,,,,
,,,,,,,,,,,left.png,,w,left,60e4c09a4b30f16f5a1053e7,2021-10-27_11h09.29.555,arrow_simon_punish,2021.1.2,Win32,20.02162335,,,,,,,,,,,,,,w,1,1.6736,2.07178902,1,1,12,2,50,2,1,,,,,,,,,,,,,,
,,,,,,,,,,,right.png,,p,left,60e4c09a4b30f16f5a1053e7,2021-10-27_11h09.29.555,arrow_simon_punish,2021.1.2,Win32,20.02162335,,,,,,,,,,,,,,w,0,1.7842,2.117172551,1,1,12,3,51,0,1,,,,,,,,,,,,,,
,,,,,,,,,,,right.png,,p,right,60e4c09a4b30f16f5a1053e7,2021-10-27_11h09.29.555,arrow_simon_punish,2021.1.2,Win32,20.02162335,,,,,,,,,,,,,,p,1,1.677,2.039265158,1,1,13,0,52,1,1,,,,,,,,,,,,,,
,,,,,,,,,,,right.png,,p,left,60e4c09a4b30f16f5a1053e7,2021-10-27_11h09.29.555,arrow_simon_punish,2021.1.2,Win32,20.02162335,,,,,,,,,,,,,,p,1,1.527,1.743936023,0,1,13,1,53,0,1,,,,,,,,,,,,,,
,,,,,,,,,,,left.png,,w,left,60e4c09a4b30f16f5a1053e7,2021-10-27_11h09.29.555,arrow_simon_punish,2021.1.2,Win32,20.02162335,,,,,,,,,,,,,,w,1,1.392,1.661630398,1,1,13,2,54,2,1,,,,,,,,,,,,,,
,,,,,,,,,,,right.png,,p,left,60e4c09a4b30f16f5a1053e7,2021-10-27_11h09.29.555,arrow_simon_punish,2021.1.2,Win32,20.02162335,,,,,,,,,,,,,,p,1,1.6238,1.902053289,1,1,13,3,55,0,1,,,,,,,,,,,,,,
,,,,,,,,,,,left.png,,w,left,60e4c09a4b30f16f5a1053e7,2021-10-27_11h09.29.555,arrow_simon_punish,2021.1.2,Win32,20.02162335,,,,,,,,,,,,,,w,1,1.8183,2.211522165,1,1,14,0,56,2,1,,,,,,,,,,,,,,
,,,,,,,,,,,right.png,,p,right,60e4c09a4b30f16f5a1053e7,2021-10-27_11h09.29.555,arrow_simon_punish,2021.1.2,Win32,20.02162335,,,,,,,,,,,,,,p,1,1.8567,2.255002596,1,1,14,1,57,1,1,,,,,,,,,,,,,,
,,,,,,,,,,,left.png,,w,left,60e4c09a4b30f16f5a1053e7,2021-10-27_11h09.29.555,arrow_simon_punish,2021.1.2,Win32,20.02162335,,,,,,,,,,,,,,w,1,2.151,2.473028598,1,1,14,2,58,2,1,,,,,,,,,,,,,,
,,,,,,,,,,,right.png,,p,right,60e4c09a4b30f16f5a1053e7,2021-10-27_11h09.29.555,arrow_simon_punish,2021.1.2,Win32,20.02162335,,,,,,,,,,,,,,p,1,1.7656,2.234187107,1,1,14,3,59,1,1,,,,,,,,,,,,,,
,,,,,,,,,,,,,,,60e4c09a4b30f16f5a1053e7,2021-10-27_11h09.29.555,arrow_simon_punish,2021.1.2,Win32,20.02162335,,,,,,,,,,,,,,,,,,,,,,,,,space,14.434,2,0,0,0,0,1,1,,,,,
,,,,,,,,,,,left.png,,w,left,60e4c09a4b30f16f5a1053e7,2021-10-27_11h09.29.555,arrow_simon_punish,2021.1.2,Win32,20.02162335,,,,,,,,,,,,,,w,1,1.3638,1.697159964,1,5,0,0,0,2,1,,,,,,,,,,,,,,
,,,,,,,,,,,right.png,,p,left,60e4c09a4b30f16f5a1053e7,2021-10-27_11h09.29.555,arrow_simon_punish,2021.1.2,Win32,20.02162335,,,,,,,,,,,,,,p,1,1.7967,2.065035569,1,5,0,1,1,0,1,,,,,,,,,,,,,,
,,,,,,,,,,,right.png,,p,left,60e4c09a4b30f16f5a1053e7,2021-10-27_11h09.29.555,arrow_simon_punish,2021.1.2,Win32,20.02162335,,,,,,,,,,,,,,p,1,1.7974,2.025831533,1,5,0,2,2,0,1,,,,,,,,,,,,,,
,,,,,,,,,,,right.png,,p,right,60e4c09a4b30f16f5a1053e7,2021-10-27_11h09.29.555,arrow_simon_punish,2021.1.2,Win32,20.02162335,,,,,,,,,,,,,,p,1,1.9921,2.362056383,1,5,0,3,3,1,1,,,,,,,,,,,,,,
,,,,,,,,,,,left.png,,w,right,60e4c09a4b30f16f5a1053e7,2021-10-27_11h09.29.555,arrow_simon_punish,2021.1.2,Win32,20.02162335,,,,,,,,,,,,,,w,1,1.4643,1.76000342,0,5,1,0,4,3,1,,,,,,,,,,,,,,
,,,,,,,,,,,left.png,,w,left,60e4c09a4b30f16f5a1053e7,2021-10-27_11h09.29.555,arrow_simon_punish,2021.1.2,Win32,20.02162335,,,,,,,,,,,,,,w,1,1.3901,1.79259498,1,5,1,1,5,2,1,,,,,,,,,,,,,,
,,,,,,,,,,,left.png,,w,left,60e4c09a4b30f16f5a1053e7,2021-10-27_11h09.29.555,arrow_simon_punish,2021.1.2,Win32,20.02162335,,,,,,,,,,,,,,w,1,2.0327,2.456102768,1,5,1,2,6,2,1,,,,,,,,,,,,,,
,,,,,,,,,,,right.png,,p,right,60e4c09a4b30f16f5a1053e7,2021-10-27_11h09.29.555,arrow_simon_punish,2021.1.2,Win32,20.02162335,,,,,,,,,,,,,,p,1,1.2075,1.581830115,1,5,1,3,7,1,1,,,,,,,,,,,,,,
,,,,,,,,,,,left.png,,w,right,60e4c09a4b30f16f5a1053e7,2021-10-27_11h09.29.555,arrow_simon_punish,2021.1.2,Win32,20.02162335,,,,,,,,,,,,,,p,0,1.4356,1.55993741,1,5,2,0,8,3,1,,,,,,,,,,,,,,
,,,,,,,,,,,left.png,,w,left,60e4c09a4b30f16f5a1053e7,2021-10-27_11h09.29.555,arrow_simon_punish,2021.1.2,Win32,20.02162335,,,,,,,,,,,,,,w,1,1.8206,2.190549343,1,5,2,1,9,2,1,,,,,,,,,,,,,,
,,,,,,,,,,,right.png,,p,left,60e4c09a4b30f16f5a1053e7,2021-10-27_11h09.29.555,arrow_simon_punish,2021.1.2,Win32,20.02162335,,,,,,,,,,,,,,p,1,1.4244,1.740024006,0,5,2,2,10,0,1,,,,,,,,,,,,,,
,,,,,,,,,,,right.png,,p,right,60e4c09a4b30f16f5a1053e7,2021-10-27_11h09.29.555,arrow_simon_punish,2021.1.2,Win32,20.02162335,,,,,,,,,,,,,,p,1,1.6846,2.145448405,1,5,2,3,11,1,1,,,,,,,,,,,,,,
,,,,,,,,,,,left.png,,w,right,60e4c09a4b30f16f5a1053e7,2021-10-27_11h09.29.555,arrow_simon_punish,2021.1.2,Win32,20.02162335,,,,,,,,,,,,,,w,1,1.9209,2.299643863,1,5,3,0,12,3,1,,,,,,,,,,,,,,
,,,,,,,,,,,left.png,,w,right,60e4c09a4b30f16f5a1053e7,2021-10-27_11h09.29.555,arrow_simon_punish,2021.1.2,Win32,20.02162335,,,,,,,,,,,,,,p,0,1.9256,2.296524797,1,5,3,1,13,3,1,,,,,,,,,,,,,,
,,,,,,,,,,,left.png,,w,left,60e4c09a4b30f16f5a1053e7,2021-10-27_11h09.29.555,arrow_simon_punish,2021.1.2,Win32,20.02162335,,,,,,,,,,,,,,w,1,1.8247,2.105530821,1,5,3,2,14,2,1,,,,,,,,,,,,,,
,,,,,,,,,,,right.png,,p,right,60e4c09a4b30f16f5a1053e7,2021-10-27_11h09.29.555,arrow_simon_punish,2021.1.2,Win32,20.02162335,,,,,,,,,,,,,,p,1,2.0707,2.346469976,1,5,3,3,15,1,1,,,,,,,,,,,,,,
,,,,,,,,,,,right.png,,p,left,60e4c09a4b30f16f5a1053e7,2021-10-27_11h09.29.555,arrow_simon_punish,2021.1.2,Win32,20.02162335,,,,,,,,,,,,,,p,1,1.7222,1.910198061,1,5,4,0,16,0,1,,,,,,,,,,,,,,
,,,,,,,,,,,right.png,,p,right,60e4c09a4b30f16f5a1053e7,2021-10-27_11h09.29.555,arrow_simon_punish,2021.1.2,Win32,20.02162335,,,,,,,,,,,,,,p,1,1.4541,1.831815542,0,5,4,1,17,1,1,,,,,,,,,,,,,,
,,,,,,,,,,,left.png,,w,right,60e4c09a4b30f16f5a1053e7,2021-10-27_11h09.29.555,arrow_simon_punish,2021.1.2,Win32,20.02162335,,,,,,,,,,,,,,w,1,2.0619,2.460166046,1,5,4,2,18,3,1,,,,,,,,,,,,,,
,,,,,,,,,,,left.png,,w,left,60e4c09a4b30f16f5a1053e7,2021-10-27_11h09.29.555,arrow_simon_punish,2021.1.2,Win32,20.02162335,,,,,,,,,,,,,,w,1,1.5176,1.966143316,0,5,4,3,19,2,1,,,,,,,,,,,,,,
,,,,,,,,,,,right.png,,p,right,60e4c09a4b30f16f5a1053e7,2021-10-27_11h09.29.555,arrow_simon_punish,2021.1.2,Win32,20.02162335,,,,,,,,,,,,,,p,1,1.4044,1.7122199,0,5,5,0,20,1,1,,,,,,,,,,,,,,
,,,,,,,,,,,left.png,,w,right,60e4c09a4b30f16f5a1053e7,2021-10-27_11h09.29.555,arrow_simon_punish,2021.1.2,Win32,20.02162335,,,,,,,,,,,,,,w,1,2.1036,2.470645415,1,5,5,1,21,3,1,,,,,,,,,,,,,,
,,,,,,,,,,,left.png,,w,left,60e4c09a4b30f16f5a1053e7,2021-10-27_11h09.29.555,arrow_simon_punish,2021.1.2,Win32,20.02162335,,,,,,,,,,,,,,w,1,1.4166,1.501869252,0,5,5,2,22,2,1,,,,,,,,,,,,,,
,,,,,,,,,,,right.png,,p,right,60e4c09a4b30f16f5a1053e7,2021-10-27_11h09.29.555,arrow_simon_punish,2021.1.2,Win32,20.02162335,,,,,,,,,,,,,,p,1,1.1143,1.550339168,1,5,5,3,23,1,1,,,,,,,,,,,,,,
,,,,,,,,,,,right.png,,p,left,60e4c09a4b30f16f5a1053e7,2021-10-27_11h09.29.555,arrow_simon_punish,2021.1.2,Win32,20.02162335,,,,,,,,,,,,,,p,1,1.6912,1.891529195,1,5,6,0,24,0,1,,,,,,,,,,,,,,
,,,,,,,,,,,right.png,,p,left,60e4c09a4b30f16f5a1053e7,2021-10-27_11h09.29.555,arrow_simon_punish,2021.1.2,Win32,20.02162335,,,,,,,,,,,,,,p,1,1.5958,1.801626615,0,5,6,1,25,0,1,,,,,,,,,,,,,,
,,,,,,,,,,,left.png,,w,right,60e4c09a4b30f16f5a1053e7,2021-10-27_11h09.29.555,arrow_simon_punish,2021.1.2,Win32,20.02162335,,,,,,,,,,,,,,w,1,2.1195,2.452286447,1,5,6,2,26,3,1,,,,,,,,,,,,,,
,,,,,,,,,,,right.png,,p,left,60e4c09a4b30f16f5a1053e7,2021-10-27_11h09.29.555,arrow_simon_punish,2021.1.2,Win32,20.02162335,,,,,,,,,,,,,,p,1,2.5405,1.558644446,1,5,6,3,27,0,1,,,,,,,,,,,,,,
,,,,,,,,,,,right.png,,p,left,60e4c09a4b30f16f5a1053e7,2021-10-27_11h09.29.555,arrow_simon_punish,2021.1.2,Win32,20.02162335,,,,,,,,,,,,,,w,0,1.7935,2.018658242,1,5,7,0,28,0,1,,,,,,,,,,,,,,
,,,,,,,,,,,right.png,,p,left,60e4c09a4b30f16f5a1053e7,2021-10-27_11h09.29.555,arrow_simon_punish,2021.1.2,Win32,20.02162335,,,,,,,,,,,,,,p,1,2.48,2.286466167,1,5,7,1,29,0,1,,,,,,,,,,,,,,
,,,,,,,,,,,right.png,,p,left,60e4c09a4b30f16f5a1053e7,2021-10-27_11h09.29.555,arrow_simon_punish,2021.1.2,Win32,20.02162335,,,,,,,,,,,,,,p,1,1.5497,1.736998508,0,5,7,2,30,0,1,,,,,,,,,,,,,,
,,,,,,,,,,,left.png,,w,left,60e4c09a4b30f16f5a1053e7,2021-10-27_11h09.29.555,arrow_simon_punish,2021.1.2,Win32,20.02162335,,,,,,,,,,,,,,w,1,1.8989,2.151769166,1,5,7,3,31,2,1,,,,,,,,,,,,,,
,,,,,,,,,,,right.png,,p,right,60e4c09a4b30f16f5a1053e7,2021-10-27_11h09.29.555,arrow_simon_punish,2021.1.2,Win32,20.02162335,,,,,,,,,,,,,,p,1,1.8068,1.862921501,1,5,8,0,32,1,1,,,,,,,,,,,,,,
,,,,,,,,,,,right.png,,p,left,60e4c09a4b30f16f5a1053e7,2021-10-27_11h09.29.555,arrow_simon_punish,2021.1.2,Win32,20.02162335,,,,,,,,,,,,,,p,1,1.7309,2.041535397,1,5,8,1,33,0,1,,,,,,,,,,,,,,
,,,,,,,,,,,right.png,,p,right,60e4c09a4b30f16f5a1053e7,2021-10-27_11h09.29.555,arrow_simon_punish,2021.1.2,Win32,20.02162335,,,,,,,,,,,,,,p,1,1.6711,2.073139803,1,5,8,2,34,1,1,,,,,,,,,,,,,,
,,,,,,,,,,,right.png,,p,left,60e4c09a4b30f16f5a1053e7,2021-10-27_11h09.29.555,arrow_simon_punish,2021.1.2,Win32,20.02162335,,,,,,,,,,,,,,p,1,1.3155,1.555404027,1,5,8,3,35,0,1,,,,,,,,,,,,,,
,,,,,,,,,,,left.png,,w,right,60e4c09a4b30f16f5a1053e7,2021-10-27_11h09.29.555,arrow_simon_punish,2021.1.2,Win32,20.02162335,,,,,,,,,,,,,,w,1,1.8877,2.262802314,1,5,9,0,36,3,1,,,,,,,,,,,,,,
,,,,,,,,,,,left.png,,w,right,60e4c09a4b30f16f5a1053e7,2021-10-27_11h09.29.555,arrow_simon_punish,2021.1.2,Win32,20.02162335,,,,,,,,,,,,,,w,1,1.9482,2.373125625,1,5,9,1,37,3,1,,,,,,,,,,,,,,
,,,,,,,,,,,left.png,,w,left,60e4c09a4b30f16f5a1053e7,2021-10-27_11h09.29.555,arrow_simon_punish,2021.1.2,Win32,20.02162335,,,,,,,,,,,,,,p,0,1.3235,1.618319188,1,5,9,2,38,2,1,,,,,,,,,,,,,,
,,,,,,,,,,,left.png,,w,left,60e4c09a4b30f16f5a1053e7,2021-10-27_11h09.29.555,arrow_simon_punish,2021.1.2,Win32,20.02162335,,,,,,,,,,,,,,w,1,1.8903,2.034436633,1,5,9,3,39,2,1,,,,,,,,,,,,,,
,,,,,,,,,,,right.png,,p,right,60e4c09a4b30f16f5a1053e7,2021-10-27_11h09.29.555,arrow_simon_punish,2021.1.2,Win32,20.02162335,,,,,,,,,,,,,,p,1,1.7044,2.199542146,1,5,10,0,40,1,1,,,,,,,,,,,,,,
,,,,,,,,,,,left.png,,w,left,60e4c09a4b30f16f5a1053e7,2021-10-27_11h09.29.555,arrow_simon_punish,2021.1.2,Win32,20.02162335,,,,,,,,,,,,,,w,1,1.7137,1.54314915,1,5,10,1,41,2,1,,,,,,,,,,,,,,
,,,,,,,,,,,left.png,,w,right,60e4c09a4b30f16f5a1053e7,2021-10-27_11h09.29.555,arrow_simon_punish,2021.1.2,Win32,20.02162335,,,,,,,,,,,,,,p,0,1.8477,1.889160594,1,5,10,2,42,3,1,,,,,,,,,,,,,,
,,,,,,,,,,,right.png,,p,right,60e4c09a4b30f16f5a1053e7,2021-10-27_11h09.29.555,arrow_simon_punish,2021.1.2,Win32,20.02162335,,,,,,,,,,,,,,p,1,3.2071,2.147450877,1,5,10,3,43,1,1,,,,,,,,,,,,,,
,,,,,,,,,,,left.png,,w,left,60e4c09a4b30f16f5a1053e7,2021-10-27_11h09.29.555,arrow_simon_punish,2021.1.2,Win32,20.02162335,,,,,,,,,,,,,,w,1,2.2415,2.278909104,1,5,11,0,44,2,1,,,,,,,,,,,,,,
,,,,,,,,,,,left.png,,w,left,60e4c09a4b30f16f5a1053e7,2021-10-27_11h09.29.555,arrow_simon_punish,2021.1.2,Win32,20.02162335,,,,,,,,,,,,,,w,1,2.3663,2.40440626,1,5,11,1,45,2,1,,,,,,,,,,,,,,
,,,,,,,,,,,right.png,,p,left,60e4c09a4b30f16f5a1053e7,2021-10-27_11h09.29.555,arrow_simon_punish,2021.1.2,Win32,20.02162335,,,,,,,,,,,,,,p,1,1.3738,1.620588396,1,5,11,2,46,0,1,,,,,,,,,,,,,,
,,,,,,,,,,,left.png,,w,right,60e4c09a4b30f16f5a1053e7,2021-10-27_11h09.29.555,arrow_simon_punish,2021.1.2,Win32,20.02162335,,,,,,,,,,,,,,w,1,1.9891,2.338788124,1,5,11,3,47,3,1,,,,,,,,,,,,,,
,,,,,,,,,,,right.png,,p,right,60e4c09a4b30f16f5a1053e7,2021-10-27_11h09.29.555,arrow_simon_punish,2021.1.2,Win32,20.02162335,,,,,,,,,,,,,,p,1,1.5358,1.937609502,0,5,12,0,48,1,1,,,,,,,,,,,,,,
,,,,,,,,,,,left.png,,w,right,60e4c09a4b30f16f5a1053e7,2021-10-27_11h09.29.555,arrow_simon_punish,2021.1.2,Win32,20.02162335,,,,,,,,,,,,,,w,1,1.3936,1.623412285,1,5,12,1,49,3,1,,,,,,,,,,,,,,
,,,,,,,,,,,left.png,,w,right,60e4c09a4b30f16f5a1053e7,2021-10-27_11h09.29.555,arrow_simon_punish,2021.1.2,Win32,20.02162335,,,,,,,,,,,,,,w,1,1.6468,1.986979349,1,5,12,2,50,3,1,,,,,,,,,,,,,,
,,,,,,,,,,,left.png,,w,right,60e4c09a4b30f16f5a1053e7,2021-10-27_11h09.29.555,arrow_simon_punish,2021.1.2,Win32,20.02162335,,,,,,,,,,,,,,w,1,1.7024,2.146448497,1,5,12,3,51,3,1,,,,,,,,,,,,,,
,,,,,,,,,,,right.png,,p,left,60e4c09a4b30f16f5a1053e7,2021-10-27_11h09.29.555,arrow_simon_punish,2021.1.2,Win32,20.02162335,,,,,,,,,,,,,,p,1,1.5504,1.995642748,0,5,13,0,52,0,1,,,,,,,,,,,,,,
,,,,,,,,,,,left.png,,w,right,60e4c09a4b30f16f5a1053e7,2021-10-27_11h09.29.555,arrow_simon_punish,2021.1.2,Win32,20.02162335,,,,,,,,,,,,,,w,1,2.1581,2.413017744,1,5,13,1,53,3,1,,,,,,,,,,,,,,
,,,,,,,,,,,right.png,,p,right,60e4c09a4b30f16f5a1053e7,2021-10-27_11h09.29.555,arrow_simon_punish,2021.1.2,Win32,20.02162335,,,,,,,,,,,,,,p,1,1.9642,2.246624095,1,5,13,2,54,1,1,,,,,,,,,,,,,,
,,,,,,,,,,,left.png,,w,left,60e4c09a4b30f16f5a1053e7,2021-10-27_11h09.29.555,arrow_simon_punish,2021.1.2,Win32,20.02162335,,,,,,,,,,,,,,w,1,1.706,1.757105743,1,5,13,3,55,2,1,,,,,,,,,,,,,,
,,,,,,,,,,,right.png,,p,left,60e4c09a4b30f16f5a1053e7,2021-10-27_11h09.29.555,arrow_simon_punish,2021.1.2,Win32,20.02162335,,,,,,,,,,,,,,p,1,1.3649,1.663681427,1,5,14,0,56,0,1,,,,,,,,,,,,,,
,,,,,,,,,,,right.png,,p,right,60e4c09a4b30f16f5a1053e7,2021-10-27_11h09.29.555,arrow_simon_punish,2021.1.2,Win32,20.02162335,,,,,,,,,,,,,,p,1,2.9409,2.334277146,1,5,14,1,57,1,1,,,,,,,,,,,,,,
,,,,,,,,,,,left.png,,w,left,60e4c09a4b30f16f5a1053e7,2021-10-27_11h09.29.555,arrow_simon_punish,2021.1.2,Win32,20.02162335,,,,,,,,,,,,,,w,1,2.0543,2.47081501,1,5,14,2,58,2,1,,,,,,,,,,,,,,
,,,,,,,,,,,right.png,,p,right,60e4c09a4b30f16f5a1053e7,2021-10-27_11h09.29.555,arrow_simon_punish,2021.1.2,Win32,20.02162335,,,,,,,,,,,,,,p,1,1.5394,1.891928139,0,5,14,3,59,1,1,,,,,,,,,,,,,,
,,,,,,,,,,,,,,,60e4c09a4b30f16f5a1053e7,2021-10-27_11h09.29.555,arrow_simon_punish,2021.1.2,Win32,20.02162335,,,,,,,,,,,,,,,,,,,,,,,,,space,30.2424,3,0,1,1,1,1,5,,,,,
,,,,,,,,,,,right.png,,p,left,60e4c09a4b30f16f5a1053e7,2021-10-27_11h09.29.555,arrow_simon_punish,2021.1.2,Win32,20.02162335,,,,,,,,,,,,,,p,1,2.1056,2.404748912,1,1,0,0,0,0,1,,,,,,,,,,,,,,
,,,,,,,,,,,right.png,,p,right,60e4c09a4b30f16f5a1053e7,2021-10-27_11h09.29.555,arrow_simon_punish,2021.1.2,Win32,20.02162335,,,,,,,,,,,,,,p,1,1.6923,2.062230816,1,1,0,1,1,1,1,,,,,,,,,,,,,,
,,,,,,,,,,,right.png,,p,right,60e4c09a4b30f16f5a1053e7,2021-10-27_11h09.29.555,arrow_simon_punish,2021.1.2,Win32,20.02162335,,,,,,,,,,,,,,p,1,1.407,1.812658236,0,1,0,2,2,1,1,,,,,,,,,,,,,,
,,,,,,,,,,,left.png,,w,left,60e4c09a4b30f16f5a1053e7,2021-10-27_11h09.29.555,arrow_simon_punish,2021.1.2,Win32,20.02162335,,,,,,,,,,,,,,w,1,2.3099,2.398667475,1,1,0,3,3,2,1,,,,,,,,,,,,,,
,,,,,,,,,,,right.png,,p,left,60e4c09a4b30f16f5a1053e7,2021-10-27_11h09.29.555,arrow_simon_punish,2021.1.2,Win32,20.02162335,,,,,,,,,,,,,,p,1,2.1297,2.489292064,1,1,1,0,4,0,1,,,,,,,,,,,,,,
,,,,,,,,,,,right.png,,p,left,60e4c09a4b30f16f5a1053e7,2021-10-27_11h09.29.555,arrow_simon_punish,2021.1.2,Win32,20.02162335,,,,,,,,,,,,,,p,1,1.6514,1.838135295,1,1,1,1,5,0,1,,,,,,,,,,,,,,
,,,,,,,,,,,left.png,,w,left,60e4c09a4b30f16f5a1053e7,2021-10-27_11h09.29.555,arrow_simon_punish,2021.1.2,Win32,20.02162335,,,,,,,,,,,,,,p,0,1.5967,2.331850182,1,1,1,2,6,2,1,,,,,,,,,,,,,,
,,,,,,,,,,,left.png,,w,right,60e4c09a4b30f16f5a1053e7,2021-10-27_11h09.29.555,arrow_simon_punish,2021.1.2,Win32,20.02162335,,,,,,,,,,,,,,p,0,1.2781,2.314671283,1,1,1,3,7,3,1,,,,,,,,,,,,,,
,,,,,,,,,,,left.png,,w,left,60e4c09a4b30f16f5a1053e7,2021-10-27_11h09.29.555,arrow_simon_punish,2021.1.2,Win32,20.02162335,,,,,,,,,,,,,,w,1,1.4622,1.648039838,0,1,2,0,8,2,1,,,,,,,,,,,,,,
,,,,,,,,,,,right.png,,p,left,60e4c09a4b30f16f5a1053e7,2021-10-27_11h09.29.555,arrow_simon_punish,2021.1.2,Win32,20.02162335,,,,,,,,,,,,,,p,1,2.354,1.737165829,1,1,2,1,9,0,1,,,,,,,,,,,,,,
,,,,,,,,,,,right.png,,p,left,60e4c09a4b30f16f5a1053e7,2021-10-27_11h09.29.555,arrow_simon_punish,2021.1.2,Win32,20.02162335,,,,,,,,,,,,,,p,1,1.7548,1.932337804,1,1,2,2,10,0,1,,,,,,,,,,,,,,
,,,,,,,,,,,right.png,,p,right,60e4c09a4b30f16f5a1053e7,2021-10-27_11h09.29.555,arrow_simon_punish,2021.1.2,Win32,20.02162335,,,,,,,,,,,,,,p,1,1.1873,1.548255795,1,1,2,3,11,1,1,,,,,,,,,,,,,,
,,,,,,,,,,,right.png,,p,right,60e4c09a4b30f16f5a1053e7,2021-10-27_11h09.29.555,arrow_simon_punish,2021.1.2,Win32,20.02162335,,,,,,,,,,,,,,p,1,1.6957,2.172391751,1,1,3,0,12,1,1,,,,,,,,,,,,,,
,,,,,,,,,,,right.png,,p,left,60e4c09a4b30f16f5a1053e7,2021-10-27_11h09.29.555,arrow_simon_punish,2021.1.2,Win32,20.02162335,,,,,,,,,,,,,,p,1,1.5188,1.794251575,0,1,3,1,13,0,1,,,,,,,,,,,,,,
,,,,,,,,,,,right.png,,p,left,60e4c09a4b30f16f5a1053e7,2021-10-27_11h09.29.555,arrow_simon_punish,2021.1.2,Win32,20.02162335,,,,,,,,,,,,,,p,1,1.5859,1.724055756,0,1,3,2,14,0,1,,,,,,,,,,,,,,
,,,,,,,,,,,right.png,,p,left,60e4c09a4b30f16f5a1053e7,2021-10-27_11h09.29.555,arrow_simon_punish,2021.1.2,Win32,20.02162335,,,,,,,,,,,,,,p,1,2.304,2.44011391,1,1,3,3,15,0,1,,,,,,,,,,,,,,
,,,,,,,,,,,right.png,,p,left,60e4c09a4b30f16f5a1053e7,2021-10-27_11h09.29.555,arrow_simon_punish,2021.1.2,Win32,20.02162335,,,,,,,,,,,,,,p,1,1.7416,2.096661791,1,1,4,0,16,0,1,,,,,,,,,,,,,,
,,,,,,,,,,,left.png,,w,right,60e4c09a4b30f16f5a1053e7,2021-10-27_11h09.29.555,arrow_simon_punish,2021.1.2,Win32,20.02162335,,,,,,,,,,,,,,w,1,1.5504,1.84165556,0,1,4,1,17,3,1,,,,,,,,,,,,,,
,,,,,,,,,,,left.png,,w,left,60e4c09a4b30f16f5a1053e7,2021-10-27_11h09.29.555,arrow_simon_punish,2021.1.2,Win32,20.02162335,,,,,,,,,,,,,,p,0,1.7388,2.076674689,1,1,4,2,18,2,1,,,,,,,,,,,,,,
,,,,,,,,,,,left.png,,w,left,60e4c09a4b30f16f5a1053e7,2021-10-27_11h09.29.555,arrow_simon_punish,2021.1.2,Win32,20.02162335,,,,,,,,,,,,,,w,1,2.0907,2.436047453,1,1,4,3,19,2,1,,,,,,,,,,,,,,
,,,,,,,,,,,right.png,,p,right,60e4c09a4b30f16f5a1053e7,2021-10-27_11h09.29.555,arrow_simon_punish,2021.1.2,Win32,20.02162335,,,,,,,,,,,,,,p,1,1.3702,1.766177806,1,1,5,0,20,1,1,,,,,,,,,,,,,,
,,,,,,,,,,,left.png,,w,right,60e4c09a4b30f16f5a1053e7,2021-10-27_11h09.29.555,arrow_simon_punish,2021.1.2,Win32,20.02162335,,,,,,,,,,,,,,w,1,1.3868,1.695555116,1,1,5,1,21,3,1,,,,,,,,,,,,,,
,,,,,,,,,,,left.png,,w,right,60e4c09a4b30f16f5a1053e7,2021-10-27_11h09.29.555,arrow_simon_punish,2021.1.2,Win32,20.02162335,,,,,,,,,,,,,,w,1,1.4185,1.787623411,0,1,5,2,22,3,1,,,,,,,,,,,,,,
,,,,,,,,,,,right.png,,p,left,60e4c09a4b30f16f5a1053e7,2021-10-27_11h09.29.555,arrow_simon_punish,2021.1.2,Win32,20.02162335,,,,,,,,,,,,,,p,1,1.3843,1.580675659,1,1,5,3,23,0,1,,,,,,,,,,,,,,
,,,,,,,,,,,left.png,,w,left,60e4c09a4b30f16f5a1053e7,2021-10-27_11h09.29.555,arrow_simon_punish,2021.1.2,Win32,20.02162335,,,,,,,,,,,,,,w,1,1.653,2.143738213,1,1,6,0,24,2,1,,,,,,,,,,,,,,
,,,,,,,,,,,left.png,,w,right,60e4c09a4b30f16f5a1053e7,2021-10-27_11h09.29.555,arrow_simon_punish,2021.1.2,Win32,20.02162335,,,,,,,,,,,,,,w,1,1.7814,2.005615656,1,1,6,1,25,3,1,,,,,,,,,,,,,,
,,,,,,,,,,,right.png,,p,right,60e4c09a4b30f16f5a1053e7,2021-10-27_11h09.29.555,arrow_simon_punish,2021.1.2,Win32,20.02162335,,,,,,,,,,,,,,p,1,1.4028,1.750817568,0,1,6,2,26,1,1,,,,,,,,,,,,,,
,,,,,,,,,,,left.png,,w,left,60e4c09a4b30f16f5a1053e7,2021-10-27_11h09.29.555,arrow_simon_punish,2021.1.2,Win32,20.02162335,,,,,,,,,,,,,,w,1,1.8843,2.25723899,1,1,6,3,27,2,1,,,,,,,,,,,,,,
,,,,,,,,,,,left.png,,w,left,60e4c09a4b30f16f5a1053e7,2021-10-27_11h09.29.555,arrow_simon_punish,2021.1.2,Win32,20.02162335,,,,,,,,,,,,,,w,1,1.9575,2.263296163,1,1,7,0,28,2,1,,,,,,,,,,,,,,
,,,,,,,,,,,right.png,,p,left,60e4c09a4b30f16f5a1053e7,2021-10-27_11h09.29.555,arrow_simon_punish,2021.1.2,Win32,20.02162335,,,,,,,,,,,,,,p,1,1.7889,2.005641659,1,1,7,1,29,0,1,,,,,,,,,,,,,,
,,,,,,,,,,,right.png,,p,left,60e4c09a4b30f16f5a1053e7,2021-10-27_11h09.29.555,arrow_simon_punish,2021.1.2,Win32,20.02162335,,,,,,,,,,,,,,p,1,1.9118,2.121116962,1,1,7,2,30,0,1,,,,,,,,,,,,,,
,,,,,,,,,,,left.png,,w,left,60e4c09a4b30f16f5a1053e7,2021-10-27_11h09.29.555,arrow_simon_punish,2021.1.2,Win32,20.02162335,,,,,,,,,,,,,,w,1,1.9264,2.30641818,1,1,7,3,31,2,1,,,,,,,,,,,,,,
,,,,,,,,,,,left.png,,w,right,60e4c09a4b30f16f5a1053e7,2021-10-27_11h09.29.555,arrow_simon_punish,2021.1.2,Win32,20.02162335,,,,,,,,,,,,,,p,0,2.2231,2.371210348,1,1,8,0,32,3,1,,,,,,,,,,,,,,
,,,,,,,,,,,left.png,,w,left,60e4c09a4b30f16f5a1053e7,2021-10-27_11h09.29.555,arrow_simon_punish,2021.1.2,Win32,20.02162335,,,,,,,,,,,,,,p,0,1.6106,1.951113303,1,1,8,1,33,2,1,,,,,,,,,,,,,,
,,,,,,,,,,,right.png,,p,left,60e4c09a4b30f16f5a1053e7,2021-10-27_11h09.29.555,arrow_simon_punish,2021.1.2,Win32,20.02162335,,,,,,,,,,,,,,p,1,2.0572,2.415044222,1,1,8,2,34,0,1,,,,,,,,,,,,,,
,,,,,,,,,,,left.png,,w,left,60e4c09a4b30f16f5a1053e7,2021-10-27_11h09.29.555,arrow_simon_punish,2021.1.2,Win32,20.02162335,,,,,,,,,,,,,,w,1,1.843,2.19291663,1,1,8,3,35,2,1,,,,,,,,,,,,,,
,,,,,,,,,,,right.png,,p,right,60e4c09a4b30f16f5a1053e7,2021-10-27_11h09.29.555,arrow_simon_punish,2021.1.2,Win32,20.02162335,,,,,,,,,,,,,,p,1,1.9415,2.359904891,1,1,9,0,36,1,1,,,,,,,,,,,,,,
,,,,,,,,,,,right.png,,p,right,60e4c09a4b30f16f5a1053e7,2021-10-27_11h09.29.555,arrow_simon_punish,2021.1.2,Win32,20.02162335,,,,,,,,,,,,,,p,1,1.2706,1.62887922,1,1,9,1,37,1,1,,,,,,,,,,,,,,
,,,,,,,,,,,left.png,,w,right,60e4c09a4b30f16f5a1053e7,2021-10-27_11h09.29.555,arrow_simon_punish,2021.1.2,Win32,20.02162335,,,,,,,,,,,,,,w,1,1.5599,1.774997385,0,1,9,2,38,3,1,,,,,,,,,,,,,,
,,,,,,,,,,,left.png,,w,left,60e4c09a4b30f16f5a1053e7,2021-10-27_11h09.29.555,arrow_simon_punish,2021.1.2,Win32,20.02162335,,,,,,,,,,,,,,w,1,1.6257,2.072658011,1,1,9,3,39,2,1,,,,,,,,,,,,,,
,,,,,,,,,,,left.png,,w,left,60e4c09a4b30f16f5a1053e7,2021-10-27_11h09.29.555,arrow_simon_punish,2021.1.2,Win32,20.02162335,,,,,,,,,,,,,,w,1,1.3579,1.791684422,1,1,10,0,40,2,1,,,,,,,,,,,,,,
,,,,,,,,,,,left.png,,w,right,60e4c09a4b30f16f5a1053e7,2021-10-27_11h09.29.555,arrow_simon_punish,2021.1.2,Win32,20.02162335,,,,,,,,,,,,,,w,1,1.8664,2.238267508,1,1,10,1,41,3,1,,,,,,,,,,,,,,
,,,,,,,,,,,left.png,,w,right,60e4c09a4b30f16f5a1053e7,2021-10-27_11h09.29.555,arrow_simon_punish,2021.1.2,Win32,20.02162335,,,,,,,,,,,,,,w,1,1.5565,1.647678741,0,1,10,2,42,3,1,,,,,,,,,,,,,,
,,,,,,,,,,,right.png,,p,right,60e4c09a4b30f16f5a1053e7,2021-10-27_11h09.29.555,arrow_simon_punish,2021.1.2,Win32,20.02162335,,,,,,,,,,,,,,p,1,1.3196,1.788249158,1,1,10,3,43,1,1,,,,,,,,,,,,,,
,,,,,,,,,,,left.png,,w,right,60e4c09a4b30f16f5a1053e7,2021-10-27_11h09.29.555,arrow_simon_punish,2021.1.2,Win32,20.02162335,,,,,,,,,,,,,,w,1,2.1555,1.853828332,1,1,11,0,44,3,1,,,,,,,,,,,,,,
,,,,,,,,,,,right.png,,p,left,60e4c09a4b30f16f5a1053e7,2021-10-27_11h09.29.555,arrow_simon_punish,2021.1.2,Win32,20.02162335,,,,,,,,,,,,,,p,1,1.255,1.614240684,1,1,11,1,45,0,1,,,,,,,,,,,,,,
,,,,,,,,,,,left.png,,w,left,60e4c09a4b30f16f5a1053e7,2021-10-27_11h09.29.555,arrow_simon_punish,2021.1.2,Win32,20.02162335,,,,,,,,,,,,,,p,0,2.2285,2.433886994,1,1,11,2,46,2,1,,,,,,,,,,,,,,
,,,,,,,,,,,right.png,,p,right,60e4c09a4b30f16f5a1053e7,2021-10-27_11h09.29.555,arrow_simon_punish,2021.1.2,Win32,20.02162335,,,,,,,,,,,,,,p,1,2.2953,2.306952747,1,1,11,3,47,1,1,,,,,,,,,,,,,,
,,,,,,,,,,,left.png,,w,right,60e4c09a4b30f16f5a1053e7,2021-10-27_11h09.29.555,arrow_simon_punish,2021.1.2,Win32,20.02162335,,,,,,,,,,,,,,w,1,2.0476,2.337643302,1,1,12,0,48,3,1,,,,,,,,,,,,,,
,,,,,,,,,,,left.png,,w,right,60e4c09a4b30f16f5a1053e7,2021-10-27_11h09.29.555,arrow_simon_punish,2021.1.2,Win32,20.02162335,,,,,,,,,,,,,,w,1,1.9208,2.186022335,1,1,12,1,49,3,1,,,,,,,,,,,,,,
,,,,,,,,,,,left.png,,w,left,60e4c09a4b30f16f5a1053e7,2021-10-27_11h09.29.555,arrow_simon_punish,2021.1.2,Win32,20.02162335,,,,,,,,,,,,,,w,1,1.8767,2.219532098,1,1,12,2,50,2,1,,,,,,,,,,,,,,
,,,,,,,,,,,right.png,,p,right,60e4c09a4b30f16f5a1053e7,2021-10-27_11h09.29.555,arrow_simon_punish,2021.1.2,Win32,20.02162335,,,,,,,,,,,,,,p,1,1.6238,2.008048494,1,1,12,3,51,1,1,,,,,,,,,,,,,,
,,,,,,,,,,,right.png,,p,right,60e4c09a4b30f16f5a1053e7,2021-10-27_11h09.29.555,arrow_simon_punish,2021.1.2,Win32,20.02162335,,,,,,,,,,,,,,p,1,1.0893,1.599489955,1,1,13,0,52,1,1,,,,,,,,,,,,,,
,,,,,,,,,,,right.png,,p,right,60e4c09a4b30f16f5a1053e7,2021-10-27_11h09.29.555,arrow_simon_punish,2021.1.2,Win32,20.02162335,,,,,,,,,,,,,,p,1,1.712,2.306229528,1,1,13,1,53,1,1,,,,,,,,,,,,,,
,,,,,,,,,,,right.png,,p,left,60e4c09a4b30f16f5a1053e7,2021-10-27_11h09.29.555,arrow_simon_punish,2021.1.2,Win32,20.02162335,,,,,,,,,,,,,,p,1,1.309,1.646188849,1,1,13,2,54,0,1,,,,,,,,,,,,,,
,,,,,,,,,,,right.png,,p,right,60e4c09a4b30f16f5a1053e7,2021-10-27_11h09.29.555,arrow_simon_punish,2021.1.2,Win32,20.02162335,,,,,,,,,,,,,,p,1,1.5262,1.934551127,0,1,13,3,55,1,1,,,,,,,,,,,,,,
,,,,,,,,,,,right.png,,p,right,60e4c09a4b30f16f5a1053e7,2021-10-27_11h09.29.555,arrow_simon_punish,2021.1.2,Win32,20.02162335,,,,,,,,,,,,,,p,1,1.4416,1.556733229,0,1,14,0,56,1,1,,,,,,,,,,,,,,
,,,,,,,,,,,left.png,,w,right,60e4c09a4b30f16f5a1053e7,2021-10-27_11h09.29.555,arrow_simon_punish,2021.1.2,Win32,20.02162335,,,,,,,,,,,,,,w,1,2.0967,2.457418113,1,1,14,1,57,3,1,,,,,,,,,,,,,,
,,,,,,,,,,,left.png,,w,right,60e4c09a4b30f16f5a1053e7,2021-10-27_11h09.29.555,arrow_simon_punish,2021.1.2,Win32,20.02162335,,,,,,,,,,,,,,w,1,1.9579,1.976879034,1,1,14,2,58,3,1,,,,,,,,,,,,,,
,,,,,,,,,,,left.png,,w,right,60e4c09a4b30f16f5a1053e7,2021-10-27_11h09.29.555,arrow_simon_punish,2021.1.2,Win32,20.02162335,,,,,,,,,,,,,,w,1,1.2664,1.590138742,1,1,14,3,59,3,1,,,,,,,,,,,,,,
,,,,,,,,,,,,,,,60e4c09a4b30f16f5a1053e7,2021-10-27_11h09.29.555,arrow_simon_punish,2021.1.2,Win32,20.02162335,,,,,,,,,,,,,,,,,,,,,,,,,space,91.0197,4,1,0,2,0,1,1,,,,,
,,,,,,,,,,,left.png,,w,left,60e4c09a4b30f16f5a1053e7,2021-10-27_11h09.29.555,arrow_simon_punish,2021.1.2,Win32,20.02162335,,,,,,,,,,,,,,w,1,2.0849,2.166965061,1,5,0,0,0,2,1,,,,,,,,,,,,,,
,,,,,,,,,,,left.png,,w,left,60e4c09a4b30f16f5a1053e7,2021-10-27_11h09.29.555,arrow_simon_punish,2021.1.2,Win32,20.02162335,,,,,,,,,,,,,,w,1,1.9034,2.382430459,1,5,0,1,1,2,1,,,,,,,,,,,,,,
,,,,,,,,,,,right.png,,p,left,60e4c09a4b30f16f5a1053e7,2021-10-27_11h09.29.555,arrow_simon_punish,2021.1.2,Win32,20.02162335,,,,,,,,,,,,,,p,1,1.8616,2.139267031,1,5,0,2,2,0,1,,,,,,,,,,,,,,
,,,,,,,,,,,left.png,,w,left,60e4c09a4b30f16f5a1053e7,2021-10-27_11h09.29.555,arrow_simon_punish,2021.1.2,Win32,20.02162335,,,,,,,,,,,,,,w,1,1.3052,1.742607521,1,5,0,3,3,2,1,,,,,,,,,,,,,,
,,,,,,,,,,,left.png,,w,left,60e4c09a4b30f16f5a1053e7,2021-10-27_11h09.29.555,arrow_simon_punish,2021.1.2,Win32,20.02162335,,,,,,,,,,,,,,w,1,2.3271,2.424742895,1,5,1,0,4,2,1,,,,,,,,,,,,,,
,,,,,,,,,,,right.png,,p,left,60e4c09a4b30f16f5a1053e7,2021-10-27_11h09.29.555,arrow_simon_punish,2021.1.2,Win32,20.02162335,,,,,,,,,,,,,,p,1,1.2629,1.520428072,1,5,1,1,5,0,1,,,,,,,,,,,,,,
,,,,,,,,,,,left.png,,w,right,60e4c09a4b30f16f5a1053e7,2021-10-27_11h09.29.555,arrow_simon_punish,2021.1.2,Win32,20.02162335,,,,,,,,,,,,,,w,1,1.5251,1.808878681,0,5,1,2,6,3,1,,,,,,,,,,,,,,
,,,,,,,,,,,right.png,,p,left,60e4c09a4b30f16f5a1053e7,2021-10-27_11h09.29.555,arrow_simon_punish,2021.1.2,Win32,20.02162335,,,,,,,,,,,,,,p,1,1.9186,1.95436092,1,5,1,3,7,0,1,,,,,,,,,,,,,,
,,,,,,,,,,,left.png,,w,right,60e4c09a4b30f16f5a1053e7,2021-10-27_11h09.29.555,arrow_simon_punish,2021.1.2,Win32,20.02162335,,,,,,,,,,,,,,w,1,1.8385,1.964716816,1,5,2,0,8,3,1,,,,,,,,,,,,,,
,,,,,,,,,,,right.png,,p,left,60e4c09a4b30f16f5a1053e7,2021-10-27_11h09.29.555,arrow_simon_punish,2021.1.2,Win32,20.02162335,,,,,,,,,,,,,,w,0,2.0467,2.299800074,1,5,2,1,9,0,1,,,,,,,,,,,,,,
,,,,,,,,,,,left.png,,w,right,60e4c09a4b30f16f5a1053e7,2021-10-27_11h09.29.555,arrow_simon_punish,2021.1.2,Win32,20.02162335,,,,,,,,,,,,,,p,0,1.6152,2.083957343,1,5,2,2,10,3,1,,,,,,,,,,,,,,
,,,,,,,,,,,right.png,,p,right,60e4c09a4b30f16f5a1053e7,2021-10-27_11h09.29.555,arrow_simon_punish,2021.1.2,Win32,20.02162335,,,,,,,,,,,,,,p,1,1.7392,1.952385232,1,5,2,3,11,1,1,,,,,,,,,,,,,,
,,,,,,,,,,,right.png,,p,left,60e4c09a4b30f16f5a1053e7,2021-10-27_11h09.29.555,arrow_simon_punish,2021.1.2,Win32,20.02162335,,,,,,,,,,,,,,p,1,2.2282,2.4750422,1,5,3,0,12,0,1,,,,,,,,,,,,,,
,,,,,,,,,,,right.png,,p,left,60e4c09a4b30f16f5a1053e7,2021-10-27_11h09.29.555,arrow_simon_punish,2021.1.2,Win32,20.02162335,,,,,,,,,,,,,,w,0,1.8596,2.2671196,1,5,3,1,13,0,1,,,,,,,,,,,,,,
,,,,,,,,,,,right.png,,p,left,60e4c09a4b30f16f5a1053e7,2021-10-27_11h09.29.555,arrow_simon_punish,2021.1.2,Win32,20.02162335,,,,,,,,,,,,,,p,1,1.5762,1.827714693,0,5,3,2,14,0,1,,,,,,,,,,,,,,
,,,,,,,,,,,right.png,,p,right,60e4c09a4b30f16f5a1053e7,2021-10-27_11h09.29.555,arrow_simon_punish,2021.1.2,Win32,20.02162335,,,,,,,,,,,,,,p,1,1.0345,1.537743334,1,5,3,3,15,1,1,,,,,,,,,,,,,,
,,,,,,,,,,,right.png,,p,left,60e4c09a4b30f16f5a1053e7,2021-10-27_11h09.29.555,arrow_simon_punish,2021.1.2,Win32,20.02162335,,,,,,,,,,,,,,p,1,1.4889,1.731154948,0,5,4,0,16,0,1,,,,,,,,,,,,,,
,,,,,,,,,,,right.png,,p,right,60e4c09a4b30f16f5a1053e7,2021-10-27_11h09.29.555,arrow_simon_punish,2021.1.2,Win32,20.02162335,,,,,,,,,,,,,,p,1,1.7477,2.239589918,1,5,4,1,17,1,1,,,,,,,,,,,,,,
,,,,,,,,,,,left.png,,w,right,60e4c09a4b30f16f5a1053e7,2021-10-27_11h09.29.555,arrow_simon_punish,2021.1.2,Win32,20.02162335,,,,,,,,,,,,,,w,1,1.4645,1.621329817,0,5,4,2,18,3,1,,,,,,,,,,,,,,
,,,,,,,,,,,left.png,,w,left,60e4c09a4b30f16f5a1053e7,2021-10-27_11h09.29.555,arrow_simon_punish,2021.1.2,Win32,20.02162335,,,,,,,,,,,,,,w,1,1.7949,2.217831538,1,5,4,3,19,2,1,,,,,,,,,,,,,,
,,,,,,,,,,,left.png,,w,left,60e4c09a4b30f16f5a1053e7,2021-10-27_11h09.29.555,arrow_simon_punish,2021.1.2,Win32,20.02162335,,,,,,,,,,,,,,w,1,1.4777,1.970006921,0,5,5,0,20,2,1,,,,,,,,,,,,,,
,,,,,,,,,,,right.png,,p,left,60e4c09a4b30f16f5a1053e7,2021-10-27_11h09.29.555,arrow_simon_punish,2021.1.2,Win32,20.02162335,,,,,,,,,,,,,,p,1,2.1621,2.409072294,1,5,5,1,21,0,1,,,,,,,,,,,,,,
,,,,,,,,,,,left.png,,w,left,60e4c09a4b30f16f5a1053e7,2021-10-27_11h09.29.555,arrow_simon_punish,2021.1.2,Win32,20.02162335,,,,,,,,,,,,,,w,1,1.9775,2.45649011,1,5,5,2,22,2,1,,,,,,,,,,,,,,
,,,,,,,,,,,left.png,,w,left,60e4c09a4b30f16f5a1053e7,2021-10-27_11h09.29.555,arrow_simon_punish,2021.1.2,Win32,20.02162335,,,,,,,,,,,,,,w,1,1.0877,1.617203436,1,5,5,3,23,2,1,,,,,,,,,,,,,,
,,,,,,,,,,,left.png,,w,left,60e4c09a4b30f16f5a1053e7,2021-10-27_11h09.29.555,arrow_simon_punish,2021.1.2,Win32,20.02162335,,,,,,,,,,,,,,w,1,1.4797,1.930066846,0,5,6,0,24,2,1,,,,,,,,,,,,,,
,,,,,,,,,,,left.png,,w,right,60e4c09a4b30f16f5a1053e7,2021-10-27_11h09.29.555,arrow_simon_punish,2021.1.2,Win32,20.02162335,,,,,,,,,,,,,,w,1,1.5736,1.517012388,0,5,6,1,25,3,1,,,,,,,,,,,,,,
,,,,,,,,,,,right.png,,p,right,60e4c09a4b30f16f5a1053e7,2021-10-27_11h09.29.555,arrow_simon_punish,2021.1.2,Win32,20.02162335,,,,,,,,,,,,,,p,1,1.1792,1.576462346,1,5,6,2,26,1,1,,,,,,,,,,,,,,
,,,,,,,,,,,left.png,,w,right,60e4c09a4b30f16f5a1053e7,2021-10-27_11h09.29.555,arrow_simon_punish,2021.1.2,Win32,20.02162335,,,,,,,,,,,,,,p,0,1.4048,1.593305108,1,5,6,3,27,3,1,,,,,,,,,,,,,,
,,,,,,,,,,,right.png,,p,left,60e4c09a4b30f16f5a1053e7,2021-10-27_11h09.29.555,arrow_simon_punish,2021.1.2,Win32,20.02162335,,,,,,,,,,,,,,p,1,2.2084,1.93405787,1,5,7,0,28,0,1,,,,,,,,,,,,,,
,,,,,,,,,,,left.png,,w,left,60e4c09a4b30f16f5a1053e7,2021-10-27_11h09.29.555,arrow_simon_punish,2021.1.2,Win32,20.02162335,,,,,,,,,,,,,,w,1,1.5773,1.877294605,0,5,7,1,29,2,1,,,,,,,,,,,,,,
,,,,,,,,,,,left.png,,w,right,60e4c09a4b30f16f5a1053e7,2021-10-27_11h09.29.555,arrow_simon_punish,2021.1.2,Win32,20.02162335,,,,,,,,,,,,,,w,1,2.1745,2.425697112,1,5,7,2,30,3,1,,,,,,,,,,,,,,
,,,,,,,,,,,right.png,,p,right,60e4c09a4b30f16f5a1053e7,2021-10-27_11h09.29.555,arrow_simon_punish,2021.1.2,Win32,20.02162335,,,,,,,,,,,,,,w,0,2.0203,2.308518576,1,5,7,3,31,1,1,,,,,,,,,,,,,,
,,,,,,,,,,,right.png,,p,right,60e4c09a4b30f16f5a1053e7,2021-10-27_11h09.29.555,arrow_simon_punish,2021.1.2,Win32,20.02162335,,,,,,,,,,,,,,p,1,2.4485,2.389120966,1,5,8,0,32,1,1,,,,,,,,,,,,,,
,,,,,,,,,,,left.png,,w,left,60e4c09a4b30f16f5a1053e7,2021-10-27_11h09.29.555,arrow_simon_punish,2021.1.2,Win32,20.02162335,,,,,,,,,,,,,,w,1,1.2638,1.568098565,1,5,8,1,33,2,1,,,,,,,,,,,,,,
,,,,,,,,,,,left.png,,w,right,60e4c09a4b30f16f5a1053e7,2021-10-27_11h09.29.555,arrow_simon_punish,2021.1.2,Win32,20.02162335,,,,,,,,,,,,,,w,1,2.0066,2.178520325,1,5,8,2,34,3,1,,,,,,,,,,,,,,
,,,,,,,,,,,right.png,,p,right,60e4c09a4b30f16f5a1053e7,2021-10-27_11h09.29.555,arrow_simon_punish,2021.1.2,Win32,20.02162335,,,,,,,,,,,,,,p,1,1.8588,2.284822586,1,5,8,3,35,1,1,,,,,,,,,,,,,,
,,,,,,,,,,,right.png,,p,right,60e4c09a4b30f16f5a1053e7,2021-10-27_11h09.29.555,arrow_simon_punish,2021.1.2,Win32,20.02162335,,,,,,,,,,,,,,p,1,1.7104,2.191297809,1,5,9,0,36,1,1,,,,,,,,,,,,,,
,,,,,,,,,,,left.png,,w,right,60e4c09a4b30f16f5a1053e7,2021-10-27_11h09.29.555,arrow_simon_punish,2021.1.2,Win32,20.02162335,,,,,,,,,,,,,,p,0,1.8877,2.453560835,1,5,9,1,37,3,1,,,,,,,,,,,,,,
,,,,,,,,,,,right.png,,p,right,60e4c09a4b30f16f5a1053e7,2021-10-27_11h09.29.555,arrow_simon_punish,2021.1.2,Win32,20.02162335,,,,,,,,,,,,,,p,1,1.5627,1.96705801,0,5,9,2,38,1,1,,,,,,,,,,,,,,
,,,,,,,,,,,left.png,,w,right,60e4c09a4b30f16f5a1053e7,2021-10-27_11h09.29.555,arrow_simon_punish,2021.1.2,Win32,20.02162335,,,,,,,,,,,,,,w,1,1.7615,2.041817322,1,5,9,3,39,3,1,,,,,,,,,,,,,,
,,,,,,,,,,,left.png,,w,right,60e4c09a4b30f16f5a1053e7,2021-10-27_11h09.29.555,arrow_simon_punish,2021.1.2,Win32,20.02162335,,,,,,,,,,,,,,p,0,1.8397,1.685705205,1,5,10,0,40,3,1,,,,,,,,,,,,,,
,,,,,,,,,,,left.png,,w,left,60e4c09a4b30f16f5a1053e7,2021-10-27_11h09.29.555,arrow_simon_punish,2021.1.2,Win32,20.02162335,,,,,,,,,,,,,,w,1,2.0268,2.304232232,1,5,10,1,41,2,1,,,,,,,,,,,,,,
,,,,,,,,,,,right.png,,p,right,60e4c09a4b30f16f5a1053e7,2021-10-27_11h09.29.555,arrow_simon_punish,2021.1.2,Win32,20.02162335,,,,,,,,,,,,,,p,1,1.9149,2.389961597,1,5,10,2,42,1,1,,,,,,,,,,,,,,
,,,,,,,,,,,left.png,,w,left,60e4c09a4b30f16f5a1053e7,2021-10-27_11h09.29.555,arrow_simon_punish,2021.1.2,Win32,20.02162335,,,,,,,,,,,,,,w,1,1.4773,1.955063382,0,5,10,3,43,2,1,,,,,,,,,,,,,,
,,,,,,,,,,,right.png,,p,right,60e4c09a4b30f16f5a1053e7,2021-10-27_11h09.29.555,arrow_simon_punish,2021.1.2,Win32,20.02162335,,,,,,,,,,,,,,p,1,1.8876,2.149452891,1,5,11,0,44,1,1,,,,,,,,,,,,,,
,,,,,,,,,,,left.png,,w,left,60e4c09a4b30f16f5a1053e7,2021-10-27_11h09.29.555,arrow_simon_punish,2021.1.2,Win32,20.02162335,,,,,,,,,,,,,,w,1,1.5297,1.933785699,0,5,11,1,45,2,1,,,,,,,,,,,,,,
,,,,,,,,,,,right.png,,p,right,60e4c09a4b30f16f5a1053e7,2021-10-27_11h09.29.555,arrow_simon_punish,2021.1.2,Win32,20.02162335,,,,,,,,,,,,,,p,1,1.7819,2.235760666,1,5,11,2,46,1,1,,,,,,,,,,,,,,
,,,,,,,,,,,left.png,,w,right,60e4c09a4b30f16f5a1053e7,2021-10-27_11h09.29.555,arrow_simon_punish,2021.1.2,Win32,20.02162335,,,,,,,,,,,,,,p,0,1.2463,1.739977732,1,5,11,3,47,3,1,,,,,,,,,,,,,,
,,,,,,,,,,,right.png,,p,left,60e4c09a4b30f16f5a1053e7,2021-10-27_11h09.29.555,arrow_simon_punish,2021.1.2,Win32,20.02162335,,,,,,,,,,,,,,p,1,1.386,1.830519507,1,5,12,0,48,0,1,,,,,,,,,,,,,,
,,,,,,,,,,,left.png,,w,right,60e4c09a4b30f16f5a1053e7,2021-10-27_11h09.29.555,arrow_simon_punish,2021.1.2,Win32,20.02162335,,,,,,,,,,,,,,w,1,2.0121,2.37430509,1,5,12,1,49,3,1,,,,,,,,,,,,,,
,,,,,,,,,,,right.png,,p,left,60e4c09a4b30f16f5a1053e7,2021-10-27_11h09.29.555,arrow_simon_punish,2021.1.2,Win32,20.02162335,,,,,,,,,,,,,,p,1,1.5185,1.882922001,0,5,12,2,50,0,1,,,,,,,,,,,,,,
,,,,,,,,,,,right.png,,p,right,60e4c09a4b30f16f5a1053e7,2021-10-27_11h09.29.555,arrow_simon_punish,2021.1.2,Win32,20.02162335,,,,,,,,,,,,,,w,0,1.4831,1.832439202,1,5,12,3,51,1,1,,,,,,,,,,,,,,
,,,,,,,,,,,right.png,,p,right,60e4c09a4b30f16f5a1053e7,2021-10-27_11h09.29.555,arrow_simon_punish,2021.1.2,Win32,20.02162335,,,,,,,,,,,,,,p,1,1.2937,1.735939906,1,5,13,0,52,1,1,,,,,,,,,,,,,,
,,,,,,,,,,,right.png,,p,left,60e4c09a4b30f16f5a1053e7,2021-10-27_11h09.29.555,arrow_simon_punish,2021.1.2,Win32,20.02162335,,,,,,,,,,,,,,w,0,1.8325,2.172451392,1,5,13,1,53,0,1,,,,,,,,,,,,,,
,,,,,,,,,,,right.png,,p,left,60e4c09a4b30f16f5a1053e7,2021-10-27_11h09.29.555,arrow_simon_punish,2021.1.2,Win32,20.02162335,,,,,,,,,,,,,,p,1,1.6868,2.075336277,1,5,13,2,54,0,1,,,,,,,,,,,,,,
,,,,,,,,,,,left.png,,w,left,60e4c09a4b30f16f5a1053e7,2021-10-27_11h09.29.555,arrow_simon_punish,2021.1.2,Win32,20.02162335,,,,,,,,,,,,,,w,1,1.5468,1.848889673,0,5,13,3,55,2,1,,,,,,,,,,,,,,
,,,,,,,,,,,right.png,,p,left,60e4c09a4b30f16f5a1053e7,2021-10-27_11h09.29.555,arrow_simon_punish,2021.1.2,Win32,20.02162335,,,,,,,,,,,,,,w,0,1.2772,1.722309102,1,5,14,0,56,0,1,,,,,,,,,,,,,,
,,,,,,,,,,,left.png,,w,right,60e4c09a4b30f16f5a1053e7,2021-10-27_11h09.29.555,arrow_simon_punish,2021.1.2,Win32,20.02162335,,,,,,,,,,,,,,w,1,2.0429,2.344185205,1,5,14,1,57,3,1,,,,,,,,,,,,,,
,,,,,,,,,,,right.png,,p,right,60e4c09a4b30f16f5a1053e7,2021-10-27_11h09.29.555,arrow_simon_punish,2021.1.2,Win32,20.02162335,,,,,,,,,,,,,,p,1,1.2189,1.668217615,1,5,14,2,58,1,1,,,,,,,,,,,,,,
,,,,,,,,,,,left.png,,w,right,60e4c09a4b30f16f5a1053e7,2021-10-27_11h09.29.555,arrow_simon_punish,2021.1.2,Win32,20.02162335,,,,,,,,,,,,,,w,1,1.7978,2.044817738,1,5,14,3,59,3,1,,,,,,,,,,,,,,
,,,,,,,,,,,,,,,60e4c09a4b30f16f5a1053e7,2021-10-27_11h09.29.555,arrow_simon_punish,2021.1.2,Win32,20.02162335,,,,,,,,,,,,,,,,,,,,,,,,,space,83.0693,5,1,1,3,1,1,5,,,,,
,,,,,,,,,,,left.png,,w,left,60e4c09a4b30f16f5a1053e7,2021-10-27_11h09.29.555,arrow_simon_punish,2021.1.2,Win32,20.02162335,,,,,,,,,,,,,,w,1,1.6987,1.703458338,1,1,0,0,0,2,1,,,,,,,,,,,,,,
,,,,,,,,,,,right.png,,p,right,60e4c09a4b30f16f5a1053e7,2021-10-27_11h09.29.555,arrow_simon_punish,2021.1.2,Win32,20.02162335,,,,,,,,,,,,,,p,1,1.8988,2.476811656,1,1,0,1,1,1,1,,,,,,,,,,,,,,
,,,,,,,,,,,right.png,,p,right,60e4c09a4b30f16f5a1053e7,2021-10-27_11h09.29.555,arrow_simon_punish,2021.1.2,Win32,20.02162335,,,,,,,,,,,,,,p,1,1.448,1.996578847,0,1,0,2,2,1,1,,,,,,,,,,,,,,
,,,,,,,,,,,left.png,,w,left,60e4c09a4b30f16f5a1053e7,2021-10-27_11h09.29.555,arrow_simon_punish,2021.1.2,Win32,20.02162335,,,,,,,,,,,,,,w,1,1.2257,1.652512574,1,1,0,3,3,2,1,,,,,,,,,,,,,,
,,,,,,,,,,,left.png,,w,left,60e4c09a4b30f16f5a1053e7,2021-10-27_11h09.29.555,arrow_simon_punish,2021.1.2,Win32,20.02162335,,,,,,,,,,,,,,w,1,1.0563,1.538986828,1,1,1,0,4,2,1,,,,,,,,,,,,,,
,,,,,,,,,,,left.png,,w,left,60e4c09a4b30f16f5a1053e7,2021-10-27_11h09.29.555,arrow_simon_punish,2021.1.2,Win32,20.02162335,,,,,,,,,,,,,,w,1,1.7618,2.214367917,1,1,1,1,5,2,1,,,,,,,,,,,,,,
,,,,,,,,,,,right.png,,p,right,60e4c09a4b30f16f5a1053e7,2021-10-27_11h09.29.555,arrow_simon_punish,2021.1.2,Win32,20.02162335,,,,,,,,,,,,,,p,1,1.4236,1.987799584,0,1,1,2,6,1,1,,,,,,,,,,,,,,
,,,,,,,,,,,right.png,,p,left,60e4c09a4b30f16f5a1053e7,2021-10-27_11h09.29.555,arrow_simon_punish,2021.1.2,Win32,20.02162335,,,,,,,,,,,,,,w,0,1.6309,2.139343321,1,1,1,3,7,0,1,,,,,,,,,,,,,,
,,,,,,,,,,,right.png,,p,right,60e4c09a4b30f16f5a1053e7,2021-10-27_11h09.29.555,arrow_simon_punish,2021.1.2,Win32,20.02162335,,,,,,,,,,,,,,p,1,1.274,1.777116344,1,1,2,0,8,1,1,,,,,,,,,,,,,,
,,,,,,,,,,,right.png,,p,right,60e4c09a4b30f16f5a1053e7,2021-10-27_11h09.29.555,arrow_simon_punish,2021.1.2,Win32,20.02162335,,,,,,,,,,,,,,p,1,1.0802,1.519004046,1,1,2,1,9,1,1,,,,,,,,,,,,,,
,,,,,,,,,,,right.png,,p,right,60e4c09a4b30f16f5a1053e7,2021-10-27_11h09.29.555,arrow_simon_punish,2021.1.2,Win32,20.02162335,,,,,,,,,,,,,,p,1,1.2907,1.604791499,1,1,2,2,10,1,1,,,,,,,,,,,,,,
,,,,,,,,,,,left.png,,w,left,60e4c09a4b30f16f5a1053e7,2021-10-27_11h09.29.555,arrow_simon_punish,2021.1.2,Win32,20.02162335,,,,,,,,,,,,,,w,1,1.608,2.147245779,1,1,2,3,11,2,1,,,,,,,,,,,,,,
,,,,,,,,,,,left.png,,w,right,60e4c09a4b30f16f5a1053e7,2021-10-27_11h09.29.555,arrow_simon_punish,2021.1.2,Win32,20.02162335,,,,,,,,,,,,,,w,1,2.0986,2.216749296,1,1,3,0,12,3,1,,,,,,,,,,,,,,
,,,,,,,,,,,left.png,,w,left,60e4c09a4b30f16f5a1053e7,2021-10-27_11h09.29.555,arrow_simon_punish,2021.1.2,Win32,20.02162335,,,,,,,,,,,,,,w,1,1.388,1.887861103,1,1,3,1,13,2,1,,,,,,,,,,,,,,
,,,,,,,,,,,right.png,,p,left,60e4c09a4b30f16f5a1053e7,2021-10-27_11h09.29.555,arrow_simon_punish,2021.1.2,Win32,20.02162335,,,,,,,,,,,,,,p,1,1.7231,2.093552825,1,1,3,2,14,0,1,,,,,,,,,,,,,,
,,,,,,,,,,,left.png,,w,right,60e4c09a4b30f16f5a1053e7,2021-10-27_11h09.29.555,arrow_simon_punish,2021.1.2,Win32,20.02162335,,,,,,,,,,,,,,p,0,2.0503,2.061149019,1,1,3,3,15,3,1,,,,,,,,,,,,,,
,,,,,,,,,,,right.png,,p,left,60e4c09a4b30f16f5a1053e7,2021-10-27_11h09.29.555,arrow_simon_punish,2021.1.2,Win32,20.02162335,,,,,,,,,,,,,,p,1,1.5274,1.844701689,0,1,4,0,16,0,1,,,,,,,,,,,,,,
,,,,,,,,,,,right.png,,p,right,60e4c09a4b30f16f5a1053e7,2021-10-27_11h09.29.555,arrow_simon_punish,2021.1.2,Win32,20.02162335,,,,,,,,,,,,,,p,1,2.1873,2.449780431,1,1,4,1,17,1,1,,,,,,,,,,,,,,
,,,,,,,,,,,right.png,,p,left,60e4c09a4b30f16f5a1053e7,2021-10-27_11h09.29.555,arrow_simon_punish,2021.1.2,Win32,20.02162335,,,,,,,,,,,,,,p,1,1.511,1.843654678,0,1,4,2,18,0,1,,,,,,,,,,,,,,
,,,,,,,,,,,right.png,,p,left,60e4c09a4b30f16f5a1053e7,2021-10-27_11h09.29.555,arrow_simon_punish,2021.1.2,Win32,20.02162335,,,,,,,,,,,,,,p,1,1.7018,2.019451733,1,1,4,3,19,0,1,,,,,,,,,,,,,,
,,,,,,,,,,,left.png,,w,left,60e4c09a4b30f16f5a1053e7,2021-10-27_11h09.29.555,arrow_simon_punish,2021.1.2,Win32,20.02162335,,,,,,,,,,,,,,w,1,1.5206,1.912756154,0,1,5,0,20,2,1,,,,,,,,,,,,,,
,,,,,,,,,,,right.png,,p,left,60e4c09a4b30f16f5a1053e7,2021-10-27_11h09.29.555,arrow_simon_punish,2021.1.2,Win32,20.02162335,,,,,,,,,,,,,,p,1,1.864,2.151101193,1,1,5,1,21,0,1,,,,,,,,,,,,,,
,,,,,,,,,,,left.png,,w,right,60e4c09a4b30f16f5a1053e7,2021-10-27_11h09.29.555,arrow_simon_punish,2021.1.2,Win32,20.02162335,,,,,,,,,,,,,,w,1,1.1659,1.532575728,1,1,5,2,22,3,1,,,,,,,,,,,,,,
,,,,,,,,,,,left.png,,w,left,60e4c09a4b30f16f5a1053e7,2021-10-27_11h09.29.555,arrow_simon_punish,2021.1.2,Win32,20.02162335,,,,,,,,,,,,,,w,1,2.0052,2.375980807,1,1,5,3,23,2,1,,,,,,,,,,,,,,
,,,,,,,,,,,right.png,,p,right,60e4c09a4b30f16f5a1053e7,2021-10-27_11h09.29.555,arrow_simon_punish,2021.1.2,Win32,20.02162335,,,,,,,,,,,,,,p,1,1.4255,1.800075047,0,1,6,0,24,1,1,,,,,,,,,,,,,,
,,,,,,,,,,,left.png,,w,right,60e4c09a4b30f16f5a1053e7,2021-10-27_11h09.29.555,arrow_simon_punish,2021.1.2,Win32,20.02162335,,,,,,,,,,,,,,w,1,1.4869,1.731292207,0,1,6,1,25,3,1,,,,,,,,,,,,,,
,,,,,,,,,,,right.png,,p,right,60e4c09a4b30f16f5a1053e7,2021-10-27_11h09.29.555,arrow_simon_punish,2021.1.2,Win32,20.02162335,,,,,,,,,,,,,,p,1,1.4217,1.82332443,0,1,6,2,26,1,1,,,,,,,,,,,,,,
,,,,,,,,,,,right.png,,p,right,60e4c09a4b30f16f5a1053e7,2021-10-27_11h09.29.555,arrow_simon_punish,2021.1.2,Win32,20.02162335,,,,,,,,,,,,,,p,1,2.4262,2.18121728,1,1,6,3,27,1,1,,,,,,,,,,,,,,
,,,,,,,,,,,left.png,,w,right,60e4c09a4b30f16f5a1053e7,2021-10-27_11h09.29.555,arrow_simon_punish,2021.1.2,Win32,20.02162335,,,,,,,,,,,,,,p,0,1.4032,1.872034553,1,1,7,0,28,3,1,,,,,,,,,,,,,,
,,,,,,,,,,,left.png,,w,right,60e4c09a4b30f16f5a1053e7,2021-10-27_11h09.29.555,arrow_simon_punish,2021.1.2,Win32,20.02162335,,,,,,,,,,,,,,p,0,1.6564,2.023320203,1,1,7,1,29,3,1,,,,,,,,,,,,,,
,,,,,,,,,,,left.png,,w,right,60e4c09a4b30f16f5a1053e7,2021-10-27_11h09.29.555,arrow_simon_punish,2021.1.2,Win32,20.02162335,,,,,,,,,,,,,,w,1,1.8217,2.186061934,1,1,7,2,30,3,1,,,,,,,,,,,,,,
,,,,,,,,,,,right.png,,p,right,60e4c09a4b30f16f5a1053e7,2021-10-27_11h09.29.555,arrow_simon_punish,2021.1.2,Win32,20.02162335,,,,,,,,,,,,,,p,1,1.9573,2.389550001,1,1,7,3,31,1,1,,,,,,,,,,,,,,
,,,,,,,,,,,right.png,,p,right,60e4c09a4b30f16f5a1053e7,2021-10-27_11h09.29.555,arrow_simon_punish,2021.1.2,Win32,20.02162335,,,,,,,,,,,,,,p,1,1.0839,1.504030421,1,1,8,0,32,1,1,,,,,,,,,,,,,,
,,,,,,,,,,,left.png,,w,left,60e4c09a4b30f16f5a1053e7,2021-10-27_11h09.29.555,arrow_simon_punish,2021.1.2,Win32,20.02162335,,,,,,,,,,,,,,w,1,1.2553,1.61929611,1,1,8,1,33,2,1,,,,,,,,,,,,,,
,,,,,,,,,,,left.png,,w,left,60e4c09a4b30f16f5a1053e7,2021-10-27_11h09.29.555,arrow_simon_punish,2021.1.2,Win32,20.02162335,,,,,,,,,,,,,,w,1,1.4597,1.958597952,0,1,8,2,34,2,1,,,,,,,,,,,,,,
,,,,,,,,,,,left.png,,w,right,60e4c09a4b30f16f5a1053e7,2021-10-27_11h09.29.555,arrow_simon_punish,2021.1.2,Win32,20.02162335,,,,,,,,,,,,,,w,1,1.4385,1.696961975,0,1,8,3,35,3,1,,,,,,,,,,,,,,
,,,,,,,,,,,left.png,,w,right,60e4c09a4b30f16f5a1053e7,2021-10-27_11h09.29.555,arrow_simon_punish,2021.1.2,Win32,20.02162335,,,,,,,,,,,,,,w,1,1.6782,2.025206172,1,1,9,0,36,3,1,,,,,,,,,,,,,,
,,,,,,,,,,,right.png,,p,left,60e4c09a4b30f16f5a1053e7,2021-10-27_11h09.29.555,arrow_simon_punish,2021.1.2,Win32,20.02162335,,,,,,,,,,,,,,p,1,1.411,1.790290084,0,1,9,1,37,0,1,,,,,,,,,,,,,,
,,,,,,,,,,,right.png,,p,left,60e4c09a4b30f16f5a1053e7,2021-10-27_11h09.29.555,arrow_simon_punish,2021.1.2,Win32,20.02162335,,,,,,,,,,,,,,p,1,1.3038,1.617741825,1,1,9,2,38,0,1,,,,,,,,,,,,,,
,,,,,,,,,,,left.png,,w,left,60e4c09a4b30f16f5a1053e7,2021-10-27_11h09.29.555,arrow_simon_punish,2021.1.2,Win32,20.02162335,,,,,,,,,,,,,,w,1,1.4254,1.635752584,0,1,9,3,39,2,1,,,,,,,,,,,,,,
,,,,,,,,,,,right.png,,p,right,60e4c09a4b30f16f5a1053e7,2021-10-27_11h09.29.555,arrow_simon_punish,2021.1.2,Win32,20.02162335,,,,,,,,,,,,,,p,1,2.6402,1.751910604,1,1,10,0,40,1,1,,,,,,,,,,,,,,
,,,,,,,,,,,left.png,,w,left,60e4c09a4b30f16f5a1053e7,2021-10-27_11h09.29.555,arrow_simon_punish,2021.1.2,Win32,20.02162335,,,,,,,,,,,,,,w,1,2.2434,2.410288776,1,1,10,1,41,2,1,,,,,,,,,,,,,,
,,,,,,,,,,,right.png,,p,right,60e4c09a4b30f16f5a1053e7,2021-10-27_11h09.29.555,arrow_simon_punish,2021.1.2,Win32,20.02162335,,,,,,,,,,,,,,p,1,1.1672,1.541596172,1,1,10,2,42,1,1,,,,,,,,,,,,,,
,,,,,,,,,,,right.png,,p,left,60e4c09a4b30f16f5a1053e7,2021-10-27_11h09.29.555,arrow_simon_punish,2021.1.2,Win32,20.02162335,,,,,,,,,,,,,,p,1,1.284,1.694578376,1,1,10,3,43,0,1,,,,,,,,,,,,,,
,,,,,,,,,,,right.png,,p,right,60e4c09a4b30f16f5a1053e7,2021-10-27_11h09.29.555,arrow_simon_punish,2021.1.2,Win32,20.02162335,,,,,,,,,,,,,,p,1,1.6632,1.799744375,1,1,11,0,44,1,1,,,,,,,,,,,,,,
,,,,,,,,,,,left.png,,w,right,60e4c09a4b30f16f5a1053e7,2021-10-27_11h09.29.555,arrow_simon_punish,2021.1.2,Win32,20.02162335,,,,,,,,,,,,,,w,1,1.4714,1.74333589,0,1,11,1,45,3,1,,,,,,,,,,,,,,
,,,,,,,,,,,left.png,,w,right,60e4c09a4b30f16f5a1053e7,2021-10-27_11h09.29.555,arrow_simon_punish,2021.1.2,Win32,20.02162335,,,,,,,,,,,,,,w,1,2.2505,2.438140617,1,1,11,2,46,3,1,,,,,,,,,,,,,,
,,,,,,,,,,,right.png,,p,left,60e4c09a4b30f16f5a1053e7,2021-10-27_11h09.29.555,arrow_simon_punish,2021.1.2,Win32,20.02162335,,,,,,,,,,,,,,p,1,2.0582,2.356696196,1,1,11,3,47,0,1,,,,,,,,,,,,,,
,,,,,,,,,,,left.png,,w,right,60e4c09a4b30f16f5a1053e7,2021-10-27_11h09.29.555,arrow_simon_punish,2021.1.2,Win32,20.02162335,,,,,,,,,,,,,,w,1,1.8963,2.231355209,1,1,12,0,48,3,1,,,,,,,,,,,,,,
,,,,,,,,,,,left.png,,w,right,60e4c09a4b30f16f5a1053e7,2021-10-27_11h09.29.555,arrow_simon_punish,2021.1.2,Win32,20.02162335,,,,,,,,,,,,,,w,1,1.8076,1.850626108,1,1,12,1,49,3,1,,,,,,,,,,,,,,
,,,,,,,,,,,right.png,,p,left,60e4c09a4b30f16f5a1053e7,2021-10-27_11h09.29.555,arrow_simon_punish,2021.1.2,Win32,20.02162335,,,,,,,,,,,,,,p,1,1.4291,1.8454508,0,1,12,2,50,0,1,,,,,,,,,,,,,,
,,,,,,,,,,,left.png,,w,right,60e4c09a4b30f16f5a1053e7,2021-10-27_11h09.29.555,arrow_simon_punish,2021.1.2,Win32,20.02162335,,,,,,,,,,,,,,p,0,1.6782,2.081624787,1,1,12,3,51,3,1,,,,,,,,,,,,,,
,,,,,,,,,,,right.png,,p,left,60e4c09a4b30f16f5a1053e7,2021-10-27_11h09.29.555,arrow_simon_punish,2021.1.2,Win32,20.02162335,,,,,,,,,,,,,,p,1,1.404,1.686292695,0,1,13,0,52,0,1,,,,,,,,,,,,,,
,,,,,,,,,,,left.png,,w,left,60e4c09a4b30f16f5a1053e7,2021-10-27_11h09.29.555,arrow_simon_punish,2021.1.2,Win32,20.02162335,,,,,,,,,,,,,,w,1,2.1893,2.396364081,1,1,13,1,53,2,1,,,,,,,,,,,,,,
,,,,,,,,,,,left.png,,w,left,60e4c09a4b30f16f5a1053e7,2021-10-27_11h09.29.555,arrow_simon_punish,2021.1.2,Win32,20.02162335,,,,,,,,,,,,,,w,1,1.433,1.713431031,0,1,13,2,54,2,1,,,,,,,,,,,,,,
,,,,,,,,,,,right.png,,p,left,60e4c09a4b30f16f5a1053e7,2021-10-27_11h09.29.555,arrow_simon_punish,2021.1.2,Win32,20.02162335,,,,,,,,,,,,,,p,1,1.6754,2.088026317,1,1,13,3,55,0,1,,,,,,,,,,,,,,
,,,,,,,,,,,left.png,,w,left,60e4c09a4b30f16f5a1053e7,2021-10-27_11h09.29.555,arrow_simon_punish,2021.1.2,Win32,20.02162335,,,,,,,,,,,,,,w,1,1.9726,2.3173916,1,1,14,0,56,2,1,,,,,,,,,,,,,,
,,,,,,,,,,,right.png,,p,left,60e4c09a4b30f16f5a1053e7,2021-10-27_11h09.29.555,arrow_simon_punish,2021.1.2,Win32,20.02162335,,,,,,,,,,,,,,p,1,1.6232,1.907773831,1,1,14,1,57,0,1,,,,,,,,,,,,,,
,,,,,,,,,,,left.png,,w,right,60e4c09a4b30f16f5a1053e7,2021-10-27_11h09.29.555,arrow_simon_punish,2021.1.2,Win32,20.02162335,,,,,,,,,,,,,,w,1,1.8407,2.198377617,1,1,14,2,58,3,1,,,,,,,,,,,,,,
,,,,,,,,,,,right.png,,p,left,60e4c09a4b30f16f5a1053e7,2021-10-27_11h09.29.555,arrow_simon_punish,2021.1.2,Win32,20.02162335,,,,,,,,,,,,,,p,1,1.8739,2.141938968,1,1,14,3,59,0,1,,,,,,,,,,,,,,
,,,,,,,,,,,,,,,60e4c09a4b30f16f5a1053e7,2021-10-27_11h09.29.555,arrow_simon_punish,2021.1.2,Win32,20.02162335,,,,,,,,,,,,,,,,,,,,,,,,,space,38.1283,6,2,0,4,0,1,1,,,,,
,,,,,,,,,,,right.png,,p,left,60e4c09a4b30f16f5a1053e7,2021-10-27_11h09.29.555,arrow_simon_punish,2021.1.2,Win32,20.02162335,,,,,,,,,,,,,,p,1,1.5013,1.632281626,0,5,0,0,0,0,1,,,,,,,,,,,,,,
,,,,,,,,,,,left.png,,w,left,60e4c09a4b30f16f5a1053e7,2021-10-27_11h09.29.555,arrow_simon_punish,2021.1.2,Win32,20.02162335,,,,,,,,,,,,,,w,1,1.6745,1.910087317,1,5,0,1,1,2,1,,,,,,,,,,,,,,
,,,,,,,,,,,left.png,,w,right,60e4c09a4b30f16f5a1053e7,2021-10-27_11h09.29.555,arrow_simon_punish,2021.1.2,Win32,20.02162335,,,,,,,,,,,,,,w,1,1.512,1.64532352,0,5,0,2,2,3,1,,,,,,,,,,,,,,
,,,,,,,,,,,right.png,,p,left,60e4c09a4b30f16f5a1053e7,2021-10-27_11h09.29.555,arrow_simon_punish,2021.1.2,Win32,20.02162335,,,,,,,,,,,,,,p,1,1.6836,2.060399363,1,5,0,3,3,0,1,,,,,,,,,,,,,,
,,,,,,,,,,,right.png,,p,left,60e4c09a4b30f16f5a1053e7,2021-10-27_11h09.29.555,arrow_simon_punish,2021.1.2,Win32,20.02162335,,,,,,,,,,,,,,p,1,1.8118,2.294671703,1,5,1,0,4,0,1,,,,,,,,,,,,,,
,,,,,,,,,,,right.png,,p,right,60e4c09a4b30f16f5a1053e7,2021-10-27_11h09.29.555,arrow_simon_punish,2021.1.2,Win32,20.02162335,,,,,,,,,,,,,,p,1,1.3752,1.676385477,1,5,1,1,5,1,1,,,,,,,,,,,,,,
,,,,,,,,,,,right.png,,p,left,60e4c09a4b30f16f5a1053e7,2021-10-27_11h09.29.555,arrow_simon_punish,2021.1.2,Win32,20.02162335,,,,,,,,,,,,,,p,1,2.024,2.304068805,1,5,1,2,6,0,1,,,,,,,,,,,,,,
,,,,,,,,,,,left.png,,w,right,60e4c09a4b30f16f5a1053e7,2021-10-27_11h09.29.555,arrow_simon_punish,2021.1.2,Win32,20.02162335,,,,,,,,,,,,,,w,1,1.6178,1.959317232,1,5,1,3,7,3,1,,,,,,,,,,,,,,
,,,,,,,,,,,right.png,,p,left,60e4c09a4b30f16f5a1053e7,2021-10-27_11h09.29.555,arrow_simon_punish,2021.1.2,Win32,20.02162335,,,,,,,,,,,,,,p,1,2.024,2.439642116,1,5,2,0,8,0,1,,,,,,,,,,,,,,
,,,,,,,,,,,left.png,,w,left,60e4c09a4b30f16f5a1053e7,2021-10-27_11h09.29.555,arrow_simon_punish,2021.1.2,Win32,20.02162335,,,,,,,,,,,,,,w,1,1.4168,1.763680385,0,5,2,1,9,2,1,,,,,,,,,,,,,,
,,,,,,,,,,,left.png,,w,left,60e4c09a4b30f16f5a1053e7,2021-10-27_11h09.29.555,arrow_simon_punish,2021.1.2,Win32,20.02162335,,,,,,,,,,,,,,w,1,1.7038,1.904554002,1,5,2,2,10,2,1,,,,,,,,,,,,,,
,,,,,,,,,,,right.png,,p,left,60e4c09a4b30f16f5a1053e7,2021-10-27_11h09.29.555,arrow_simon_punish,2021.1.2,Win32,20.02162335,,,,,,,,,,,,,,p,1,1.382,1.663301604,1,5,2,3,11,0,1,,,,,,,,,,,,,,
,,,,,,,,,,,right.png,,p,left,60e4c09a4b30f16f5a1053e7,2021-10-27_11h09.29.555,arrow_simon_punish,2021.1.2,Win32,20.02162335,,,,,,,,,,,,,,p,1,2.6417,2.14158028,1,5,3,0,12,0,1,,,,,,,,,,,,,,
,,,,,,,,,,,left.png,,w,right,60e4c09a4b30f16f5a1053e7,2021-10-27_11h09.29.555,arrow_simon_punish,2021.1.2,Win32,20.02162335,,,,,,,,,,,,,,w,1,1.9941,2.336171224,1,5,3,1,13,3,1,,,,,,,,,,,,,,
,,,,,,,,,,,right.png,,p,right,60e4c09a4b30f16f5a1053e7,2021-10-27_11h09.29.555,arrow_simon_punish,2021.1.2,Win32,20.02162335,,,,,,,,,,,,,,p,1,1.8213,2.217003631,1,5,3,2,14,1,1,,,,,,,,,,,,,,
,,,,,,,,,,,left.png,,w,right,60e4c09a4b30f16f5a1053e7,2021-10-27_11h09.29.555,arrow_simon_punish,2021.1.2,Win32,20.02162335,,,,,,,,,,,,,,w,1,1.7638,1.814686192,1,5,3,3,15,3,1,,,,,,,,,,,,,,
,,,,,,,,,,,left.png,,w,right,60e4c09a4b30f16f5a1053e7,2021-10-27_11h09.29.555,arrow_simon_punish,2021.1.2,Win32,20.02162335,,,,,,,,,,,,,,w,1,1.4529,1.778258079,0,5,4,0,16,3,1,,,,,,,,,,,,,,
,,,,,,,,,,,right.png,,p,left,60e4c09a4b30f16f5a1053e7,2021-10-27_11h09.29.555,arrow_simon_punish,2021.1.2,Win32,20.02162335,,,,,,,,,,,,,,p,1,1.9827,2.278650703,1,5,4,1,17,0,1,,,,,,,,,,,,,,
,,,,,,,,,,,left.png,,w,right,60e4c09a4b30f16f5a1053e7,2021-10-27_11h09.29.555,arrow_simon_punish,2021.1.2,Win32,20.02162335,,,,,,,,,,,,,,w,1,1.3643,1.534027394,1,5,4,2,18,3,1,,,,,,,,,,,,,,
,,,,,,,,,,,left.png,,w,right,60e4c09a4b30f16f5a1053e7,2021-10-27_11h09.29.555,arrow_simon_punish,2021.1.2,Win32,20.02162335,,,,,,,,,,,,,,p,0,1.3373,1.628705595,1,5,4,3,19,3,1,,,,,,,,,,,,,,
,,,,,,,,,,,right.png,,p,right,60e4c09a4b30f16f5a1053e7,2021-10-27_11h09.29.555,arrow_simon_punish,2021.1.2,Win32,20.02162335,,,,,,,,,,,,,,p,1,1.6681,1.897071941,1,5,5,0,20,1,1,,,,,,,,,,,,,,
,,,,,,,,,,,right.png,,p,right,60e4c09a4b30f16f5a1053e7,2021-10-27_11h09.29.555,arrow_simon_punish,2021.1.2,Win32,20.02162335,,,,,,,,,,,,,,p,1,1.8272,2.221078049,1,5,5,1,21,1,1,,,,,,,,,,,,,,
,,,,,,,,,,,left.png,,w,left,60e4c09a4b30f16f5a1053e7,2021-10-27_11h09.29.555,arrow_simon_punish,2021.1.2,Win32,20.02162335,,,,,,,,,,,,,,w,1,1.2794,1.624439374,1,5,5,2,22,2,1,,,,,,,,,,,,,,
,,,,,,,,,,,right.png,,p,left,60e4c09a4b30f16f5a1053e7,2021-10-27_11h09.29.555,arrow_simon_punish,2021.1.2,Win32,20.02162335,,,,,,,,,,,,,,p,1,1.482,1.621403282,0,5,5,3,23,0,1,,,,,,,,,,,,,,
,,,,,,,,,,,left.png,,w,left,60e4c09a4b30f16f5a1053e7,2021-10-27_11h09.29.555,arrow_simon_punish,2021.1.2,Win32,20.02162335,,,,,,,,,,,,,,w,1,1.2689,1.661785188,1,5,6,0,24,2,1,,,,,,,,,,,,,,
,,,,,,,,,,,left.png,,w,left,60e4c09a4b30f16f5a1053e7,2021-10-27_11h09.29.555,arrow_simon_punish,2021.1.2,Win32,20.02162335,,,,,,,,,,,,,,w,1,1.5775,2.072719569,0,5,6,1,25,2,1,,,,,,,,,,,,,,
,,,,,,,,,,,left.png,,w,left,60e4c09a4b30f16f5a1053e7,2021-10-27_11h09.29.555,arrow_simon_punish,2021.1.2,Win32,20.02162335,,,,,,,,,,,,,,w,1,1.7454,2.23613033,1,5,6,2,26,2,1,,,,,,,,,,,,,,
,,,,,,,,,,,right.png,,p,left,60e4c09a4b30f16f5a1053e7,2021-10-27_11h09.29.555,arrow_simon_punish,2021.1.2,Win32,20.02162335,,,,,,,,,,,,,,p,1,2.1481,2.449548828,1,5,6,3,27,0,1,,,,,,,,,,,,,,
,,,,,,,,,,,left.png,,w,left,60e4c09a4b30f16f5a1053e7,2021-10-27_11h09.29.555,arrow_simon_punish,2021.1.2,Win32,20.02162335,,,,,,,,,,,,,,w,1,1.4185,1.837885649,0,5,7,0,28,2,1,,,,,,,,,,,,,,
,,,,,,,,,,,left.png,,w,right,60e4c09a4b30f16f5a1053e7,2021-10-27_11h09.29.555,arrow_simon_punish,2021.1.2,Win32,20.02162335,,,,,,,,,,,,,,w,1,1.9057,2.238465981,1,5,7,1,29,3,1,,,,,,,,,,,,,,
,,,,,,,,,,,left.png,,w,right,60e4c09a4b30f16f5a1053e7,2021-10-27_11h09.29.555,arrow_simon_punish,2021.1.2,Win32,20.02162335,,,,,,,,,,,,,,p,0,1.8396,1.829824368,1,5,7,2,30,3,1,,,,,,,,,,,,,,
,,,,,,,,,,,left.png,,w,left,60e4c09a4b30f16f5a1053e7,2021-10-27_11h09.29.555,arrow_simon_punish,2021.1.2,Win32,20.02162335,,,,,,,,,,,,,,p,0,2.3299,2.494305066,1,5,7,3,31,2,1,,,,,,,,,,,,,,
,,,,,,,,,,,left.png,,w,left,60e4c09a4b30f16f5a1053e7,2021-10-27_11h09.29.555,arrow_simon_punish,2021.1.2,Win32,20.02162335,,,,,,,,,,,,,,w,1,1.4931,1.76108135,0,5,8,0,32,2,1,,,,,,,,,,,,,,
,,,,,,,,,,,left.png,,w,right,60e4c09a4b30f16f5a1053e7,2021-10-27_11h09.29.555,arrow_simon_punish,2021.1.2,Win32,20.02162335,,,,,,,,,,,,,,w,1,2.7854,2.452926382,1,5,8,1,33,3,1,,,,,,,,,,,,,,
,,,,,,,,,,,right.png,,p,left,60e4c09a4b30f16f5a1053e7,2021-10-27_11h09.29.555,arrow_simon_punish,2021.1.2,Win32,20.02162335,,,,,,,,,,,,,,w,0,1.496,1.610573827,1,5,8,2,34,0,1,,,,,,,,,,,,,,
,,,,,,,,,,,left.png,,w,right,60e4c09a4b30f16f5a1053e7,2021-10-27_11h09.29.555,arrow_simon_punish,2021.1.2,Win32,20.02162335,,,,,,,,,,,,,,w,1,1.7713,1.873391939,1,5,8,3,35,3,1,,,,,,,,,,,,,,
,,,,,,,,,,,right.png,,p,right,60e4c09a4b30f16f5a1053e7,2021-10-27_11h09.29.555,arrow_simon_punish,2021.1.2,Win32,20.02162335,,,,,,,,,,,,,,p,1,1.3487,1.6889755,1,5,9,0,36,1,1,,,,,,,,,,,,,,
,,,,,,,,,,,left.png,,w,left,60e4c09a4b30f16f5a1053e7,2021-10-27_11h09.29.555,arrow_simon_punish,2021.1.2,Win32,20.02162335,,,,,,,,,,,,,,w,1,1.3905,1.818726985,1,5,9,1,37,2,1,,,,,,,,,,,,,,
,,,,,,,,,,,right.png,,p,right,60e4c09a4b30f16f5a1053e7,2021-10-27_11h09.29.555,arrow_simon_punish,2021.1.2,Win32,20.02162335,,,,,,,,,,,,,,p,1,2.2557,2.251118922,1,5,9,2,38,1,1,,,,,,,,,,,,,,
,,,,,,,,,,,right.png,,p,left,60e4c09a4b30f16f5a1053e7,2021-10-27_11h09.29.555,arrow_simon_punish,2021.1.2,Win32,20.02162335,,,,,,,,,,,,,,p,1,1.8646,2.049329086,1,5,9,3,39,0,1,,,,,,,,,,,,,,
,,,,,,,,,,,right.png,,p,right,60e4c09a4b30f16f5a1053e7,2021-10-27_11h09.29.555,arrow_simon_punish,2021.1.2,Win32,20.02162335,,,,,,,,,,,,,,p,1,1.2676,1.680113835,1,5,10,0,40,1,1,,,,,,,,,,,,,,
,,,,,,,,,,,right.png,,p,right,60e4c09a4b30f16f5a1053e7,2021-10-27_11h09.29.555,arrow_simon_punish,2021.1.2,Win32,20.02162335,,,,,,,,,,,,,,p,1,1.3369,1.841559049,1,5,10,1,41,1,1,,,,,,,,,,,,,,
,,,,,,,,,,,right.png,,p,right,60e4c09a4b30f16f5a1053e7,2021-10-27_11h09.29.555,arrow_simon_punish,2021.1.2,Win32,20.02162335,,,,,,,,,,,,,,p,1,1.8613,2.375446655,1,5,10,2,42,1,1,,,,,,,,,,,,,,
,,,,,,,,,,,right.png,,p,right,60e4c09a4b30f16f5a1053e7,2021-10-27_11h09.29.555,arrow_simon_punish,2021.1.2,Win32,20.02162335,,,,,,,,,,,,,,p,1,1.3242,1.802159644,1,5,10,3,43,1,1,,,,,,,,,,,,,,
,,,,,,,,,,,left.png,,w,right,60e4c09a4b30f16f5a1053e7,2021-10-27_11h09.29.555,arrow_simon_punish,2021.1.2,Win32,20.02162335,,,,,,,,,,,,,,w,1,1.9657,2.410554162,1,5,11,0,44,3,1,,,,,,,,,,,,,,
,,,,,,,,,,,right.png,,p,right,60e4c09a4b30f16f5a1053e7,2021-10-27_11h09.29.555,arrow_simon_punish,2021.1.2,Win32,20.02162335,,,,,,,,,,,,,,p,1,2.0297,2.357163259,1,5,11,1,45,1,1,,,,,,,,,,,,,,
,,,,,,,,,,,left.png,,w,right,60e4c09a4b30f16f5a1053e7,2021-10-27_11h09.29.555,arrow_simon_punish,2021.1.2,Win32,20.02162335,,,,,,,,,,,,,,w,1,1.5126,1.832614529,0,5,11,2,46,3,1,,,,,,,,,,,,,,
,,,,,,,,,,,right.png,,p,right,60e4c09a4b30f16f5a1053e7,2021-10-27_11h09.29.555,arrow_simon_punish,2021.1.2,Win32,20.02162335,,,,,,,,,,,,,,p,1,1.5968,1.791747345,0,5,11,3,47,1,1,,,,,,,,,,,,,,
,,,,,,,,,,,right.png,,p,left,60e4c09a4b30f16f5a1053e7,2021-10-27_11h09.29.555,arrow_simon_punish,2021.1.2,Win32,20.02162335,,,,,,,,,,,,,,p,1,1.6254,1.585500742,1,5,12,0,48,0,1,,,,,,,,,,,,,,
,,,,,,,,,,,left.png,,w,left,60e4c09a4b30f16f5a1053e7,2021-10-27_11h09.29.555,arrow_simon_punish,2021.1.2,Win32,20.02162335,,,,,,,,,,,,,,w,1,1.9649,2.372595141,1,5,12,1,49,2,1,,,,,,,,,,,,,,
,,,,,,,,,,,left.png,,w,right,60e4c09a4b30f16f5a1053e7,2021-10-27_11h09.29.555,arrow_simon_punish,2021.1.2,Win32,20.02162335,,,,,,,,,,,,,,p,0,1.3751,1.760811631,1,5,12,2,50,3,1,,,,,,,,,,,,,,
,,,,,,,,,,,left.png,,w,right,60e4c09a4b30f16f5a1053e7,2021-10-27_11h09.29.555,arrow_simon_punish,2021.1.2,Win32,20.02162335,,,,,,,,,,,,,,w,1,1.6636,2.073035977,1,5,12,3,51,3,1,,,,,,,,,,,,,,
,,,,,,,,,,,right.png,,p,left,60e4c09a4b30f16f5a1053e7,2021-10-27_11h09.29.555,arrow_simon_punish,2021.1.2,Win32,20.02162335,,,,,,,,,,,,,,p,1,1.8956,2.075494764,1,5,13,0,52,0,1,,,,,,,,,,,,,,
,,,,,,,,,,,right.png,,p,right,60e4c09a4b30f16f5a1053e7,2021-10-27_11h09.29.555,arrow_simon_punish,2021.1.2,Win32,20.02162335,,,,,,,,,,,,,,p,1,2.1102,2.418266692,1,5,13,1,53,1,1,,,,,,,,,,,,,,
,,,,,,,,,,,left.png,,w,left,60e4c09a4b30f16f5a1053e7,2021-10-27_11h09.29.555,arrow_simon_punish,2021.1.2,Win32,20.02162335,,,,,,,,,,,,,,w,1,1.9528,2.443818916,1,5,13,2,54,2,1,,,,,,,,,,,,,,
,,,,,,,,,,,right.png,,p,right,60e4c09a4b30f16f5a1053e7,2021-10-27_11h09.29.555,arrow_simon_punish,2021.1.2,Win32,20.02162335,,,,,,,,,,,,,,p,1,1.2211,1.665000352,1,5,13,3,55,1,1,,,,,,,,,,,,,,
,,,,,,,,,,,left.png,,w,left,60e4c09a4b30f16f5a1053e7,2021-10-27_11h09.29.555,arrow_simon_punish,2021.1.2,Win32,20.02162335,,,,,,,,,,,,,,w,1,1.6403,2.063450505,1,5,14,0,56,2,1,,,,,,,,,,,,,,
,,,,,,,,,,,right.png,,p,right,60e4c09a4b30f16f5a1053e7,2021-10-27_11h09.29.555,arrow_simon_punish,2021.1.2,Win32,20.02162335,,,,,,,,,,,,,,p,1,2.4284,1.941611922,1,5,14,1,57,1,1,,,,,,,,,,,,,,
,,,,,,,,,,,left.png,,w,left,60e4c09a4b30f16f5a1053e7,2021-10-27_11h09.29.555,arrow_simon_punish,2021.1.2,Win32,20.02162335,,,,,,,,,,,,,,w,1,1.1607,1.528706102,1,5,14,2,58,2,1,,,,,,,,,,,,,,
,,,,,,,,,,,right.png,,p,left,60e4c09a4b30f16f5a1053e7,2021-10-27_11h09.29.555,arrow_simon_punish,2021.1.2,Win32,20.02162335,,,,,,,,,,,,,,w,0,2.1654,2.289233417,1,5,14,3,59,0,1,,,,,,,,,,,,,,
,,,,,,,,,,,,,,,60e4c09a4b30f16f5a1053e7,2021-10-27_11h09.29.555,arrow_simon_punish,2021.1.2,Win32,20.02162335,,,,,,,,,,,,,,,,,,,,,,,,,space,16.2927,7,2,1,5,1,1,5,,,,,
,,,,,,,,,,,right.png,,p,left,60e4c09a4b30f16f5a1053e7,2021-10-27_11h09.29.555,arrow_simon_punish,2021.1.2,Win32,20.02162335,,,,,,,,,,,,,,p,1,2.1774,2.339475003,1,1,0,0,0,0,1,,,,,,,,,,,,,,
,,,,,,,,,,,left.png,,w,right,60e4c09a4b30f16f5a1053e7,2021-10-27_11h09.29.555,arrow_simon_punish,2021.1.2,Win32,20.02162335,,,,,,,,,,,,,,w,1,1.2964,1.622282768,1,1,0,1,1,3,1,,,,,,,,,,,,,,
,,,,,,,,,,,right.png,,p,right,60e4c09a4b30f16f5a1053e7,2021-10-27_11h09.29.555,arrow_simon_punish,2021.1.2,Win32,20.02162335,,,,,,,,,,,,,,p,1,1.7496,2.252245949,1,1,0,2,2,1,1,,,,,,,,,,,,,,
,,,,,,,,,,,left.png,,w,right,60e4c09a4b30f16f5a1053e7,2021-10-27_11h09.29.555,arrow_simon_punish,2021.1.2,Win32,20.02162335,,,,,,,,,,,,,,w,1,1.394,1.771809139,1,1,0,3,3,3,1,,,,,,,,,,,,,,
,,,,,,,,,,,left.png,,w,left,60e4c09a4b30f16f5a1053e7,2021-10-27_11h09.29.555,arrow_simon_punish,2021.1.2,Win32,20.02162335,,,,,,,,,,,,,,w,1,1.3558,1.788848918,1,1,1,0,4,2,1,,,,,,,,,,,,,,
,,,,,,,,,,,right.png,,p,right,60e4c09a4b30f16f5a1053e7,2021-10-27_11h09.29.555,arrow_simon_punish,2021.1.2,Win32,20.02162335,,,,,,,,,,,,,,p,1,1.4963,1.978692661,0,1,1,1,5,1,1,,,,,,,,,,,,,,
,,,,,,,,,,,right.png,,p,left,60e4c09a4b30f16f5a1053e7,2021-10-27_11h09.29.555,arrow_simon_punish,2021.1.2,Win32,20.02162335,,,,,,,,,,,,,,w,0,2.0559,2.438938327,1,1,1,2,6,0,1,,,,,,,,,,,,,,
,,,,,,,,,,,right.png,,p,right,60e4c09a4b30f16f5a1053e7,2021-10-27_11h09.29.555,arrow_simon_punish,2021.1.2,Win32,20.02162335,,,,,,,,,,,,,,p,1,1.367,1.737680588,1,1,1,3,7,1,1,,,,,,,,,,,,,,
,,,,,,,,,,,left.png,,w,right,60e4c09a4b30f16f5a1053e7,2021-10-27_11h09.29.555,arrow_simon_punish,2021.1.2,Win32,20.02162335,,,,,,,,,,,,,,w,1,2.012,2.304894452,1,1,2,0,8,3,1,,,,,,,,,,,,,,
,,,,,,,,,,,right.png,,p,left,60e4c09a4b30f16f5a1053e7,2021-10-27_11h09.29.555,arrow_simon_punish,2021.1.2,Win32,20.02162335,,,,,,,,,,,,,,p,1,1.8886,2.204455806,1,1,2,1,9,0,1,,,,,,,,,,,,,,
,,,,,,,,,,,left.png,,w,right,60e4c09a4b30f16f5a1053e7,2021-10-27_11h09.29.555,arrow_simon_punish,2021.1.2,Win32,20.02162335,,,,,,,,,,,,,,w,1,1.3095,1.566205589,1,1,2,2,10,3,1,,,,,,,,,,,,,,
,,,,,,,,,,,right.png,,p,left,60e4c09a4b30f16f5a1053e7,2021-10-27_11h09.29.555,arrow_simon_punish,2021.1.2,Win32,20.02162335,,,,,,,,,,,,,,p,1,1.6493,1.750621931,1,1,2,3,11,0,1,,,,,,,,,,,,,,
,,,,,,,,,,,left.png,,w,left,60e4c09a4b30f16f5a1053e7,2021-10-27_11h09.29.555,arrow_simon_punish,2021.1.2,Win32,20.02162335,,,,,,,,,,,,,,w,1,1.5626,1.928191728,0,1,3,0,12,2,1,,,,,,,,,,,,,,
,,,,,,,,,,,right.png,,p,right,60e4c09a4b30f16f5a1053e7,2021-10-27_11h09.29.555,arrow_simon_punish,2021.1.2,Win32,20.02162335,,,,,,,,,,,,,,p,1,1.2014,1.648776237,1,1,3,1,13,1,1,,,,,,,,,,,,,,
,,,,,,,,,,,right.png,,p,left,60e4c09a4b30f16f5a1053e7,2021-10-27_11h09.29.555,arrow_simon_punish,2021.1.2,Win32,20.02162335,,,,,,,,,,,,,,p,1,1.379,1.607574926,1,1,3,2,14,0,1,,,,,,,,,,,,,,
,,,,,,,,,,,left.png,,w,right,60e4c09a4b30f16f5a1053e7,2021-10-27_11h09.29.555,arrow_simon_punish,2021.1.2,Win32,20.02162335,,,,,,,,,,,,,,w,1,1.3979,1.80678833,1,1,3,3,15,3,1,,,,,,,,,,,,,,
,,,,,,,,,,,right.png,,p,right,60e4c09a4b30f16f5a1053e7,2021-10-27_11h09.29.555,arrow_simon_punish,2021.1.2,Win32,20.02162335,,,,,,,,,,,,,,p,1,1.9028,2.355545245,1,1,4,0,16,1,1,,,,,,,,,,,,,,
,,,,,,,,,,,left.png,,w,right,60e4c09a4b30f16f5a1053e7,2021-10-27_11h09.29.555,arrow_simon_punish,2021.1.2,Win32,20.02162335,,,,,,,,,,,,,,w,1,1.4951,1.787583362,0,1,4,1,17,3,1,,,,,,,,,,,,,,
,,,,,,,,,,,right.png,,p,right,60e4c09a4b30f16f5a1053e7,2021-10-27_11h09.29.555,arrow_simon_punish,2021.1.2,Win32,20.02162335,,,,,,,,,,,,,,p,1,1.628,2.02880609,1,1,4,2,18,1,1,,,,,,,,,,,,,,
,,,,,,,,,,,left.png,,w,right,60e4c09a4b30f16f5a1053e7,2021-10-27_11h09.29.555,arrow_simon_punish,2021.1.2,Win32,20.02162335,,,,,,,,,,,,,,w,1,2.1192,2.35888965,1,1,4,3,19,3,1,,,,,,,,,,,,,,
,,,,,,,,,,,left.png,,w,right,60e4c09a4b30f16f5a1053e7,2021-10-27_11h09.29.555,arrow_simon_punish,2021.1.2,Win32,20.02162335,,,,,,,,,,,,,,w,1,1.2286,1.50318024,1,1,5,0,20,3,1,,,,,,,,,,,,,,
,,,,,,,,,,,left.png,,w,right,60e4c09a4b30f16f5a1053e7,2021-10-27_11h09.29.555,arrow_simon_punish,2021.1.2,Win32,20.02162335,,,,,,,,,,,,,,w,1,1.3672,1.69900821,1,1,5,1,21,3,1,,,,,,,,,,,,,,
,,,,,,,,,,,right.png,,p,right,60e4c09a4b30f16f5a1053e7,2021-10-27_11h09.29.555,arrow_simon_punish,2021.1.2,Win32,20.02162335,,,,,,,,,,,,,,p,1,1.2398,1.627518098,1,1,5,2,22,1,1,,,,,,,,,,,,,,
,,,,,,,,,,,right.png,,p,right,60e4c09a4b30f16f5a1053e7,2021-10-27_11h09.29.555,arrow_simon_punish,2021.1.2,Win32,20.02162335,,,,,,,,,,,,,,p,1,2.2602,2.259339909,1,1,5,3,23,1,1,,,,,,,,,,,,,,
,,,,,,,,,,,left.png,,w,right,60e4c09a4b30f16f5a1053e7,2021-10-27_11h09.29.555,arrow_simon_punish,2021.1.2,Win32,20.02162335,,,,,,,,,,,,,,w,1,1.5424,1.975888919,0,1,6,0,24,3,1,,,,,,,,,,,,,,
,,,,,,,,,,,right.png,,p,left,60e4c09a4b30f16f5a1053e7,2021-10-27_11h09.29.555,arrow_simon_punish,2021.1.2,Win32,20.02162335,,,,,,,,,,,,,,p,1,1.8203,2.244994994,1,1,6,1,25,0,1,,,,,,,,,,,,,,
,,,,,,,,,,,right.png,,p,left,60e4c09a4b30f16f5a1053e7,2021-10-27_11h09.29.555,arrow_simon_punish,2021.1.2,Win32,20.02162335,,,,,,,,,,,,,,w,0,1.1872,1.512762531,1,1,6,2,26,0,1,,,,,,,,,,,,,,
,,,,,,,,,,,right.png,,p,left,60e4c09a4b30f16f5a1053e7,2021-10-27_11h09.29.555,arrow_simon_punish,2021.1.2,Win32,20.02162335,,,,,,,,,,,,,,w,0,1.1681,1.538918102,1,1,6,3,27,0,1,,,,,,,,,,,,,,
,,,,,,,,,,,right.png,,p,left,60e4c09a4b30f16f5a1053e7,2021-10-27_11h09.29.555,arrow_simon_punish,2021.1.2,Win32,20.02162335,,,,,,,,,,,,,,p,1,1.8856,2.132799009,1,1,7,0,28,0,1,,,,,,,,,,,,,,
,,,,,,,,,,,left.png,,w,left,60e4c09a4b30f16f5a1053e7,2021-10-27_11h09.29.555,arrow_simon_punish,2021.1.2,Win32,20.02162335,,,,,,,,,,,,,,w,1,1.295,1.519705285,1,1,7,1,29,2,1,,,,,,,,,,,,,,
,,,,,,,,,,,right.png,,p,right,60e4c09a4b30f16f5a1053e7,2021-10-27_11h09.29.555,arrow_simon_punish,2021.1.2,Win32,20.02162335,,,,,,,,,,,,,,p,1,2.062,2.468155961,1,1,7,2,30,1,1,,,,,,,,,,,,,,
,,,,,,,,,,,right.png,,p,left,60e4c09a4b30f16f5a1053e7,2021-10-27_11h09.29.555,arrow_simon_punish,2021.1.2,Win32,20.02162335,,,,,,,,,,,,,,p,1,1.4664,1.754869993,0,1,7,3,31,0,1,,,,,,,,,,,,,,
,,,,,,,,,,,left.png,,w,left,60e4c09a4b30f16f5a1053e7,2021-10-27_11h09.29.555,arrow_simon_punish,2021.1.2,Win32,20.02162335,,,,,,,,,,,,,,w,1,1.1107,1.504058274,1,1,8,0,32,2,1,,,,,,,,,,,,,,
,,,,,,,,,,,left.png,,w,left,60e4c09a4b30f16f5a1053e7,2021-10-27_11h09.29.555,arrow_simon_punish,2021.1.2,Win32,20.02162335,,,,,,,,,,,,,,w,1,1.5285,1.914475148,0,1,8,1,33,2,1,,,,,,,,,,,,,,
,,,,,,,,,,,left.png,,w,left,60e4c09a4b30f16f5a1053e7,2021-10-27_11h09.29.555,arrow_simon_punish,2021.1.2,Win32,20.02162335,,,,,,,,,,,,,,w,1,1.5621,2.004371413,0,1,8,2,34,2,1,,,,,,,,,,,,,,
,,,,,,,,,,,right.png,,p,right,60e4c09a4b30f16f5a1053e7,2021-10-27_11h09.29.555,arrow_simon_punish,2021.1.2,Win32,20.02162335,,,,,,,,,,,,,,p,1,1.2059,1.6410044,1,1,8,3,35,1,1,,,,,,,,,,,,,,
,,,,,,,,,,,left.png,,w,left,60e4c09a4b30f16f5a1053e7,2021-10-27_11h09.29.555,arrow_simon_punish,2021.1.2,Win32,20.02162335,,,,,,,,,,,,,,w,1,1.6172,2.11300791,1,1,9,0,36,2,1,,,,,,,,,,,,,,
,,,,,,,,,,,right.png,,p,left,60e4c09a4b30f16f5a1053e7,2021-10-27_11h09.29.555,arrow_simon_punish,2021.1.2,Win32,20.02162335,,,,,,,,,,,,,,w,0,1.8432,2.377133475,1,1,9,1,37,0,1,,,,,,,,,,,,,,
,,,,,,,,,,,right.png,,p,left,60e4c09a4b30f16f5a1053e7,2021-10-27_11h09.29.555,arrow_simon_punish,2021.1.2,Win32,20.02162335,,,,,,,,,,,,,,w,0,1.388,1.87372756,1,1,9,2,38,0,1,,,,,,,,,,,,,,
,,,,,,,,,,,left.png,,w,left,60e4c09a4b30f16f5a1053e7,2021-10-27_11h09.29.555,arrow_simon_punish,2021.1.2,Win32,20.02162335,,,,,,,,,,,,,,w,1,1.7115,2.068831988,1,1,9,3,39,2,1,,,,,,,,,,,,,,
,,,,,,,,,,,left.png,,w,right,60e4c09a4b30f16f5a1053e7,2021-10-27_11h09.29.555,arrow_simon_punish,2021.1.2,Win32,20.02162335,,,,,,,,,,,,,,p,0,2.1077,2.173620525,1,1,10,0,40,3,1,,,,,,,,,,,,,,
,,,,,,,,,,,right.png,,p,right,60e4c09a4b30f16f5a1053e7,2021-10-27_11h09.29.555,arrow_simon_punish,2021.1.2,Win32,20.02162335,,,,,,,,,,,,,,p,1,2.1604,2.362237312,1,1,10,1,41,1,1,,,,,,,,,,,,,,
,,,,,,,,,,,left.png,,w,right,60e4c09a4b30f16f5a1053e7,2021-10-27_11h09.29.555,arrow_simon_punish,2021.1.2,Win32,20.02162335,,,,,,,,,,,,,,p,0,2.3962,2.35112073,1,1,10,2,42,3,1,,,,,,,,,,,,,,
,,,,,,,,,,,left.png,,w,left,60e4c09a4b30f16f5a1053e7,2021-10-27_11h09.29.555,arrow_simon_punish,2021.1.2,Win32,20.02162335,,,,,,,,,,,,,,w,1,2.3254,2.339033922,1,1,10,3,43,2,1,,,,,,,,,,,,,,
,,,,,,,,,,,right.png,,p,right,60e4c09a4b30f16f5a1053e7,2021-10-27_11h09.29.555,arrow_simon_punish,2021.1.2,Win32,20.02162335,,,,,,,,,,,,,,p,1,1.6114,1.97777836,1,1,11,0,44,1,1,,,,,,,,,,,,,,
,,,,,,,,,,,left.png,,w,right,60e4c09a4b30f16f5a1053e7,2021-10-27_11h09.29.555,arrow_simon_punish,2021.1.2,Win32,20.02162335,,,,,,,,,,,,,,w,1,1.9084,1.531002687,1,1,11,1,45,3,1,,,,,,,,,,,,,,
,,,,,,,,,,,left.png,,w,right,60e4c09a4b30f16f5a1053e7,2021-10-27_11h09.29.555,arrow_simon_punish,2021.1.2,Win32,20.02162335,,,,,,,,,,,,,,w,1,1.7811,1.981710602,1,1,11,2,46,3,1,,,,,,,,,,,,,,
,,,,,,,,,,,left.png,,w,left,60e4c09a4b30f16f5a1053e7,2021-10-27_11h09.29.555,arrow_simon_punish,2021.1.2,Win32,20.02162335,,,,,,,,,,,,,,w,1,2.0509,2.404185652,1,1,11,3,47,2,1,,,,,,,,,,,,,,
,,,,,,,,,,,left.png,,w,left,60e4c09a4b30f16f5a1053e7,2021-10-27_11h09.29.555,arrow_simon_punish,2021.1.2,Win32,20.02162335,,,,,,,,,,,,,,w,1,2.4109,2.241101552,1,1,12,0,48,2,1,,,,,,,,,,,,,,
,,,,,,,,,,,right.png,,p,left,60e4c09a4b30f16f5a1053e7,2021-10-27_11h09.29.555,arrow_simon_punish,2021.1.2,Win32,20.02162335,,,,,,,,,,,,,,p,1,1.2335,1.519288302,1,1,12,1,49,0,1,,,,,,,,,,,,,,
,,,,,,,,,,,right.png,,p,right,60e4c09a4b30f16f5a1053e7,2021-10-27_11h09.29.555,arrow_simon_punish,2021.1.2,Win32,20.02162335,,,,,,,,,,,,,,p,1,1.3861,1.879329021,1,1,12,2,50,1,1,,,,,,,,,,,,,,
,,,,,,,,,,,right.png,,p,right,60e4c09a4b30f16f5a1053e7,2021-10-27_11h09.29.555,arrow_simon_punish,2021.1.2,Win32,20.02162335,,,,,,,,,,,,,,p,1,1.4761,1.98898362,0,1,12,3,51,1,1,,,,,,,,,,,,,,
,,,,,,,,,,,right.png,,p,left,60e4c09a4b30f16f5a1053e7,2021-10-27_11h09.29.555,arrow_simon_punish,2021.1.2,Win32,20.02162335,,,,,,,,,,,,,,p,1,1.321,1.570044032,1,1,13,0,52,0,1,,,,,,,,,,,,,,
,,,,,,,,,,,left.png,,w,left,60e4c09a4b30f16f5a1053e7,2021-10-27_11h09.29.555,arrow_simon_punish,2021.1.2,Win32,20.02162335,,,,,,,,,,,,,,w,1,1.6986,1.870959743,1,1,13,1,53,2,1,,,,,,,,,,,,,,
,,,,,,,,,,,right.png,,p,right,60e4c09a4b30f16f5a1053e7,2021-10-27_11h09.29.555,arrow_simon_punish,2021.1.2,Win32,20.02162335,,,,,,,,,,,,,,p,1,1.8325,2.212933927,1,1,13,2,54,1,1,,,,,,,,,,,,,,
,,,,,,,,,,,left.png,,w,left,60e4c09a4b30f16f5a1053e7,2021-10-27_11h09.29.555,arrow_simon_punish,2021.1.2,Win32,20.02162335,,,,,,,,,,,,,,w,1,1.4318,1.910640972,0,1,13,3,55,2,1,,,,,,,,,,,,,,
,,,,,,,,,,,right.png,,p,left,60e4c09a4b30f16f5a1053e7,2021-10-27_11h09.29.555,arrow_simon_punish,2021.1.2,Win32,20.02162335,,,,,,,,,,,,,,p,1,1.4147,1.62854059,0,1,14,0,56,0,1,,,,,,,,,,,,,,
,,,,,,,,,,,left.png,,w,left,60e4c09a4b30f16f5a1053e7,2021-10-27_11h09.29.555,arrow_simon_punish,2021.1.2,Win32,20.02162335,,,,,,,,,,,,,,w,1,1.7021,2.093186801,1,1,14,1,57,2,1,,,,,,,,,,,,,,
,,,,,,,,,,,left.png,,w,right,60e4c09a4b30f16f5a1053e7,2021-10-27_11h09.29.555,arrow_simon_punish,2021.1.2,Win32,20.02162335,,,,,,,,,,,,,,w,1,1.8622,2.207139108,1,1,14,2,58,3,1,,,,,,,,,,,,,,
,,,,,,,,,,,left.png,,w,left,60e4c09a4b30f16f5a1053e7,2021-10-27_11h09.29.555,arrow_simon_punish,2021.1.2,Win32,20.02162335,,,,,,,,,,,,,,w,1,1.3215,1.716786343,1,1,14,3,59,2,1,,,,,,,,,,,,,,
,,,,,,,,,,,,,,,60e4c09a4b30f16f5a1053e7,2021-10-27_11h09.29.555,arrow_simon_punish,2021.1.2,Win32,20.02162335,,,,,,,,,,,,,,,,,,,,,,,,,space,92.8263,8,3,0,6,0,1,1,,,,,
,,,,,,,,,,,left.png,,w,right,60e4c09a4b30f16f5a1053e7,2021-10-27_11h09.29.555,arrow_simon_punish,2021.1.2,Win32,20.02162335,,,,,,,,,,,,,,w,1,1.7053,2.060268224,1,5,0,0,0,3,1,,,,,,,,,,,,,,
,,,,,,,,,,,left.png,,w,right,60e4c09a4b30f16f5a1053e7,2021-10-27_11h09.29.555,arrow_simon_punish,2021.1.2,Win32,20.02162335,,,,,,,,,,,,,,w,1,1.2827,1.668095123,1,5,0,1,1,3,1,,,,,,,,,,,,,,
,,,,,,,,,,,right.png,,p,right,60e4c09a4b30f16f5a1053e7,2021-10-27_11h09.29.555,arrow_simon_punish,2021.1.2,Win32,20.02162335,,,,,,,,,,,,,,p,1,1.6719,2.142534218,1,5,0,2,2,1,1,,,,,,,,,,,,,,
,,,,,,,,,,,left.png,,w,right,60e4c09a4b30f16f5a1053e7,2021-10-27_11h09.29.555,arrow_simon_punish,2021.1.2,Win32,20.02162335,,,,,,,,,,,,,,w,1,1.481,1.823878139,0,5,0,3,3,3,1,,,,,,,,,,,,,,
,,,,,,,,,,,right.png,,p,left,60e4c09a4b30f16f5a1053e7,2021-10-27_11h09.29.555,arrow_simon_punish,2021.1.2,Win32,20.02162335,,,,,,,,,,,,,,p,1,1.3534,1.720927021,1,5,1,0,4,0,1,,,,,,,,,,,,,,
,,,,,,,,,,,right.png,,p,left,60e4c09a4b30f16f5a1053e7,2021-10-27_11h09.29.555,arrow_simon_punish,2021.1.2,Win32,20.02162335,,,,,,,,,,,,,,p,1,1.728,1.96286766,1,5,1,1,5,0,1,,,,,,,,,,,,,,
,,,,,,,,,,,right.png,,p,left,60e4c09a4b30f16f5a1053e7,2021-10-27_11h09.29.555,arrow_simon_punish,2021.1.2,Win32,20.02162335,,,,,,,,,,,,,,w,0,1.5468,2.02841934,1,5,1,2,6,0,1,,,,,,,,,,,,,,
,,,,,,,,,,,right.png,,p,right,60e4c09a4b30f16f5a1053e7,2021-10-27_11h09.29.555,arrow_simon_punish,2021.1.2,Win32,20.02162335,,,,,,,,,,,,,,p,1,1.3061,1.739686306,1,5,1,3,7,1,1,,,,,,,,,,,,,,
,,,,,,,,,,,right.png,,p,right,60e4c09a4b30f16f5a1053e7,2021-10-27_11h09.29.555,arrow_simon_punish,2021.1.2,Win32,20.02162335,,,,,,,,,,,,,,p,1,1.7357,2.208430361,1,5,2,0,8,1,1,,,,,,,,,,,,,,
