instruct_resp_simon.keys,instruct_resp_simon.corr,instruct_resp_simon.rt,trial_resp_simon.keys,trial_resp_simon.corr,trial_resp_simon.rt,trials_train_simon.thisRepN,trials_train_simon.thisTrialN,trials_train_simon.thisN,trials_train_simon.thisIndex,trials_train_simon.ran,target_file,target_pos,target_resp,target_side,participant,date,expName,psychopyVersion,OS,frameRate,instruct_resp_timing.keys,instruct_resp_timing.corr,instruct_resp_timing.rt,trial_resp_timing.keys,trial_resp_timing.rt,trials_train_timing.thisRepN,trials_train_timing.thisTrialN,trials_train_timing.thisN,trials_train_timing.thisIndex,trials_train_timing.ran,instruct_resp.keys,instruct_resp.corr,instruct_resp.rt,trial_resp.keys,trial_resp.corr,trial_resp.rt,target_onset,err,pun,trials.thisRepN,trials.thisTrialN,trials.thisN,trials.thisIndex,trials.ran,block_note_resp.keys,block_note_resp.rt,block_num,blocks.thisRepN,blocks.thisTrialN,blocks.thisN,blocks.thisIndex,blocks.ran,punish,complete_resp.keys,complete_resp.rt,raffle_trial,raffle_err,raffle_rew
space,0,35.6432,p,0,2.5122,0,0,0,3,1,left.png,,w,right,60e5eceb989f38c746723024,2021-10-27_12h09.47.835,arrow_simon_punish,2021.1.2,Win32,32.33420636,,,,,,,,,,,,,,,,,,,,,,,,,,,,,,,,,,,,,,
,,,p,1,1.8629,0,1,1,0,1,right.png,,p,left,60e5eceb989f38c746723024,2021-10-27_12h09.47.835,arrow_simon_punish,2021.1.2,Win32,32.33420636,,,,,,,,,,,,,,,,,,,,,,,,,,,,,,,,,,,,,,
,,,w,1,1.5995,0,2,2,2,1,left.png,,w,left,60e5eceb989f38c746723024,2021-10-27_12h09.47.835,arrow_simon_punish,2021.1.2,Win32,32.33420636,,,,,,,,,,,,,,,,,,,,,,,,,,,,,,,,,,,,,,
,,,w,0,1.642,0,3,3,1,1,right.png,,p,right,60e5eceb989f38c746723024,2021-10-27_12h09.47.835,arrow_simon_punish,2021.1.2,Win32,32.33420636,,,,,,,,,,,,,,,,,,,,,,,,,,,,,,,,,,,,,,
,,,w,0,1.1531,1,0,4,0,1,right.png,,p,left,60e5eceb989f38c746723024,2021-10-27_12h09.47.835,arrow_simon_punish,2021.1.2,Win32,32.33420636,,,,,,,,,,,,,,,,,,,,,,,,,,,,,,,,,,,,,,
,,,w,1,2.4172,1,1,5,3,1,left.png,,w,right,60e5eceb989f38c746723024,2021-10-27_12h09.47.835,arrow_simon_punish,2021.1.2,Win32,32.33420636,,,,,,,,,,,,,,,,,,,,,,,,,,,,,,,,,,,,,,
,,,w,1,1.2882,1,2,6,2,1,left.png,,w,left,60e5eceb989f38c746723024,2021-10-27_12h09.47.835,arrow_simon_punish,2021.1.2,Win32,32.33420636,,,,,,,,,,,,,,,,,,,,,,,,,,,,,,,,,,,,,,
,,,p,1,0.8783,1,3,7,1,1,right.png,,p,right,60e5eceb989f38c746723024,2021-10-27_12h09.47.835,arrow_simon_punish,2021.1.2,Win32,32.33420636,,,,,,,,,,,,,,,,,,,,,,,,,,,,,,,,,,,,,,
,,,p,1,1.0759,2,0,8,0,1,right.png,,p,left,60e5eceb989f38c746723024,2021-10-27_12h09.47.835,arrow_simon_punish,2021.1.2,Win32,32.33420636,,,,,,,,,,,,,,,,,,,,,,,,,,,,,,,,,,,,,,
,,,w,1,0.84,2,1,9,2,1,left.png,,w,left,60e5eceb989f38c746723024,2021-10-27_12h09.47.835,arrow_simon_punish,2021.1.2,Win32,32.33420636,,,,,,,,,,,,,,,,,,,,,,,,,,,,,,,,,,,,,,
,,,w,1,1.4789,2,2,10,3,1,left.png,,w,right,60e5eceb989f38c746723024,2021-10-27_12h09.47.835,arrow_simon_punish,2021.1.2,Win32,32.33420636,,,,,,,,,,,,,,,,,,,,,,,,,,,,,,,,,,,,,,
,,,p,1,1.3956,2,3,11,1,1,right.png,,p,right,60e5eceb989f38c746723024,2021-10-27_12h09.47.835,arrow_simon_punish,2021.1.2,Win32,32.33420636,,,,,,,,,,,,,,,,,,,,,,,,,,,,,,,,,,,,,,
,,,w,1,1.0722,3,0,12,3,1,left.png,,w,right,60e5eceb989f38c746723024,2021-10-27_12h09.47.835,arrow_simon_punish,2021.1.2,Win32,32.33420636,,,,,,,,,,,,,,,,,,,,,,,,,,,,,,,,,,,,,,
,,,p,1,1.1174,3,1,13,0,1,right.png,,p,left,60e5eceb989f38c746723024,2021-10-27_12h09.47.835,arrow_simon_punish,2021.1.2,Win32,32.33420636,,,,,,,,,,,,,,,,,,,,,,,,,,,,,,,,,,,,,,
,,,w,1,0.9342,3,2,14,2,1,left.png,,w,left,60e5eceb989f38c746723024,2021-10-27_12h09.47.835,arrow_simon_punish,2021.1.2,Win32,32.33420636,,,,,,,,,,,,,,,,,,,,,,,,,,,,,,,,,,,,,,
,,,p,1,0.6662,3,3,15,1,1,right.png,,p,right,60e5eceb989f38c746723024,2021-10-27_12h09.47.835,arrow_simon_punish,2021.1.2,Win32,32.33420636,,,,,,,,,,,,,,,,,,,,,,,,,,,,,,,,,,,,,,
,,,w,1,1.2411,4,0,16,3,1,left.png,,w,right,60e5eceb989f38c746723024,2021-10-27_12h09.47.835,arrow_simon_punish,2021.1.2,Win32,32.33420636,,,,,,,,,,,,,,,,,,,,,,,,,,,,,,,,,,,,,,
,,,p,1,1.0731,4,1,17,0,1,right.png,,p,left,60e5eceb989f38c746723024,2021-10-27_12h09.47.835,arrow_simon_punish,2021.1.2,Win32,32.33420636,,,,,,,,,,,,,,,,,,,,,,,,,,,,,,,,,,,,,,
,,,p,1,1.4479,4,2,18,1,1,right.png,,p,right,60e5eceb989f38c746723024,2021-10-27_12h09.47.835,arrow_simon_punish,2021.1.2,Win32,32.33420636,,,,,,,,,,,,,,,,,,,,,,,,,,,,,,,,,,,,,,
,,,w,1,1.1095,4,3,19,2,1,left.png,,w,left,60e5eceb989f38c746723024,2021-10-27_12h09.47.835,arrow_simon_punish,2021.1.2,Win32,32.33420636,,,,,,,,,,,,,,,,,,,,,,,,,,,,,,,,,,,,,,
,,,w,1,1.2652,5,0,20,3,1,left.png,,w,right,60e5eceb989f38c746723024,2021-10-27_12h09.47.835,arrow_simon_punish,2021.1.2,Win32,32.33420636,,,,,,,,,,,,,,,,,,,,,,,,,,,,,,,,,,,,,,
,,,p,1,1.4272,5,1,21,1,1,right.png,,p,right,60e5eceb989f38c746723024,2021-10-27_12h09.47.835,arrow_simon_punish,2021.1.2,Win32,32.33420636,,,,,,,,,,,,,,,,,,,,,,,,,,,,,,,,,,,,,,
,,,p,1,0.9585,5,2,22,0,1,right.png,,p,left,60e5eceb989f38c746723024,2021-10-27_12h09.47.835,arrow_simon_punish,2021.1.2,Win32,32.33420636,,,,,,,,,,,,,,,,,,,,,,,,,,,,,,,,,,,,,,
,,,w,1,0.7777,5,3,23,2,1,left.png,,w,left,60e5eceb989f38c746723024,2021-10-27_12h09.47.835,arrow_simon_punish,2021.1.2,Win32,32.33420636,,,,,,,,,,,,,,,,,,,,,,,,,,,,,,,,,,,,,,
,,,w,1,0.7568,6,0,24,3,1,left.png,,w,right,60e5eceb989f38c746723024,2021-10-27_12h09.47.835,arrow_simon_punish,2021.1.2,Win32,32.33420636,,,,,,,,,,,,,,,,,,,,,,,,,,,,,,,,,,,,,,
,,,w,1,0.6319,6,1,25,2,1,left.png,,w,left,60e5eceb989f38c746723024,2021-10-27_12h09.47.835,arrow_simon_punish,2021.1.2,Win32,32.33420636,,,,,,,,,,,,,,,,,,,,,,,,,,,,,,,,,,,,,,
,,,p,1,0.6759,6,2,26,0,1,right.png,,p,left,60e5eceb989f38c746723024,2021-10-27_12h09.47.835,arrow_simon_punish,2021.1.2,Win32,32.33420636,,,,,,,,,,,,,,,,,,,,,,,,,,,,,,,,,,,,,,
,,,p,1,0.9226,6,3,27,1,1,right.png,,p,right,60e5eceb989f38c746723024,2021-10-27_12h09.47.835,arrow_simon_punish,2021.1.2,Win32,32.33420636,,,,,,,,,,,,,,,,,,,,,,,,,,,,,,,,,,,,,,
,,,w,1,1.5101,7,0,28,3,1,left.png,,w,right,60e5eceb989f38c746723024,2021-10-27_12h09.47.835,arrow_simon_punish,2021.1.2,Win32,32.33420636,,,,,,,,,,,,,,,,,,,,,,,,,,,,,,,,,,,,,,
,,,p,1,0.8445,7,1,29,1,1,right.png,,p,right,60e5eceb989f38c746723024,2021-10-27_12h09.47.835,arrow_simon_punish,2021.1.2,Win32,32.33420636,,,,,,,,,,,,,,,,,,,,,,,,,,,,,,,,,,,,,,
,,,p,1,1.2535,7,2,30,0,1,right.png,,p,left,60e5eceb989f38c746723024,2021-10-27_12h09.47.835,arrow_simon_punish,2021.1.2,Win32,32.33420636,,,,,,,,,,,,,,,,,,,,,,,,,,,,,,,,,,,,,,
,,,w,1,0.5624,7,3,31,2,1,left.png,,w,left,60e5eceb989f38c746723024,2021-10-27_12h09.47.835,arrow_simon_punish,2021.1.2,Win32,32.33420636,,,,,,,,,,,,,,,,,,,,,,,,,,,,,,,,,,,,,,
,,,w,1,1.4105,8,0,32,3,1,left.png,,w,right,60e5eceb989f38c746723024,2021-10-27_12h09.47.835,arrow_simon_punish,2021.1.2,Win32,32.33420636,,,,,,,,,,,,,,,,,,,,,,,,,,,,,,,,,,,,,,
,,,p,1,0.7124,8,1,33,1,1,right.png,,p,right,60e5eceb989f38c746723024,2021-10-27_12h09.47.835,arrow_simon_punish,2021.1.2,Win32,32.33420636,,,,,,,,,,,,,,,,,,,,,,,,,,,,,,,,,,,,,,
,,,w,1,0.9666,8,2,34,2,1,left.png,,w,left,60e5eceb989f38c746723024,2021-10-27_12h09.47.835,arrow_simon_punish,2021.1.2,Win32,32.33420636,,,,,,,,,,,,,,,,,,,,,,,,,,,,,,,,,,,,,,
,,,p,1,1.0304,8,3,35,0,1,right.png,,p,left,60e5eceb989f38c746723024,2021-10-27_12h09.47.835,arrow_simon_punish,2021.1.2,Win32,32.33420636,,,,,,,,,,,,,,,,,,,,,,,,,,,,,,,,,,,,,,
,,,p,1,1.2486,9,0,36,0,1,right.png,,p,left,60e5eceb989f38c746723024,2021-10-27_12h09.47.835,arrow_simon_punish,2021.1.2,Win32,32.33420636,,,,,,,,,,,,,,,,,,,,,,,,,,,,,,,,,,,,,,
,,,w,1,0.9864,9,1,37,3,1,left.png,,w,right,60e5eceb989f38c746723024,2021-10-27_12h09.47.835,arrow_simon_punish,2021.1.2,Win32,32.33420636,,,,,,,,,,,,,,,,,,,,,,,,,,,,,,,,,,,,,,
,,,w,1,0.6646,9,2,38,2,1,left.png,,w,left,60e5eceb989f38c746723024,2021-10-27_12h09.47.835,arrow_simon_punish,2021.1.2,Win32,32.33420636,,,,,,,,,,,,,,,,,,,,,,,,,,,,,,,,,,,,,,
,,,p,1,0.5879,9,3,39,1,1,right.png,,p,right,60e5eceb989f38c746723024,2021-10-27_12h09.47.835,arrow_simon_punish,2021.1.2,Win32,32.33420636,,,,,,,,,,,,,,,,,,,,,,,,,,,,,,,,,,,,,,
,,,,,,,,,,,,,,,60e5eceb989f38c746723024,2021-10-27_12h09.47.835,arrow_simon_punish,2021.1.2,Win32,32.33420636,space,0,34.0714,p,3.0016,0,0,0,0,1,,,,,,,,,,,,,,,,,,,,,,,,,,,,
,,,,,,,,,,,,,,,60e5eceb989f38c746723024,2021-10-27_12h09.47.835,arrow_simon_punish,2021.1.2,Win32,32.33420636,,,,p,2.6406,1,0,1,0,1,,,,,,,,,,,,,,,,,,,,,,,,,,,,
,,,,,,,,,,,,,,,60e5eceb989f38c746723024,2021-10-27_12h09.47.835,arrow_simon_punish,2021.1.2,Win32,32.33420636,,,,p,2.5931,2,0,2,0,1,,,,,,,,,,,,,,,,,,,,,,,,,,,,
,,,,,,,,,,,,,,,60e5eceb989f38c746723024,2021-10-27_12h09.47.835,arrow_simon_punish,2021.1.2,Win32,32.33420636,,,,p,2.6,3,0,3,0,1,,,,,,,,,,,,,,,,,,,,,,,,,,,,
,,,,,,,,,,,,,,,60e5eceb989f38c746723024,2021-10-27_12h09.47.835,arrow_simon_punish,2021.1.2,Win32,32.33420636,,,,w,2.6308,4,0,4,0,1,,,,,,,,,,,,,,,,,,,,,,,,,,,,
,,,,,,,,,,,,,,,60e5eceb989f38c746723024,2021-10-27_12h09.47.835,arrow_simon_punish,2021.1.2,Win32,32.33420636,,,,p,2.5697,5,0,5,0,1,,,,,,,,,,,,,,,,,,,,,,,,,,,,
,,,,,,,,,,,,,,,60e5eceb989f38c746723024,2021-10-27_12h09.47.835,arrow_simon_punish,2021.1.2,Win32,32.33420636,,,,p,2.5927,6,0,6,0,1,,,,,,,,,,,,,,,,,,,,,,,,,,,,
,,,,,,,,,,,,,,,60e5eceb989f38c746723024,2021-10-27_12h09.47.835,arrow_simon_punish,2021.1.2,Win32,32.33420636,,,,p,2.6437,7,0,7,0,1,,,,,,,,,,,,,,,,,,,,,,,,,,,,
,,,,,,,,,,,,,,,60e5eceb989f38c746723024,2021-10-27_12h09.47.835,arrow_simon_punish,2021.1.2,Win32,32.33420636,,,,p,2.5598,8,0,8,0,1,,,,,,,,,,,,,,,,,,,,,,,,,,,,
,,,,,,,,,,,,,,,60e5eceb989f38c746723024,2021-10-27_12h09.47.835,arrow_simon_punish,2021.1.2,Win32,32.33420636,,,,p,2.6647,9,0,9,0,1,,,,,,,,,,,,,,,,,,,,,,,,,,,,
,,,,,,,,,,,,,,,60e5eceb989f38c746723024,2021-10-27_12h09.47.835,arrow_simon_punish,2021.1.2,Win32,32.33420636,,,,p,2.5281,10,0,10,0,1,,,,,,,,,,,,,,,,,,,,,,,,,,,,
,,,,,,,,,,,,,,,60e5eceb989f38c746723024,2021-10-27_12h09.47.835,arrow_simon_punish,2021.1.2,Win32,32.33420636,,,,p,2.7351,11,0,11,0,1,,,,,,,,,,,,,,,,,,,,,,,,,,,,
,,,,,,,,,,,,,,,60e5eceb989f38c746723024,2021-10-27_12h09.47.835,arrow_simon_punish,2021.1.2,Win32,32.33420636,,,,p,2.5778,12,0,12,0,1,,,,,,,,,,,,,,,,,,,,,,,,,,,,
,,,,,,,,,,,,,,,60e5eceb989f38c746723024,2021-10-27_12h09.47.835,arrow_simon_punish,2021.1.2,Win32,32.33420636,,,,p,2.469,13,0,13,0,1,,,,,,,,,,,,,,,,,,,,,,,,,,,,
,,,,,,,,,,,,,,,60e5eceb989f38c746723024,2021-10-27_12h09.47.835,arrow_simon_punish,2021.1.2,Win32,32.33420636,,,,p,2.4903,14,0,14,0,1,,,,,,,,,,,,,,,,,,,,,,,,,,,,
,,,,,,,,,,,,,,,60e5eceb989f38c746723024,2021-10-27_12h09.47.835,arrow_simon_punish,2021.1.2,Win32,32.33420636,,,,p,2.456,15,0,15,0,1,,,,,,,,,,,,,,,,,,,,,,,,,,,,
,,,,,,,,,,,,,,,60e5eceb989f38c746723024,2021-10-27_12h09.47.835,arrow_simon_punish,2021.1.2,Win32,32.33420636,,,,p,3.5644,16,0,16,0,1,,,,,,,,,,,,,,,,,,,,,,,,,,,,
,,,,,,,,,,,,,,,60e5eceb989f38c746723024,2021-10-27_12h09.47.835,arrow_simon_punish,2021.1.2,Win32,32.33420636,,,,p,2.4978,17,0,17,0,1,,,,,,,,,,,,,,,,,,,,,,,,,,,,
,,,,,,,,,,,,,,,60e5eceb989f38c746723024,2021-10-27_12h09.47.835,arrow_simon_punish,2021.1.2,Win32,32.33420636,,,,p,2.4166,18,0,18,0,1,,,,,,,,,,,,,,,,,,,,,,,,,,,,
,,,,,,,,,,,,,,,60e5eceb989f38c746723024,2021-10-27_12h09.47.835,arrow_simon_punish,2021.1.2,Win32,32.33420636,,,,p,2.5053,19,0,19,0,1,,,,,,,,,,,,,,,,,,,,,,,,,,,,
,,,,,,,,,,,,,,,60e5eceb989f38c746723024,2021-10-27_12h09.47.835,arrow_simon_punish,2021.1.2,Win32,32.33420636,,,,p,2.5818,20,0,20,0,1,,,,,,,,,,,,,,,,,,,,,,,,,,,,
,,,,,,,,,,,,,,,60e5eceb989f38c746723024,2021-10-27_12h09.47.835,arrow_simon_punish,2021.1.2,Win32,32.33420636,,,,p,2.4691,21,0,21,0,1,,,,,,,,,,,,,,,,,,,,,,,,,,,,
,,,,,,,,,,,,,,,60e5eceb989f38c746723024,2021-10-27_12h09.47.835,arrow_simon_punish,2021.1.2,Win32,32.33420636,,,,p,2.5111,22,0,22,0,1,,,,,,,,,,,,,,,,,,,,,,,,,,,,
,,,,,,,,,,,,,,,60e5eceb989f38c746723024,2021-10-27_12h09.47.835,arrow_simon_punish,2021.1.2,Win32,32.33420636,,,,w,2.5457,23,0,23,0,1,,,,,,,,,,,,,,,,,,,,,,,,,,,,
,,,,,,,,,,,,,,,60e5eceb989f38c746723024,2021-10-27_12h09.47.835,arrow_simon_punish,2021.1.2,Win32,32.33420636,,,,p,2.5612,24,0,24,0,1,,,,,,,,,,,,,,,,,,,,,,,,,,,,
,,,,,,,,,,,,,,,60e5eceb989f38c746723024,2021-10-27_12h09.47.835,arrow_simon_punish,2021.1.2,Win32,32.33420636,,,,w,2.5133,25,0,25,0,1,,,,,,,,,,,,,,,,,,,,,,,,,,,,
,,,,,,,,,,,,,,,60e5eceb989f38c746723024,2021-10-27_12h09.47.835,arrow_simon_punish,2021.1.2,Win32,32.33420636,,,,p,2.5254,26,0,26,0,1,,,,,,,,,,,,,,,,,,,,,,,,,,,,
,,,,,,,,,,,,,,,60e5eceb989f38c746723024,2021-10-27_12h09.47.835,arrow_simon_punish,2021.1.2,Win32,32.33420636,,,,p,2.5321,27,0,27,0,1,,,,,,,,,,,,,,,,,,,,,,,,,,,,
,,,,,,,,,,,,,,,60e5eceb989f38c746723024,2021-10-27_12h09.47.835,arrow_simon_punish,2021.1.2,Win32,32.33420636,,,,p,2.5817,28,0,28,0,1,,,,,,,,,,,,,,,,,,,,,,,,,,,,
,,,,,,,,,,,,,,,60e5eceb989f38c746723024,2021-10-27_12h09.47.835,arrow_simon_punish,2021.1.2,Win32,32.33420636,,,,p,2.579,29,0,29,0,1,,,,,,,,,,,,,,,,,,,,,,,,,,,,
,,,,,,,,,,,,,,,60e5eceb989f38c746723024,2021-10-27_12h09.47.835,arrow_simon_punish,2021.1.2,Win32,32.33420636,,,,p,2.5692,30,0,30,0,1,,,,,,,,,,,,,,,,,,,,,,,,,,,,
,,,,,,,,,,,,,,,60e5eceb989f38c746723024,2021-10-27_12h09.47.835,arrow_simon_punish,2021.1.2,Win32,32.33420636,,,,p,2.4908,31,0,31,0,1,,,,,,,,,,,,,,,,,,,,,,,,,,,,
,,,,,,,,,,,,,,,60e5eceb989f38c746723024,2021-10-27_12h09.47.835,arrow_simon_punish,2021.1.2,Win32,32.33420636,,,,p,2.5326,32,0,32,0,1,,,,,,,,,,,,,,,,,,,,,,,,,,,,
,,,,,,,,,,,,,,,60e5eceb989f38c746723024,2021-10-27_12h09.47.835,arrow_simon_punish,2021.1.2,Win32,32.33420636,,,,p,2.5402,33,0,33,0,1,,,,,,,,,,,,,,,,,,,,,,,,,,,,
,,,,,,,,,,,,,,,60e5eceb989f38c746723024,2021-10-27_12h09.47.835,arrow_simon_punish,2021.1.2,Win32,32.33420636,,,,p,2.5512,34,0,34,0,1,,,,,,,,,,,,,,,,,,,,,,,,,,,,
,,,,,,,,,,,,,,,60e5eceb989f38c746723024,2021-10-27_12h09.47.835,arrow_simon_punish,2021.1.2,Win32,32.33420636,,,,p,2.4874,35,0,35,0,1,,,,,,,,,,,,,,,,,,,,,,,,,,,,
,,,,,,,,,,,,,,,60e5eceb989f38c746723024,2021-10-27_12h09.47.835,arrow_simon_punish,2021.1.2,Win32,32.33420636,,,,p,2.5056,36,0,36,0,1,,,,,,,,,,,,,,,,,,,,,,,,,,,,
,,,,,,,,,,,,,,,60e5eceb989f38c746723024,2021-10-27_12h09.47.835,arrow_simon_punish,2021.1.2,Win32,32.33420636,,,,w,2.5291,37,0,37,0,1,,,,,,,,,,,,,,,,,,,,,,,,,,,,
,,,,,,,,,,,,,,,60e5eceb989f38c746723024,2021-10-27_12h09.47.835,arrow_simon_punish,2021.1.2,Win32,32.33420636,,,,p,2.585,38,0,38,0,1,,,,,,,,,,,,,,,,,,,,,,,,,,,,
,,,,,,,,,,,,,,,60e5eceb989f38c746723024,2021-10-27_12h09.47.835,arrow_simon_punish,2021.1.2,Win32,32.33420636,,,,p,2.5263,39,0,39,0,1,,,,,,,,,,,,,,,,,,,,,,,,,,,,
,,,,,,,,,,,,,,,60e5eceb989f38c746723024,2021-10-27_12h09.47.835,arrow_simon_punish,2021.1.2,Win32,32.33420636,,,,p,2.534,40,0,40,0,1,,,,,,,,,,,,,,,,,,,,,,,,,,,,
,,,,,,,,,,,,,,,60e5eceb989f38c746723024,2021-10-27_12h09.47.835,arrow_simon_punish,2021.1.2,Win32,32.33420636,,,,p,2.5744,41,0,41,0,1,,,,,,,,,,,,,,,,,,,,,,,,,,,,
,,,,,,,,,,,,,,,60e5eceb989f38c746723024,2021-10-27_12h09.47.835,arrow_simon_punish,2021.1.2,Win32,32.33420636,,,,p,2.4266,42,0,42,0,1,,,,,,,,,,,,,,,,,,,,,,,,,,,,
,,,,,,,,,,,,,,,60e5eceb989f38c746723024,2021-10-27_12h09.47.835,arrow_simon_punish,2021.1.2,Win32,32.33420636,,,,p,2.5622,43,0,43,0,1,,,,,,,,,,,,,,,,,,,,,,,,,,,,
,,,,,,,,,,,,,,,60e5eceb989f38c746723024,2021-10-27_12h09.47.835,arrow_simon_punish,2021.1.2,Win32,32.33420636,,,,p,2.5549,44,0,44,0,1,,,,,,,,,,,,,,,,,,,,,,,,,,,,
,,,,,,,,,,,,,,,60e5eceb989f38c746723024,2021-10-27_12h09.47.835,arrow_simon_punish,2021.1.2,Win32,32.33420636,,,,p,2.5877,45,0,45,0,1,,,,,,,,,,,,,,,,,,,,,,,,,,,,
,,,,,,,,,,,,,,,60e5eceb989f38c746723024,2021-10-27_12h09.47.835,arrow_simon_punish,2021.1.2,Win32,32.33420636,,,,p,2.5731,46,0,46,0,1,,,,,,,,,,,,,,,,,,,,,,,,,,,,
,,,,,,,,,,,,,,,60e5eceb989f38c746723024,2021-10-27_12h09.47.835,arrow_simon_punish,2021.1.2,Win32,32.33420636,,,,p,2.6238,47,0,47,0,1,,,,,,,,,,,,,,,,,,,,,,,,,,,,
,,,,,,,,,,,,,,,60e5eceb989f38c746723024,2021-10-27_12h09.47.835,arrow_simon_punish,2021.1.2,Win32,32.33420636,,,,p,2.536,48,0,48,0,1,,,,,,,,,,,,,,,,,,,,,,,,,,,,
,,,,,,,,,,,,,,,60e5eceb989f38c746723024,2021-10-27_12h09.47.835,arrow_simon_punish,2021.1.2,Win32,32.33420636,,,,p,2.6085,49,0,49,0,1,,,,,,,,,,,,,,,,,,,,,,,,,,,,
,,,,,,,,,,,,,,,60e5eceb989f38c746723024,2021-10-27_12h09.47.835,arrow_simon_punish,2021.1.2,Win32,32.33420636,,,,p,2.5233,50,0,50,0,1,,,,,,,,,,,,,,,,,,,,,,,,,,,,
,,,,,,,,,,,,,,,60e5eceb989f38c746723024,2021-10-27_12h09.47.835,arrow_simon_punish,2021.1.2,Win32,32.33420636,,,,p,2.5953,51,0,51,0,1,,,,,,,,,,,,,,,,,,,,,,,,,,,,
,,,,,,,,,,,,,,,60e5eceb989f38c746723024,2021-10-27_12h09.47.835,arrow_simon_punish,2021.1.2,Win32,32.33420636,,,,p,2.5841,52,0,52,0,1,,,,,,,,,,,,,,,,,,,,,,,,,,,,
,,,,,,,,,,,,,,,60e5eceb989f38c746723024,2021-10-27_12h09.47.835,arrow_simon_punish,2021.1.2,Win32,32.33420636,,,,p,2.5762,53,0,53,0,1,,,,,,,,,,,,,,,,,,,,,,,,,,,,
,,,,,,,,,,,,,,,60e5eceb989f38c746723024,2021-10-27_12h09.47.835,arrow_simon_punish,2021.1.2,Win32,32.33420636,,,,p,2.6141,54,0,54,0,1,,,,,,,,,,,,,,,,,,,,,,,,,,,,
,,,,,,,,,,,,,,,60e5eceb989f38c746723024,2021-10-27_12h09.47.835,arrow_simon_punish,2021.1.2,Win32,32.33420636,,,,p,2.6147,55,0,55,0,1,,,,,,,,,,,,,,,,,,,,,,,,,,,,
,,,,,,,,,,,,,,,60e5eceb989f38c746723024,2021-10-27_12h09.47.835,arrow_simon_punish,2021.1.2,Win32,32.33420636,,,,p,2.5524,56,0,56,0,1,,,,,,,,,,,,,,,,,,,,,,,,,,,,
,,,,,,,,,,,,,,,60e5eceb989f38c746723024,2021-10-27_12h09.47.835,arrow_simon_punish,2021.1.2,Win32,32.33420636,,,,p,2.5602,57,0,57,0,1,,,,,,,,,,,,,,,,,,,,,,,,,,,,
,,,,,,,,,,,,,,,60e5eceb989f38c746723024,2021-10-27_12h09.47.835,arrow_simon_punish,2021.1.2,Win32,32.33420636,,,,p,2.6022,58,0,58,0,1,,,,,,,,,,,,,,,,,,,,,,,,,,,,
,,,,,,,,,,,,,,,60e5eceb989f38c746723024,2021-10-27_12h09.47.835,arrow_simon_punish,2021.1.2,Win32,32.33420636,,,,p,2.6126,59,0,59,0,1,,,,,,,,,,,,,,,,,,,,,,,,,,,,
,,,,,,,,,,,right.png,,p,right,60e5eceb989f38c746723024,2021-10-27_12h09.47.835,arrow_simon_punish,2021.1.2,Win32,32.33420636,,,,,,,,,,,space,0,39.0823,p,1,1.4588,2.084559583,0,1,0,0,0,1,1,,,,,,,,,,,,,,
,,,,,,,,,,,right.png,,p,left,60e5eceb989f38c746723024,2021-10-27_12h09.47.835,arrow_simon_punish,2021.1.2,Win32,32.33420636,,,,,,,,,,,,,,w,0,1.0395,1.557512845,1,1,0,1,1,0,1,,,,,,,,,,,,,,
,,,,,,,,,,,left.png,,w,left,60e5eceb989f38c746723024,2021-10-27_12h09.47.835,arrow_simon_punish,2021.1.2,Win32,32.33420636,,,,,,,,,,,,,,p,0,1.3256,1.976635575,1,1,0,2,2,2,1,,,,,,,,,,,,,,
,,,,,,,,,,,right.png,,p,left,60e5eceb989f38c746723024,2021-10-27_12h09.47.835,arrow_simon_punish,2021.1.2,Win32,32.33420636,,,,,,,,,,,,,,w,0,1.0889,1.67168659,1,1,0,3,3,0,1,,,,,,,,,,,,,,
,,,,,,,,,,,right.png,,p,right,60e5eceb989f38c746723024,2021-10-27_12h09.47.835,arrow_simon_punish,2021.1.2,Win32,32.33420636,,,,,,,,,,,,,,p,1,1.3124,1.96522508,1,1,1,0,4,1,1,,,,,,,,,,,,,,
,,,,,,,,,,,left.png,,w,left,60e5eceb989f38c746723024,2021-10-27_12h09.47.835,arrow_simon_punish,2021.1.2,Win32,32.33420636,,,,,,,,,,,,,,w,1,1.7045,1.593921382,1,1,1,1,5,2,1,,,,,,,,,,,,,,
,,,,,,,,,,,left.png,,w,right,60e5eceb989f38c746723024,2021-10-27_12h09.47.835,arrow_simon_punish,2021.1.2,Win32,32.33420636,,,,,,,,,,,,,,w,1,1.607,2.155851804,1,1,1,2,6,3,1,,,,,,,,,,,,,,
,,,,,,,,,,,left.png,,w,right,60e5eceb989f38c746723024,2021-10-27_12h09.47.835,arrow_simon_punish,2021.1.2,Win32,32.33420636,,,,,,,,,,,,,,w,1,1.6826,2.078420453,1,1,1,3,7,3,1,,,,,,,,,,,,,,
,,,,,,,,,,,left.png,,w,right,60e5eceb989f38c746723024,2021-10-27_12h09.47.835,arrow_simon_punish,2021.1.2,Win32,32.33420636,,,,,,,,,,,,,,p,0,1.8182,2.376700805,1,1,2,0,8,3,1,,,,,,,,,,,,,,
,,,,,,,,,,,left.png,,w,left,60e5eceb989f38c746723024,2021-10-27_12h09.47.835,arrow_simon_punish,2021.1.2,Win32,32.33420636,,,,,,,,,,,,,,p,0,1.1352,1.704161759,1,1,2,1,9,2,1,,,,,,,,,,,,,,
,,,,,,,,,,,right.png,,p,left,60e5eceb989f38c746723024,2021-10-27_12h09.47.835,arrow_simon_punish,2021.1.2,Win32,32.33420636,,,,,,,,,,,,,,p,1,1.6692,2.18786376,1,1,2,2,10,0,1,,,,,,,,,,,,,,
,,,,,,,,,,,left.png,,w,left,60e5eceb989f38c746723024,2021-10-27_12h09.47.835,arrow_simon_punish,2021.1.2,Win32,32.33420636,,,,,,,,,,,,,,w,1,2.017,2.241980311,1,1,2,3,11,2,1,,,,,,,,,,,,,,
,,,,,,,,,,,left.png,,w,left,60e5eceb989f38c746723024,2021-10-27_12h09.47.835,arrow_simon_punish,2021.1.2,Win32,32.33420636,,,,,,,,,,,,,,w,1,1.6429,2.211811292,1,1,3,0,12,2,1,,,,,,,,,,,,,,
,,,,,,,,,,,right.png,,p,left,60e5eceb989f38c746723024,2021-10-27_12h09.47.835,arrow_simon_punish,2021.1.2,Win32,32.33420636,,,,,,,,,,,,,,p,1,1.4864,1.989309512,0,1,3,1,13,0,1,,,,,,,,,,,,,,
,,,,,,,,,,,right.png,,p,left,60e5eceb989f38c746723024,2021-10-27_12h09.47.835,arrow_simon_punish,2021.1.2,Win32,32.33420636,,,,,,,,,,,,,,p,1,1.8406,2.287780914,1,1,3,2,14,0,1,,,,,,,,,,,,,,
,,,,,,,,,,,left.png,,w,right,60e5eceb989f38c746723024,2021-10-27_12h09.47.835,arrow_simon_punish,2021.1.2,Win32,32.33420636,,,,,,,,,,,,,,w,1,1.5922,1.782551614,0,1,3,3,15,3,1,,,,,,,,,,,,,,
,,,,,,,,,,,right.png,,p,right,60e5eceb989f38c746723024,2021-10-27_12h09.47.835,arrow_simon_punish,2021.1.2,Win32,32.33420636,,,,,,,,,,,,,,p,1,1.6163,2.020035153,1,1,4,0,16,1,1,,,,,,,,,,,,,,
,,,,,,,,,,,right.png,,p,right,60e5eceb989f38c746723024,2021-10-27_12h09.47.835,arrow_simon_punish,2021.1.2,Win32,32.33420636,,,,,,,,,,,,,,p,1,1.6267,2.245735185,1,1,4,1,17,1,1,,,,,,,,,,,,,,
,,,,,,,,,,,left.png,,w,left,60e5eceb989f38c746723024,2021-10-27_12h09.47.835,arrow_simon_punish,2021.1.2,Win32,32.33420636,,,,,,,,,,,,,,w,1,1.2586,1.833399215,1,1,4,2,18,2,1,,,,,,,,,,,,,,
,,,,,,,,,,,left.png,,w,left,60e5eceb989f38c746723024,2021-10-27_12h09.47.835,arrow_simon_punish,2021.1.2,Win32,32.33420636,,,,,,,,,,,,,,w,1,1.6028,1.999118001,1,1,4,3,19,2,1,,,,,,,,,,,,,,
,,,,,,,,,,,right.png,,p,left,60e5eceb989f38c746723024,2021-10-27_12h09.47.835,arrow_simon_punish,2021.1.2,Win32,32.33420636,,,,,,,,,,,,,,p,1,1.535,2.139990082,0,1,5,0,20,0,1,,,,,,,,,,,,,,
,,,,,,,,,,,left.png,,w,left,60e5eceb989f38c746723024,2021-10-27_12h09.47.835,arrow_simon_punish,2021.1.2,Win32,32.33420636,,,,,,,,,,,,,,w,1,1.7728,2.405952352,1,1,5,1,21,2,1,,,,,,,,,,,,,,
,,,,,,,,,,,right.png,,p,right,60e5eceb989f38c746723024,2021-10-27_12h09.47.835,arrow_simon_punish,2021.1.2,Win32,32.33420636,,,,,,,,,,,,,,p,1,1.7955,2.195982847,1,1,5,2,22,1,1,,,,,,,,,,,,,,
,,,,,,,,,,,right.png,,p,left,60e5eceb989f38c746723024,2021-10-27_12h09.47.835,arrow_simon_punish,2021.1.2,Win32,32.33420636,,,,,,,,,,,,,,p,1,1.5448,2.128395545,0,1,5,3,23,0,1,,,,,,,,,,,,,,
,,,,,,,,,,,right.png,,p,left,60e5eceb989f38c746723024,2021-10-27_12h09.47.835,arrow_simon_punish,2021.1.2,Win32,32.33420636,,,,,,,,,,,,,,p,1,1.5476,2.013303886,0,1,6,0,24,0,1,,,,,,,,,,,,,,
,,,,,,,,,,,right.png,,p,left,60e5eceb989f38c746723024,2021-10-27_12h09.47.835,arrow_simon_punish,2021.1.2,Win32,32.33420636,,,,,,,,,,,,,,p,1,1.5599,1.526486909,0,1,6,1,25,0,1,,,,,,,,,,,,,,
,,,,,,,,,,,right.png,,p,left,60e5eceb989f38c746723024,2021-10-27_12h09.47.835,arrow_simon_punish,2021.1.2,Win32,32.33420636,,,,,,,,,,,,,,p,1,1.5735,1.995501165,0,1,6,2,26,0,1,,,,,,,,,,,,,,
,,,,,,,,,,,right.png,,p,right,60e5eceb989f38c746723024,2021-10-27_12h09.47.835,arrow_simon_punish,2021.1.2,Win32,32.33420636,,,,,,,,,,,,,,p,1,1.4369,1.728308213,0,1,6,3,27,1,1,,,,,,,,,,,,,,
,,,,,,,,,,,right.png,,p,right,60e5eceb989f38c746723024,2021-10-27_12h09.47.835,arrow_simon_punish,2021.1.2,Win32,32.33420636,,,,,,,,,,,,,,p,1,1.6157,1.997298159,1,1,7,0,28,1,1,,,,,,,,,,,,,,
,,,,,,,,,,,left.png,,w,right,60e5eceb989f38c746723024,2021-10-27_12h09.47.835,arrow_simon_punish,2021.1.2,Win32,32.33420636,,,,,,,,,,,,,,w,1,1.5921,1.868486015,0,1,7,1,29,3,1,,,,,,,,,,,,,,
,,,,,,,,,,,right.png,,p,left,60e5eceb989f38c746723024,2021-10-27_12h09.47.835,arrow_simon_punish,2021.1.2,Win32,32.33420636,,,,,,,,,,,,,,p,1,2.0493,1.786377794,1,1,7,2,30,0,1,,,,,,,,,,,,,,
,,,,,,,,,,,left.png,,w,left,60e5eceb989f38c746723024,2021-10-27_12h09.47.835,arrow_simon_punish,2021.1.2,Win32,32.33420636,,,,,,,,,,,,,,w,1,1.5347,2.250718581,0,1,7,3,31,2,1,,,,,,,,,,,,,,
,,,,,,,,,,,left.png,,w,right,60e5eceb989f38c746723024,2021-10-27_12h09.47.835,arrow_simon_punish,2021.1.2,Win32,32.33420636,,,,,,,,,,,,,,w,1,1.824,2.220089852,1,1,8,0,32,3,1,,,,,,,,,,,,,,
,,,,,,,,,,,left.png,,w,left,60e5eceb989f38c746723024,2021-10-27_12h09.47.835,arrow_simon_punish,2021.1.2,Win32,32.33420636,,,,,,,,,,,,,,w,1,1.6662,2.013624986,1,1,8,1,33,2,1,,,,,,,,,,,,,,
,,,,,,,,,,,left.png,,w,right,60e5eceb989f38c746723024,2021-10-27_12h09.47.835,arrow_simon_punish,2021.1.2,Win32,32.33420636,,,,,,,,,,,,,,w,1,1.6938,1.822333049,1,1,8,2,34,3,1,,,,,,,,,,,,,,
,,,,,,,,,,,left.png,,w,right,60e5eceb989f38c746723024,2021-10-27_12h09.47.835,arrow_simon_punish,2021.1.2,Win32,32.33420636,,,,,,,,,,,,,,p,0,1.6563,1.915509972,1,1,8,3,35,3,1,,,,,,,,,,,,,,
,,,,,,,,,,,left.png,,w,right,60e5eceb989f38c746723024,2021-10-27_12h09.47.835,arrow_simon_punish,2021.1.2,Win32,32.33420636,,,,,,,,,,,,,,w,1,1.5754,1.611426008,0,1,9,0,36,3,1,,,,,,,,,,,,,,
,,,,,,,,,,,right.png,,p,right,60e5eceb989f38c746723024,2021-10-27_12h09.47.835,arrow_simon_punish,2021.1.2,Win32,32.33420636,,,,,,,,,,,,,,p,1,1.4617,1.558444201,0,1,9,1,37,1,1,,,,,,,,,,,,,,
,,,,,,,,,,,right.png,,p,right,60e5eceb989f38c746723024,2021-10-27_12h09.47.835,arrow_simon_punish,2021.1.2,Win32,32.33420636,,,,,,,,,,,,,,w,0,1.8428,2.488410253,1,1,9,2,38,1,1,,,,,,,,,,,,,,
,,,,,,,,,,,left.png,,w,left,60e5eceb989f38c746723024,2021-10-27_12h09.47.835,arrow_simon_punish,2021.1.2,Win32,32.33420636,,,,,,,,,,,,,,w,1,1.4957,1.712370869,0,1,9,3,39,2,1,,,,,,,,,,,,,,
,,,,,,,,,,,left.png,,w,right,60e5eceb989f38c746723024,2021-10-27_12h09.47.835,arrow_simon_punish,2021.1.2,Win32,32.33420636,,,,,,,,,,,,,,w,1,1.528,1.655228462,0,1,10,0,40,3,1,,,,,,,,,,,,,,
,,,,,,,,,,,right.png,,p,left,60e5eceb989f38c746723024,2021-10-27_12h09.47.835,arrow_simon_punish,2021.1.2,Win32,32.33420636,,,,,,,,,,,,,,p,1,1.5119,1.85331455,0,1,10,1,41,0,1,,,,,,,,,,,,,,
,,,,,,,,,,,right.png,,p,left,60e5eceb989f38c746723024,2021-10-27_12h09.47.835,arrow_simon_punish,2021.1.2,Win32,32.33420636,,,,,,,,,,,,,,p,1,1.8889,2.345625037,1,1,10,2,42,0,1,,,,,,,,,,,,,,
,,,,,,,,,,,right.png,,p,right,60e5eceb989f38c746723024,2021-10-27_12h09.47.835,arrow_simon_punish,2021.1.2,Win32,32.33420636,,,,,,,,,,,,,,p,1,1.6563,2.333319131,1,1,10,3,43,1,1,,,,,,,,,,,,,,
,,,,,,,,,,,right.png,,p,right,60e5eceb989f38c746723024,2021-10-27_12h09.47.835,arrow_simon_punish,2021.1.2,Win32,32.33420636,,,,,,,,,,,,,,p,1,1.8635,2.485091363,1,1,11,0,44,1,1,,,,,,,,,,,,,,
,,,,,,,,,,,right.png,,p,right,60e5eceb989f38c746723024,2021-10-27_12h09.47.835,arrow_simon_punish,2021.1.2,Win32,32.33420636,,,,,,,,,,,,,,p,1,1.5783,2.221676656,0,1,11,1,45,1,1,,,,,,,,,,,,,,
,,,,,,,,,,,left.png,,w,right,60e5eceb989f38c746723024,2021-10-27_12h09.47.835,arrow_simon_punish,2021.1.2,Win32,32.33420636,,,,,,,,,,,,,,w,1,1.5163,2.003169929,0,1,11,2,46,3,1,,,,,,,,,,,,,,
,,,,,,,,,,,left.png,,w,left,60e5eceb989f38c746723024,2021-10-27_12h09.47.835,arrow_simon_punish,2021.1.2,Win32,32.33420636,,,,,,,,,,,,,,w,1,1.5494,2.042135581,0,1,11,3,47,2,1,,,,,,,,,,,,,,
,,,,,,,,,,,right.png,,p,right,60e5eceb989f38c746723024,2021-10-27_12h09.47.835,arrow_simon_punish,2021.1.2,Win32,32.33420636,,,,,,,,,,,,,,p,1,1.3803,1.767323506,1,1,12,0,48,1,1,,,,,,,,,,,,,,
,,,,,,,,,,,left.png,,w,right,60e5eceb989f38c746723024,2021-10-27_12h09.47.835,arrow_simon_punish,2021.1.2,Win32,32.33420636,,,,,,,,,,,,,,w,1,1.5222,1.880626094,0,1,12,1,49,3,1,,,,,,,,,,,,,,
,,,,,,,,,,,left.png,,w,right,60e5eceb989f38c746723024,2021-10-27_12h09.47.835,arrow_simon_punish,2021.1.2,Win32,32.33420636,,,,,,,,,,,,,,w,1,1.453,1.840564315,0,1,12,2,50,3,1,,,,,,,,,,,,,,
,,,,,,,,,,,right.png,,p,left,60e5eceb989f38c746723024,2021-10-27_12h09.47.835,arrow_simon_punish,2021.1.2,Win32,32.33420636,,,,,,,,,,,,,,p,1,1.4592,1.888908993,0,1,12,3,51,0,1,,,,,,,,,,,,,,
,,,,,,,,,,,right.png,,p,right,60e5eceb989f38c746723024,2021-10-27_12h09.47.835,arrow_simon_punish,2021.1.2,Win32,32.33420636,,,,,,,,,,,,,,p,1,1.5879,1.779883036,0,1,13,0,52,1,1,,,,,,,,,,,,,,
,,,,,,,,,,,right.png,,p,right,60e5eceb989f38c746723024,2021-10-27_12h09.47.835,arrow_simon_punish,2021.1.2,Win32,32.33420636,,,,,,,,,,,,,,p,1,1.8594,2.492860309,1,1,13,1,53,1,1,,,,,,,,,,,,,,
,,,,,,,,,,,right.png,,p,left,60e5eceb989f38c746723024,2021-10-27_12h09.47.835,arrow_simon_punish,2021.1.2,Win32,32.33420636,,,,,,,,,,,,,,p,1,1.4806,1.995551524,0,1,13,2,54,0,1,,,,,,,,,,,,,,
,,,,,,,,,,,left.png,,w,left,60e5eceb989f38c746723024,2021-10-27_12h09.47.835,arrow_simon_punish,2021.1.2,Win32,32.33420636,,,,,,,,,,,,,,w,1,1.4798,2.051459979,0,1,13,3,55,2,1,,,,,,,,,,,,,,
,,,,,,,,,,,left.png,,w,left,60e5eceb989f38c746723024,2021-10-27_12h09.47.835,arrow_simon_punish,2021.1.2,Win32,32.33420636,,,,,,,,,,,,,,w,1,1.5866,2.24879395,0,1,14,0,56,2,1,,,,,,,,,,,,,,
,,,,,,,,,,,left.png,,w,left,60e5eceb989f38c746723024,2021-10-27_12h09.47.835,arrow_simon_punish,2021.1.2,Win32,32.33420636,,,,,,,,,,,,,,w,1,1.4365,1.769760717,0,1,14,1,57,2,1,,,,,,,,,,,,,,
,,,,,,,,,,,left.png,,w,right,60e5eceb989f38c746723024,2021-10-27_12h09.47.835,arrow_simon_punish,2021.1.2,Win32,32.33420636,,,,,,,,,,,,,,p,0,1.5552,2.419789306,1,1,14,2,58,3,1,,,,,,,,,,,,,,
,,,,,,,,,,,left.png,,w,right,60e5eceb989f38c746723024,2021-10-27_12h09.47.835,arrow_simon_punish,2021.1.2,Win32,32.33420636,,,,,,,,,,,,,,p,0,1.3817,1.923061523,1,1,14,3,59,3,1,,,,,,,,,,,,,,
,,,,,,,,,,,,,,,60e5eceb989f38c746723024,2021-10-27_12h09.47.835,arrow_simon_punish,2021.1.2,Win32,32.33420636,,,,,,,,,,,,,,,,,,,,,,,,,space,456.2652,2,0,0,0,0,1,1,,,,,
,,,,,,,,,,,right.png,,p,right,60e5eceb989f38c746723024,2021-10-27_12h09.47.835,arrow_simon_punish,2021.1.2,Win32,32.33420636,,,,,,,,,,,,,,p,1,1.6166,2.287052276,1,5,0,0,0,1,1,,,,,,,,,,,,,,
,,,,,,,,,,,right.png,,p,right,60e5eceb989f38c746723024,2021-10-27_12h09.47.835,arrow_simon_punish,2021.1.2,Win32,32.33420636,,,,,,,,,,,,,,p,1,1.6625,2.367873799,1,5,0,1,1,1,1,,,,,,,,,,,,,,
,,,,,,,,,,,left.png,,w,right,60e5eceb989f38c746723024,2021-10-27_12h09.47.835,arrow_simon_punish,2021.1.2,Win32,32.33420636,,,,,,,,,,,,,,w,1,0.9687,1.547431257,1,5,0,2,2,3,1,,,,,,,,,,,,,,
,,,,,,,,,,,right.png,,p,right,60e5eceb989f38c746723024,2021-10-27_12h09.47.835,arrow_simon_punish,2021.1.2,Win32,32.33420636,,,,,,,,,,,,,,p,1,1.5509,2.079918798,0,5,0,3,3,1,1,,,,,,,,,,,,,,
,,,,,,,,,,,left.png,,w,left,60e5eceb989f38c746723024,2021-10-27_12h09.47.835,arrow_simon_punish,2021.1.2,Win32,32.33420636,,,,,,,,,,,,,,w,1,1.5478,2.234961417,0,5,1,0,4,2,1,,,,,,,,,,,,,,
,,,,,,,,,,,left.png,,w,right,60e5eceb989f38c746723024,2021-10-27_12h09.47.835,arrow_simon_punish,2021.1.2,Win32,32.33420636,,,,,,,,,,,,,,p,0,1.4119,2.07405482,1,5,1,1,5,3,1,,,,,,,,,,,,,,
,,,,,,,,,,,left.png,,w,left,60e5eceb989f38c746723024,2021-10-27_12h09.47.835,arrow_simon_punish,2021.1.2,Win32,32.33420636,,,,,,,,,,,,,,w,1,1.3631,1.94912327,1,5,1,2,6,2,1,,,,,,,,,,,,,,
,,,,,,,,,,,right.png,,p,left,60e5eceb989f38c746723024,2021-10-27_12h09.47.835,arrow_simon_punish,2021.1.2,Win32,32.33420636,,,,,,,,,,,,,,w,0,1.3744,1.97754293,1,5,1,3,7,0,1,,,,,,,,,,,,,,
,,,,,,,,,,,left.png,,w,right,60e5eceb989f38c746723024,2021-10-27_12h09.47.835,arrow_simon_punish,2021.1.2,Win32,32.33420636,,,,,,,,,,,,,,p,0,1.5364,2.328020093,1,5,2,0,8,3,1,,,,,,,,,,,,,,
,,,,,,,,,,,left.png,,w,right,60e5eceb989f38c746723024,2021-10-27_12h09.47.835,arrow_simon_punish,2021.1.2,Win32,32.33420636,,,,,,,,,,,,,,p,0,1.4708,2.010614075,1,5,2,1,9,3,1,,,,,,,,,,,,,,
,,,,,,,,,,,right.png,,p,left,60e5eceb989f38c746723024,2021-10-27_12h09.47.835,arrow_simon_punish,2021.1.2,Win32,32.33420636,,,,,,,,,,,,,,p,1,1.2388,1.734537669,1,5,2,2,10,0,1,,,,,,,,,,,,,,
,,,,,,,,,,,left.png,,w,left,60e5eceb989f38c746723024,2021-10-27_12h09.47.835,arrow_simon_punish,2021.1.2,Win32,32.33420636,,,,,,,,,,,,,,w,1,1.406,2.08126222,0,5,2,3,11,2,1,,,,,,,,,,,,,,
,,,,,,,,,,,left.png,,w,right,60e5eceb989f38c746723024,2021-10-27_12h09.47.835,arrow_simon_punish,2021.1.2,Win32,32.33420636,,,,,,,,,,,,,,p,0,1.5476,1.996192712,1,5,3,0,12,3,1,,,,,,,,,,,,,,
,,,,,,,,,,,right.png,,p,left,60e5eceb989f38c746723024,2021-10-27_12h09.47.835,arrow_simon_punish,2021.1.2,Win32,32.33420636,,,,,,,,,,,,,,w,0,1.229,1.7319765,1,5,3,1,13,0,1,,,,,,,,,,,,,,
,,,,,,,,,,,left.png,,w,right,60e5eceb989f38c746723024,2021-10-27_12h09.47.835,arrow_simon_punish,2021.1.2,Win32,32.33420636,,,,,,,,,,,,,,w,1,1.5828,2.124206698,0,5,3,2,14,3,1,,,,,,,,,,,,,,
,,,,,,,,,,,right.png,,p,right,60e5eceb989f38c746723024,2021-10-27_12h09.47.835,arrow_simon_punish,2021.1.2,Win32,32.33420636,,,,,,,,,,,,,,p,1,1.4738,1.544424975,0,5,3,3,15,1,1,,,,,,,,,,,,,,
,,,,,,,,,,,right.png,,p,right,60e5eceb989f38c746723024,2021-10-27_12h09.47.835,arrow_simon_punish,2021.1.2,Win32,32.33420636,,,,,,,,,,,,,,p,1,1.4659,2.066774956,0,5,4,0,16,1,1,,,,,,,,,,,,,,
,,,,,,,,,,,right.png,,p,left,60e5eceb989f38c746723024,2021-10-27_12h09.47.835,arrow_simon_punish,2021.1.2,Win32,32.33420636,,,,,,,,,,,,,,p,1,1.7881,2.35533627,1,5,4,1,17,0,1,,,,,,,,,,,,,,
,,,,,,,,,,,left.png,,w,right,60e5eceb989f38c746723024,2021-10-27_12h09.47.835,arrow_simon_punish,2021.1.2,Win32,32.33420636,,,,,,,,,,,,,,p,0,1.6872,2.321556124,1,5,4,2,18,3,1,,,,,,,,,,,,,,
,,,,,,,,,,,left.png,,w,left,60e5eceb989f38c746723024,2021-10-27_12h09.47.835,arrow_simon_punish,2021.1.2,Win32,32.33420636,,,,,,,,,,,,,,w,1,1.6367,2.470718992,1,5,4,3,19,2,1,,,,,,,,,,,,,,
,,,,,,,,,,,right.png,,p,left,60e5eceb989f38c746723024,2021-10-27_12h09.47.835,arrow_simon_punish,2021.1.2,Win32,32.33420636,,,,,,,,,,,,,,p,1,1.5877,1.985410201,0,5,5,0,20,0,1,,,,,,,,,,,,,,
,,,,,,,,,,,right.png,,p,left,60e5eceb989f38c746723024,2021-10-27_12h09.47.835,arrow_simon_punish,2021.1.2,Win32,32.33420636,,,,,,,,,,,,,,p,1,1.6415,2.332967421,1,5,5,1,21,0,1,,,,,,,,,,,,,,
,,,,,,,,,,,left.png,,w,right,60e5eceb989f38c746723024,2021-10-27_12h09.47.835,arrow_simon_punish,2021.1.2,Win32,32.33420636,,,,,,,,,,,,,,w,1,1.4778,1.713697468,0,5,5,2,22,3,1,,,,,,,,,,,,,,
,,,,,,,,,,,right.png,,p,left,60e5eceb989f38c746723024,2021-10-27_12h09.47.835,arrow_simon_punish,2021.1.2,Win32,32.33420636,,,,,,,,,,,,,,w,0,1.5818,2.282838774,1,5,5,3,23,0,1,,,,,,,,,,,,,,
,,,,,,,,,,,right.png,,p,left,60e5eceb989f38c746723024,2021-10-27_12h09.47.835,arrow_simon_punish,2021.1.2,Win32,32.33420636,,,,,,,,,,,,,,p,1,1.5453,2.204618179,0,5,6,0,24,0,1,,,,,,,,,,,,,,
,,,,,,,,,,,right.png,,p,left,60e5eceb989f38c746723024,2021-10-27_12h09.47.835,arrow_simon_punish,2021.1.2,Win32,32.33420636,,,,,,,,,,,,,,w,0,1.3636,1.822883546,1,5,6,1,25,0,1,,,,,,,,,,,,,,
,,,,,,,,,,,left.png,,w,left,60e5eceb989f38c746723024,2021-10-27_12h09.47.835,arrow_simon_punish,2021.1.2,Win32,32.33420636,,,,,,,,,,,,,,p,0,1.5512,2.281937781,1,5,6,2,26,2,1,,,,,,,,,,,,,,
,,,,,,,,,,,right.png,,p,left,60e5eceb989f38c746723024,2021-10-27_12h09.47.835,arrow_simon_punish,2021.1.2,Win32,32.33420636,,,,,,,,,,,,,,p,1,1.4721,1.521863967,0,5,6,3,27,0,1,,,,,,,,,,,,,,
,,,,,,,,,,,left.png,,w,left,60e5eceb989f38c746723024,2021-10-27_12h09.47.835,arrow_simon_punish,2021.1.2,Win32,32.33420636,,,,,,,,,,,,,,w,1,1.6649,2.360310804,1,5,7,0,28,2,1,,,,,,,,,,,,,,
,,,,,,,,,,,right.png,,p,right,60e5eceb989f38c746723024,2021-10-27_12h09.47.835,arrow_simon_punish,2021.1.2,Win32,32.33420636,,,,,,,,,,,,,,p,1,1.5635,1.511662141,0,5,7,1,29,1,1,,,,,,,,,,,,,,
,,,,,,,,,,,left.png,,w,left,60e5eceb989f38c746723024,2021-10-27_12h09.47.835,arrow_simon_punish,2021.1.2,Win32,32.33420636,,,,,,,,,,,,,,p,0,1.6169,2.44378274,1,5,7,2,30,2,1,,,,,,,,,,,,,,
,,,,,,,,,,,left.png,,w,right,60e5eceb989f38c746723024,2021-10-27_12h09.47.835,arrow_simon_punish,2021.1.2,Win32,32.33420636,,,,,,,,,,,,,,w,1,1.475,1.511569387,0,5,7,3,31,3,1,,,,,,,,,,,,,,
,,,,,,,,,,,right.png,,p,right,60e5eceb989f38c746723024,2021-10-27_12h09.47.835,arrow_simon_punish,2021.1.2,Win32,32.33420636,,,,,,,,,,,,,,p,1,1.5267,1.97274884,0,5,8,0,32,1,1,,,,,,,,,,,,,,
,,,,,,,,,,,left.png,,w,left,60e5eceb989f38c746723024,2021-10-27_12h09.47.835,arrow_simon_punish,2021.1.2,Win32,32.33420636,,,,,,,,,,,,,,w,1,1.4759,1.543230094,0,5,8,1,33,2,1,,,,,,,,,,,,,,
,,,,,,,,,,,left.png,,w,left,60e5eceb989f38c746723024,2021-10-27_12h09.47.835,arrow_simon_punish,2021.1.2,Win32,32.33420636,,,,,,,,,,,,,,w,1,1.3916,1.714841131,1,5,8,2,34,2,1,,,,,,,,,,,,,,
,,,,,,,,,,,right.png,,p,right,60e5eceb989f38c746723024,2021-10-27_12h09.47.835,arrow_simon_punish,2021.1.2,Win32,32.33420636,,,,,,,,,,,,,,p,1,1.3615,1.931426697,1,5,8,3,35,1,1,,,,,,,,,,,,,,
,,,,,,,,,,,right.png,,p,left,60e5eceb989f38c746723024,2021-10-27_12h09.47.835,arrow_simon_punish,2021.1.2,Win32,32.33420636,,,,,,,,,,,,,,w,0,1.6598,2.356829831,1,5,9,0,36,0,1,,,,,,,,,,,,,,
,,,,,,,,,,,left.png,,w,right,60e5eceb989f38c746723024,2021-10-27_12h09.47.835,arrow_simon_punish,2021.1.2,Win32,32.33420636,,,,,,,,,,,,,,p,0,1.64,2.498366776,1,5,9,1,37,3,1,,,,,,,,,,,,,,
,,,,,,,,,,,right.png,,p,left,60e5eceb989f38c746723024,2021-10-27_12h09.47.835,arrow_simon_punish,2021.1.2,Win32,32.33420636,,,,,,,,,,,,,,w,0,0.7637,1.590778454,1,5,9,2,38,0,1,,,,,,,,,,,,,,
,,,,,,,,,,,left.png,,w,left,60e5eceb989f38c746723024,2021-10-27_12h09.47.835,arrow_simon_punish,2021.1.2,Win32,32.33420636,,,,,,,,,,,,,,w,1,1.2632,1.583619773,1,5,9,3,39,2,1,,,,,,,,,,,,,,
,,,,,,,,,,,left.png,,w,left,60e5eceb989f38c746723024,2021-10-27_12h09.47.835,arrow_simon_punish,2021.1.2,Win32,32.33420636,,,,,,,,,,,,,,p,0,1.5055,2.171428335,1,5,10,0,40,2,1,,,,,,,,,,,,,,
,,,,,,,,,,,right.png,,p,right,60e5eceb989f38c746723024,2021-10-27_12h09.47.835,arrow_simon_punish,2021.1.2,Win32,32.33420636,,,,,,,,,,,,,,w,0,1.6098,2.25207623,1,5,10,1,41,1,1,,,,,,,,,,,,,,
,,,,,,,,,,,left.png,,w,right,60e5eceb989f38c746723024,2021-10-27_12h09.47.835,arrow_simon_punish,2021.1.2,Win32,32.33420636,,,,,,,,,,,,,,w,1,1.1395,1.58651447,1,5,10,2,42,3,1,,,,,,,,,,,,,,
,,,,,,,,,,,left.png,,w,left,60e5eceb989f38c746723024,2021-10-27_12h09.47.835,arrow_simon_punish,2021.1.2,Win32,32.33420636,,,,,,,,,,,,,,w,1,1.5006,1.501366917,0,5,10,3,43,2,1,,,,,,,,,,,,,,
,,,,,,,,,,,left.png,,w,right,60e5eceb989f38c746723024,2021-10-27_12h09.47.835,arrow_simon_punish,2021.1.2,Win32,32.33420636,,,,,,,,,,,,,,w,1,1.4831,1.521623495,0,5,11,0,44,3,1,,,,,,,,,,,,,,
,,,,,,,,,,,left.png,,w,left,60e5eceb989f38c746723024,2021-10-27_12h09.47.835,arrow_simon_punish,2021.1.2,Win32,32.33420636,,,,,,,,,,,,,,p,0,1.3098,1.60113734,1,5,11,1,45,2,1,,,,,,,,,,,,,,
,,,,,,,,,,,right.png,,p,right,60e5eceb989f38c746723024,2021-10-27_12h09.47.835,arrow_simon_punish,2021.1.2,Win32,32.33420636,,,,,,,,,,,,,,p,1,1.2083,2.409847587,1,5,11,2,46,1,1,,,,,,,,,,,,,,
,,,,,,,,,,,right.png,,p,left,60e5eceb989f38c746723024,2021-10-27_12h09.47.835,arrow_simon_punish,2021.1.2,Win32,32.33420636,,,,,,,,,,,,,,p,1,1.3313,1.655972697,1,5,11,3,47,0,1,,,,,,,,,,,,,,
,,,,,,,,,,,left.png,,w,right,60e5eceb989f38c746723024,2021-10-27_12h09.47.835,arrow_simon_punish,2021.1.2,Win32,32.33420636,,,,,,,,,,,,,,w,1,1.5421,1.562186744,0,5,12,0,48,3,1,,,,,,,,,,,,,,
,,,,,,,,,,,right.png,,p,right,60e5eceb989f38c746723024,2021-10-27_12h09.47.835,arrow_simon_punish,2021.1.2,Win32,32.33420636,,,,,,,,,,,,,,p,1,1.5251,2.22201764,0,5,12,1,49,1,1,,,,,,,,,,,,,,
,,,,,,,,,,,left.png,,w,right,60e5eceb989f38c746723024,2021-10-27_12h09.47.835,arrow_simon_punish,2021.1.2,Win32,32.33420636,,,,,,,,,,,,,,w,1,1.52,1.580562988,0,5,12,2,50,3,1,,,,,,,,,,,,,,
,,,,,,,,,,,right.png,,p,left,60e5eceb989f38c746723024,2021-10-27_12h09.47.835,arrow_simon_punish,2021.1.2,Win32,32.33420636,,,,,,,,,,,,,,w,0,1.7368,2.377474856,1,5,12,3,51,0,1,,,,,,,,,,,,,,
,,,,,,,,,,,right.png,,p,right,60e5eceb989f38c746723024,2021-10-27_12h09.47.835,arrow_simon_punish,2021.1.2,Win32,32.33420636,,,,,,,,,,,,,,p,1,1.1932,1.871205591,1,5,13,0,52,1,1,,,,,,,,,,,,,,
,,,,,,,,,,,left.png,,w,right,60e5eceb989f38c746723024,2021-10-27_12h09.47.835,arrow_simon_punish,2021.1.2,Win32,32.33420636,,,,,,,,,,,,,,w,1,0.7472,2.18506514,1,5,13,1,53,3,1,,,,,,,,,,,,,,
,,,,,,,,,,,right.png,,p,right,60e5eceb989f38c746723024,2021-10-27_12h09.47.835,arrow_simon_punish,2021.1.2,Win32,32.33420636,,,,,,,,,,,,,,w,0,0.9607,2.08475452,1,5,13,2,54,1,1,,,,,,,,,,,,,,
,,,,,,,,,,,left.png,,w,left,60e5eceb989f38c746723024,2021-10-27_12h09.47.835,arrow_simon_punish,2021.1.2,Win32,32.33420636,,,,,,,,,,,,,,w,1,1.3906,1.867968887,1,5,13,3,55,2,1,,,,,,,,,,,,,,
,,,,,,,,,,,right.png,,p,right,60e5eceb989f38c746723024,2021-10-27_12h09.47.835,arrow_simon_punish,2021.1.2,Win32,32.33420636,,,,,,,,,,,,,,p,1,1.6326,1.993833523,1,5,14,0,56,1,1,,,,,,,,,,,,,,
,,,,,,,,,,,right.png,,p,left,60e5eceb989f38c746723024,2021-10-27_12h09.47.835,arrow_simon_punish,2021.1.2,Win32,32.33420636,,,,,,,,,,,,,,w,0,1.604,1.984924365,1,5,14,1,57,0,1,,,,,,,,,,,,,,
,,,,,,,,,,,right.png,,p,right,60e5eceb989f38c746723024,2021-10-27_12h09.47.835,arrow_simon_punish,2021.1.2,Win32,32.33420636,,,,,,,,,,,,,,p,1,1.5183,1.561433912,0,5,14,2,58,1,1,,,,,,,,,,,,,,
,,,,,,,,,,,left.png,,w,left,60e5eceb989f38c746723024,2021-10-27_12h09.47.835,arrow_simon_punish,2021.1.2,Win32,32.33420636,,,,,,,,,,,,,,w,1,1.6819,2.370906421,1,5,14,3,59,2,1,,,,,,,,,,,,,,
,,,,,,,,,,,,,,,60e5eceb989f38c746723024,2021-10-27_12h09.47.835,arrow_simon_punish,2021.1.2,Win32,32.33420636,,,,,,,,,,,,,,,,,,,,,,,,,space,50.3689,3,0,1,1,1,1,5,,,,,
,,,,,,,,,,,right.png,,p,right,60e5eceb989f38c746723024,2021-10-27_12h09.47.835,arrow_simon_punish,2021.1.2,Win32,32.33420636,,,,,,,,,,,,,,p,1,1.5965,2.165777148,0,1,0,0,0,1,1,,,,,,,,,,,,,,
,,,,,,,,,,,left.png,,w,left,60e5eceb989f38c746723024,2021-10-27_12h09.47.835,arrow_simon_punish,2021.1.2,Win32,32.33420636,,,,,,,,,,,,,,w,1,1.4516,1.928821032,0,1,0,1,1,2,1,,,,,,,,,,,,,,
,,,,,,,,,,,right.png,,p,right,60e5eceb989f38c746723024,2021-10-27_12h09.47.835,arrow_simon_punish,2021.1.2,Win32,32.33420636,,,,,,,,,,,,,,p,1,1.1986,1.559486296,1,1,0,2,2,1,1,,,,,,,,,,,,,,
,,,,,,,,,,,left.png,,w,right,60e5eceb989f38c746723024,2021-10-27_12h09.47.835,arrow_simon_punish,2021.1.2,Win32,32.33420636,,,,,,,,,,,,,,w,1,1.612,2.086337465,1,1,0,3,3,3,1,,,,,,,,,,,,,,
,,,,,,,,,,,right.png,,p,right,60e5eceb989f38c746723024,2021-10-27_12h09.47.835,arrow_simon_punish,2021.1.2,Win32,32.33420636,,,,,,,,,,,,,,p,1,1.4548,1.823697708,0,1,1,0,4,1,1,,,,,,,,,,,,,,
,,,,,,,,,,,right.png,,p,left,60e5eceb989f38c746723024,2021-10-27_12h09.47.835,arrow_simon_punish,2021.1.2,Win32,32.33420636,,,,,,,,,,,,,,p,1,1.5153,1.877795881,0,1,1,1,5,0,1,,,,,,,,,,,,,,
,,,,,,,,,,,right.png,,p,left,60e5eceb989f38c746723024,2021-10-27_12h09.47.835,arrow_simon_punish,2021.1.2,Win32,32.33420636,,,,,,,,,,,,,,p,1,1.6753,2.19835467,1,1,1,2,6,0,1,,,,,,,,,,,,,,
,,,,,,,,,,,right.png,,p,left,60e5eceb989f38c746723024,2021-10-27_12h09.47.835,arrow_simon_punish,2021.1.2,Win32,32.33420636,,,,,,,,,,,,,,p,1,1.5495,1.848764106,0,1,1,3,7,0,1,,,,,,,,,,,,,,
,,,,,,,,,,,left.png,,w,left,60e5eceb989f38c746723024,2021-10-27_12h09.47.835,arrow_simon_punish,2021.1.2,Win32,32.33420636,,,,,,,,,,,,,,w,1,1.5399,1.752581483,0,1,2,0,8,2,1,,,,,,,,,,,,,,
,,,,,,,,,,,right.png,,p,right,60e5eceb989f38c746723024,2021-10-27_12h09.47.835,arrow_simon_punish,2021.1.2,Win32,32.33420636,,,,,,,,,,,,,,p,1,1.7215,2.38485628,1,1,2,1,9,1,1,,,,,,,,,,,,,,
,,,,,,,,,,,left.png,,w,right,60e5eceb989f38c746723024,2021-10-27_12h09.47.835,arrow_simon_punish,2021.1.2,Win32,32.33420636,,,,,,,,,,,,,,w,1,1.6111,1.547622639,1,1,2,2,10,3,1,,,,,,,,,,,,,,
,,,,,,,,,,,left.png,,w,right,60e5eceb989f38c746723024,2021-10-27_12h09.47.835,arrow_simon_punish,2021.1.2,Win32,32.33420636,,,,,,,,,,,,,,w,1,1.5427,1.920824961,0,1,2,3,11,3,1,,,,,,,,,,,,,,
,,,,,,,,,,,left.png,,w,right,60e5eceb989f38c746723024,2021-10-27_12h09.47.835,arrow_simon_punish,2021.1.2,Win32,32.33420636,,,,,,,,,,,,,,w,1,1.593,1.544559676,0,1,3,0,12,3,1,,,,,,,,,,,,,,
,,,,,,,,,,,right.png,,p,left,60e5eceb989f38c746723024,2021-10-27_12h09.47.835,arrow_simon_punish,2021.1.2,Win32,32.33420636,,,,,,,,,,,,,,p,1,1.5454,1.506241966,0,1,3,1,13,0,1,,,,,,,,,,,,,,
,,,,,,,,,,,left.png,,w,right,60e5eceb989f38c746723024,2021-10-27_12h09.47.835,arrow_simon_punish,2021.1.2,Win32,32.33420636,,,,,,,,,,,,,,w,1,1.5604,1.625102376,0,1,3,2,14,3,1,,,,,,,,,,,,,,
,,,,,,,,,,,left.png,,w,left,60e5eceb989f38c746723024,2021-10-27_12h09.47.835,arrow_simon_punish,2021.1.2,Win32,32.33420636,,,,,,,,,,,,,,w,1,1.4834,1.692036118,0,1,3,3,15,2,1,,,,,,,,,,,,,,
,,,,,,,,,,,right.png,,p,right,60e5eceb989f38c746723024,2021-10-27_12h09.47.835,arrow_simon_punish,2021.1.2,Win32,32.33420636,,,,,,,,,,,,,,p,1,1.5931,2.367581508,0,1,4,0,16,1,1,,,,,,,,,,,,,,
,,,,,,,,,,,left.png,,w,right,60e5eceb989f38c746723024,2021-10-27_12h09.47.835,arrow_simon_punish,2021.1.2,Win32,32.33420636,,,,,,,,,,,,,,w,1,1.7601,2.237962975,1,1,4,1,17,3,1,,,,,,,,,,,,,,
,,,,,,,,,,,right.png,,p,left,60e5eceb989f38c746723024,2021-10-27_12h09.47.835,arrow_simon_punish,2021.1.2,Win32,32.33420636,,,,,,,,,,,,,,p,1,1.6449,2.172812711,1,1,4,2,18,0,1,,,,,,,,,,,,,,
,,,,,,,,,,,left.png,,w,right,60e5eceb989f38c746723024,2021-10-27_12h09.47.835,arrow_simon_punish,2021.1.2,Win32,32.33420636,,,,,,,,,,,,,,w,1,1.4967,1.687716221,0,1,4,3,19,3,1,,,,,,,,,,,,,,
,,,,,,,,,,,right.png,,p,right,60e5eceb989f38c746723024,2021-10-27_12h09.47.835,arrow_simon_punish,2021.1.2,Win32,32.33420636,,,,,,,,,,,,,,p,1,1.7796,2.470022623,1,1,5,0,20,1,1,,,,,,,,,,,,,,
,,,,,,,,,,,left.png,,w,right,60e5eceb989f38c746723024,2021-10-27_12h09.47.835,arrow_simon_punish,2021.1.2,Win32,32.33420636,,,,,,,,,,,,,,w,1,1.5645,2.140033212,0,1,5,1,21,3,1,,,,,,,,,,,,,,
,,,,,,,,,,,right.png,,p,right,60e5eceb989f38c746723024,2021-10-27_12h09.47.835,arrow_simon_punish,2021.1.2,Win32,32.33420636,,,,,,,,,,,,,,p,1,1.5555,2.142133127,0,1,5,2,22,1,1,,,,,,,,,,,,,,
,,,,,,,,,,,right.png,,p,right,60e5eceb989f38c746723024,2021-10-27_12h09.47.835,arrow_simon_punish,2021.1.2,Win32,32.33420636,,,,,,,,,,,,,,p,1,1.5959,1.917963359,0,1,5,3,23,1,1,,,,,,,,,,,,,,
,,,,,,,,,,,left.png,,w,left,60e5eceb989f38c746723024,2021-10-27_12h09.47.835,arrow_simon_punish,2021.1.2,Win32,32.33420636,,,,,,,,,,,,,,w,1,1.5238,1.570468618,0,1,6,0,24,2,1,,,,,,,,,,,,,,
,,,,,,,,,,,right.png,,p,left,60e5eceb989f38c746723024,2021-10-27_12h09.47.835,arrow_simon_punish,2021.1.2,Win32,32.33420636,,,,,,,,,,,,,,w,0,1.6155,2.14688916,1,1,6,1,25,0,1,,,,,,,,,,,,,,
,,,,,,,,,,,right.png,,p,right,60e5eceb989f38c746723024,2021-10-27_12h09.47.835,arrow_simon_punish,2021.1.2,Win32,32.33420636,,,,,,,,,,,,,,p,1,1.5677,1.948408363,0,1,6,2,26,1,1,,,,,,,,,,,,,,
,,,,,,,,,,,right.png,,p,left,60e5eceb989f38c746723024,2021-10-27_12h09.47.835,arrow_simon_punish,2021.1.2,Win32,32.33420636,,,,,,,,,,,,,,p,1,1.5958,2.097848062,0,1,6,3,27,0,1,,,,,,,,,,,,,,
,,,,,,,,,,,left.png,,w,left,60e5eceb989f38c746723024,2021-10-27_12h09.47.835,arrow_simon_punish,2021.1.2,Win32,32.33420636,,,,,,,,,,,,,,w,1,1.6271,2.195776932,1,1,7,0,28,2,1,,,,,,,,,,,,,,
,,,,,,,,,,,left.png,,w,left,60e5eceb989f38c746723024,2021-10-27_12h09.47.835,arrow_simon_punish,2021.1.2,Win32,32.33420636,,,,,,,,,,,,,,w,1,1.5255,1.567579622,0,1,7,1,29,2,1,,,,,,,,,,,,,,
,,,,,,,,,,,left.png,,w,right,60e5eceb989f38c746723024,2021-10-27_12h09.47.835,arrow_simon_punish,2021.1.2,Win32,32.33420636,,,,,,,,,,,,,,p,0,1.5642,2.266572826,1,1,7,2,30,3,1,,,,,,,,,,,,,,
,,,,,,,,,,,left.png,,w,left,60e5eceb989f38c746723024,2021-10-27_12h09.47.835,arrow_simon_punish,2021.1.2,Win32,32.33420636,,,,,,,,,,,,,,w,1,1.5289,1.531539769,0,1,7,3,31,2,1,,,,,,,,,,,,,,
,,,,,,,,,,,right.png,,p,right,60e5eceb989f38c746723024,2021-10-27_12h09.47.835,arrow_simon_punish,2021.1.2,Win32,32.33420636,,,,,,,,,,,,,,p,1,1.5935,1.946220907,0,1,8,0,32,1,1,,,,,,,,,,,,,,
,,,,,,,,,,,right.png,,p,left,60e5eceb989f38c746723024,2021-10-27_12h09.47.835,arrow_simon_punish,2021.1.2,Win32,32.33420636,,,,,,,,,,,,,,p,1,1.577,1.61939693,0,1,8,1,33,0,1,,,,,,,,,,,,,,
,,,,,,,,,,,left.png,,w,right,60e5eceb989f38c746723024,2021-10-27_12h09.47.835,arrow_simon_punish,2021.1.2,Win32,32.33420636,,,,,,,,,,,,,,w,1,1.5383,1.828427478,0,1,8,2,34,3,1,,,,,,,,,,,,,,
,,,,,,,,,,,left.png,,w,left,60e5eceb989f38c746723024,2021-10-27_12h09.47.835,arrow_simon_punish,2021.1.2,Win32,32.33420636,,,,,,,,,,,,,,w,1,1.5667,1.742081545,0,1,8,3,35,2,1,,,,,,,,,,,,,,
,,,,,,,,,,,right.png,,p,right,60e5eceb989f38c746723024,2021-10-27_12h09.47.835,arrow_simon_punish,2021.1.2,Win32,32.33420636,,,,,,,,,,,,,,p,1,1.5791,1.698582278,0,1,9,0,36,1,1,,,,,,,,,,,,,,
,,,,,,,,,,,right.png,,p,left,60e5eceb989f38c746723024,2021-10-27_12h09.47.835,arrow_simon_punish,2021.1.2,Win32,32.33420636,,,,,,,,,,,,,,p,1,1.685,1.989969291,1,1,9,1,37,0,1,,,,,,,,,,,,,,
,,,,,,,,,,,right.png,,p,left,60e5eceb989f38c746723024,2021-10-27_12h09.47.835,arrow_simon_punish,2021.1.2,Win32,32.33420636,,,,,,,,,,,,,,w,0,1.7024,2.341683128,1,1,9,2,38,0,1,,,,,,,,,,,,,,
,,,,,,,,,,,left.png,,w,right,60e5eceb989f38c746723024,2021-10-27_12h09.47.835,arrow_simon_punish,2021.1.2,Win32,32.33420636,,,,,,,,,,,,,,p,0,1.6665,2.219224021,1,1,9,3,39,3,1,,,,,,,,,,,,,,
,,,,,,,,,,,left.png,,w,right,60e5eceb989f38c746723024,2021-10-27_12h09.47.835,arrow_simon_punish,2021.1.2,Win32,32.33420636,,,,,,,,,,,,,,w,1,1.5347,1.649349443,0,1,10,0,40,3,1,,,,,,,,,,,,,,
,,,,,,,,,,,right.png,,p,left,60e5eceb989f38c746723024,2021-10-27_12h09.47.835,arrow_simon_punish,2021.1.2,Win32,32.33420636,,,,,,,,,,,,,,w,0,1.5112,1.560553029,1,1,10,1,41,0,1,,,,,,,,,,,,,,
,,,,,,,,,,,left.png,,w,left,60e5eceb989f38c746723024,2021-10-27_12h09.47.835,arrow_simon_punish,2021.1.2,Win32,32.33420636,,,,,,,,,,,,,,w,1,1.532,1.931722974,0,1,10,2,42,2,1,,,,,,,,,,,,,,
,,,,,,,,,,,left.png,,w,left,60e5eceb989f38c746723024,2021-10-27_12h09.47.835,arrow_simon_punish,2021.1.2,Win32,32.33420636,,,,,,,,,,,,,,w,1,1.5932,2.161436525,0,1,10,3,43,2,1,,,,,,,,,,,,,,
,,,,,,,,,,,left.png,,w,left,60e5eceb989f38c746723024,2021-10-27_12h09.47.835,arrow_simon_punish,2021.1.2,Win32,32.33420636,,,,,,,,,,,,,,w,1,1.5153,1.771973038,0,1,11,0,44,2,1,,,,,,,,,,,,,,
,,,,,,,,,,,right.png,,p,left,60e5eceb989f38c746723024,2021-10-27_12h09.47.835,arrow_simon_punish,2021.1.2,Win32,32.33420636,,,,,,,,,,,,,,p,1,1.6526,2.369736982,1,1,11,1,45,0,1,,,,,,,,,,,,,,
,,,,,,,,,,,right.png,,p,right,60e5eceb989f38c746723024,2021-10-27_12h09.47.835,arrow_simon_punish,2021.1.2,Win32,32.33420636,,,,,,,,,,,,,,p,1,1.5714,1.959433727,0,1,11,2,46,1,1,,,,,,,,,,,,,,
,,,,,,,,,,,right.png,,p,left,60e5eceb989f38c746723024,2021-10-27_12h09.47.835,arrow_simon_punish,2021.1.2,Win32,32.33420636,,,,,,,,,,,,,,p,1,1.4452,1.902871212,0,1,11,3,47,0,1,,,,,,,,,,,,,,
,,,,,,,,,,,right.png,,p,left,60e5eceb989f38c746723024,2021-10-27_12h09.47.835,arrow_simon_punish,2021.1.2,Win32,32.33420636,,,,,,,,,,,,,,p,1,1.8862,2.491828133,1,1,12,0,48,0,1,,,,,,,,,,,,,,
,,,,,,,,,,,right.png,,p,left,60e5eceb989f38c746723024,2021-10-27_12h09.47.835,arrow_simon_punish,2021.1.2,Win32,32.33420636,,,,,,,,,,,,,,p,1,1.488,1.623080381,0,1,12,1,49,0,1,,,,,,,,,,,,,,
,,,,,,,,,,,left.png,,w,left,60e5eceb989f38c746723024,2021-10-27_12h09.47.835,arrow_simon_punish,2021.1.2,Win32,32.33420636,,,,,,,,,,,,,,w,1,1.5059,2.158134057,0,1,12,2,50,2,1,,,,,,,,,,,,,,
,,,,,,,,,,,left.png,,w,left,60e5eceb989f38c746723024,2021-10-27_12h09.47.835,arrow_simon_punish,2021.1.2,Win32,32.33420636,,,,,,,,,,,,,,w,1,1.5011,1.712009444,0,1,12,3,51,2,1,,,,,,,,,,,,,,
,,,,,,,,,,,right.png,,p,right,60e5eceb989f38c746723024,2021-10-27_12h09.47.835,arrow_simon_punish,2021.1.2,Win32,32.33420636,,,,,,,,,,,,,,p,1,1.4379,1.774694625,0,1,13,0,52,1,1,,,,,,,,,,,,,,
,,,,,,,,,,,left.png,,w,left,60e5eceb989f38c746723024,2021-10-27_12h09.47.835,arrow_simon_punish,2021.1.2,Win32,32.33420636,,,,,,,,,,,,,,w,1,1.4856,2.073651388,0,1,13,1,53,2,1,,,,,,,,,,,,,,
,,,,,,,,,,,left.png,,w,right,60e5eceb989f38c746723024,2021-10-27_12h09.47.835,arrow_simon_punish,2021.1.2,Win32,32.33420636,,,,,,,,,,,,,,w,1,1.4982,1.691623376,0,1,13,2,54,3,1,,,,,,,,,,,,,,
,,,,,,,,,,,right.png,,p,right,60e5eceb989f38c746723024,2021-10-27_12h09.47.835,arrow_simon_punish,2021.1.2,Win32,32.33420636,,,,,,,,,,,,,,p,1,1.5874,2.452712236,0,1,13,3,55,1,1,,,,,,,,,,,,,,
,,,,,,,,,,,left.png,,w,left,60e5eceb989f38c746723024,2021-10-27_12h09.47.835,arrow_simon_punish,2021.1.2,Win32,32.33420636,,,,,,,,,,,,,,w,1,1.5055,2.017821734,0,1,14,0,56,2,1,,,,,,,,,,,,,,
,,,,,,,,,,,right.png,,p,right,60e5eceb989f38c746723024,2021-10-27_12h09.47.835,arrow_simon_punish,2021.1.2,Win32,32.33420636,,,,,,,,,,,,,,p,1,1.569,1.880967103,0,1,14,1,57,1,1,,,,,,,,,,,,,,
,,,,,,,,,,,left.png,,w,right,60e5eceb989f38c746723024,2021-10-27_12h09.47.835,arrow_simon_punish,2021.1.2,Win32,32.33420636,,,,,,,,,,,,,,w,1,1.5277,2.11446628,0,1,14,2,58,3,1,,,,,,,,,,,,,,
,,,,,,,,,,,left.png,,w,right,60e5eceb989f38c746723024,2021-10-27_12h09.47.835,arrow_simon_punish,2021.1.2,Win32,32.33420636,,,,,,,,,,,,,,w,1,1.6247,2.013791989,1,1,14,3,59,3,1,,,,,,,,,,,,,,
,,,,,,,,,,,,,,,60e5eceb989f38c746723024,2021-10-27_12h09.47.835,arrow_simon_punish,2021.1.2,Win32,32.33420636,,,,,,,,,,,,,,,,,,,,,,,,,space,17.0776,4,1,0,2,0,1,1,,,,,
,,,,,,,,,,,left.png,,w,left,60e5eceb989f38c746723024,2021-10-27_12h09.47.835,arrow_simon_punish,2021.1.2,Win32,32.33420636,,,,,,,,,,,,,,w,1,1.6665,1.988322016,1,5,0,0,0,2,1,,,,,,,,,,,,,,
,,,,,,,,,,,left.png,,w,left,60e5eceb989f38c746723024,2021-10-27_12h09.47.835,arrow_simon_punish,2021.1.2,Win32,32.33420636,,,,,,,,,,,,,,w,1,1.576,2.306878766,0,5,0,1,1,2,1,,,,,,,,,,,,,,
,,,,,,,,,,,right.png,,p,right,60e5eceb989f38c746723024,2021-10-27_12h09.47.835,arrow_simon_punish,2021.1.2,Win32,32.33420636,,,,,,,,,,,,,,p,1,1.5301,2.09760708,0,5,0,2,2,1,1,,,,,,,,,,,,,,
,,,,,,,,,,,right.png,,p,right,60e5eceb989f38c746723024,2021-10-27_12h09.47.835,arrow_simon_punish,2021.1.2,Win32,32.33420636,,,,,,,,,,,,,,p,1,1.5521,2.351596172,0,5,0,3,3,1,1,,,,,,,,,,,,,,
,,,,,,,,,,,right.png,,p,left,60e5eceb989f38c746723024,2021-10-27_12h09.47.835,arrow_simon_punish,2021.1.2,Win32,32.33420636,,,,,,,,,,,,,,p,1,1.5658,1.662407484,0,5,1,0,4,0,1,,,,,,,,,,,,,,
,,,,,,,,,,,right.png,,p,right,60e5eceb989f38c746723024,2021-10-27_12h09.47.835,arrow_simon_punish,2021.1.2,Win32,32.33420636,,,,,,,,,,,,,,p,1,1.5431,1.745668548,0,5,1,1,5,1,1,,,,,,,,,,,,,,
,,,,,,,,,,,left.png,,w,left,60e5eceb989f38c746723024,2021-10-27_12h09.47.835,arrow_simon_punish,2021.1.2,Win32,32.33420636,,,,,,,,,,,,,,w,1,1.5975,2.035684101,0,5,1,2,6,2,1,,,,,,,,,,,,,,
,,,,,,,,,,,right.png,,p,right,60e5eceb989f38c746723024,2021-10-27_12h09.47.835,arrow_simon_punish,2021.1.2,Win32,32.33420636,,,,,,,,,,,,,,p,1,1.5884,1.68176397,0,5,1,3,7,1,1,,,,,,,,,,,,,,
,,,,,,,,,,,right.png,,p,left,60e5eceb989f38c746723024,2021-10-27_12h09.47.835,arrow_simon_punish,2021.1.2,Win32,32.33420636,,,,,,,,,,,,,,p,1,1.5005,1.767398816,0,5,2,0,8,0,1,,,,,,,,,,,,,,
,,,,,,,,,,,left.png,,w,right,60e5eceb989f38c746723024,2021-10-27_12h09.47.835,arrow_simon_punish,2021.1.2,Win32,32.33420636,,,,,,,,,,,,,,w,1,1.5876,2.126629507,0,5,2,1,9,3,1,,,,,,,,,,,,,,
,,,,,,,,,,,right.png,,p,left,60e5eceb989f38c746723024,2021-10-27_12h09.47.835,arrow_simon_punish,2021.1.2,Win32,32.33420636,,,,,,,,,,,,,,p,1,1.5031,1.523443296,0,5,2,2,10,0,1,,,,,,,,,,,,,,
,,,,,,,,,,,right.png,,p,left,60e5eceb989f38c746723024,2021-10-27_12h09.47.835,arrow_simon_punish,2021.1.2,Win32,32.33420636,,,,,,,,,,,,,,p,1,1.582,2.122192285,0,5,2,3,11,0,1,,,,,,,,,,,,,,
,,,,,,,,,,,left.png,,w,left,60e5eceb989f38c746723024,2021-10-27_12h09.47.835,arrow_simon_punish,2021.1.2,Win32,32.33420636,,,,,,,,,,,,,,w,1,1.4856,1.616117863,0,5,3,0,12,2,1,,,,,,,,,,,,,,
,,,,,,,,,,,left.png,,w,right,60e5eceb989f38c746723024,2021-10-27_12h09.47.835,arrow_simon_punish,2021.1.2,Win32,32.33420636,,,,,,,,,,,,,,p,0,1.5649,2.217749168,1,5,3,1,13,3,1,,,,,,,,,,,,,,
,,,,,,,,,,,right.png,,p,left,60e5eceb989f38c746723024,2021-10-27_12h09.47.835,arrow_simon_punish,2021.1.2,Win32,32.33420636,,,,,,,,,,,,,,p,1,1.8859,2.481114825,1,5,3,2,14,0,1,,,,,,,,,,,,,,
,,,,,,,,,,,right.png,,p,right,60e5eceb989f38c746723024,2021-10-27_12h09.47.835,arrow_simon_punish,2021.1.2,Win32,32.33420636,,,,,,,,,,,,,,p,1,1.4959,1.903101083,0,5,3,3,15,1,1,,,,,,,,,,,,,,
,,,,,,,,,,,right.png,,p,left,60e5eceb989f38c746723024,2021-10-27_12h09.47.835,arrow_simon_punish,2021.1.2,Win32,32.33420636,,,,,,,,,,,,,,p,1,1.5479,1.618129533,0,5,4,0,16,0,1,,,,,,,,,,,,,,
,,,,,,,,,,,left.png,,w,left,60e5eceb989f38c746723024,2021-10-27_12h09.47.835,arrow_simon_punish,2021.1.2,Win32,32.33420636,,,,,,,,,,,,,,w,1,1.5916,1.957354246,0,5,4,1,17,2,1,,,,,,,,,,,,,,
,,,,,,,,,,,right.png,,p,right,60e5eceb989f38c746723024,2021-10-27_12h09.47.835,arrow_simon_punish,2021.1.2,Win32,32.33420636,,,,,,,,,,,,,,p,1,1.5822,1.942599507,0,5,4,2,18,1,1,,,,,,,,,,,,,,
,,,,,,,,,,,right.png,,p,right,60e5eceb989f38c746723024,2021-10-27_12h09.47.835,arrow_simon_punish,2021.1.2,Win32,32.33420636,,,,,,,,,,,,,,p,1,1.4838,2.071878111,0,5,4,3,19,1,1,,,,,,,,,,,,,,
,,,,,,,,,,,left.png,,w,right,60e5eceb989f38c746723024,2021-10-27_12h09.47.835,arrow_simon_punish,2021.1.2,Win32,32.33420636,,,,,,,,,,,,,,w,1,1.6106,2.129693867,1,5,5,0,20,3,1,,,,,,,,,,,,,,
,,,,,,,,,,,left.png,,w,left,60e5eceb989f38c746723024,2021-10-27_12h09.47.835,arrow_simon_punish,2021.1.2,Win32,32.33420636,,,,,,,,,,,,,,w,1,1.5782,2.277906229,0,5,5,1,21,2,1,,,,,,,,,,,,,,
,,,,,,,,,,,right.png,,p,right,60e5eceb989f38c746723024,2021-10-27_12h09.47.835,arrow_simon_punish,2021.1.2,Win32,32.33420636,,,,,,,,,,,,,,p,1,1.5329,1.626572775,0,5,5,2,22,1,1,,,,,,,,,,,,,,
,,,,,,,,,,,left.png,,w,left,60e5eceb989f38c746723024,2021-10-27_12h09.47.835,arrow_simon_punish,2021.1.2,Win32,32.33420636,,,,,,,,,,,,,,w,1,1.5667,2.229201076,0,5,5,3,23,2,1,,,,,,,,,,,,,,
,,,,,,,,,,,left.png,,w,left,60e5eceb989f38c746723024,2021-10-27_12h09.47.835,arrow_simon_punish,2021.1.2,Win32,32.33420636,,,,,,,,,,,,,,w,1,1.5237,1.790494179,0,5,6,0,24,2,1,,,,,,,,,,,,,,
,,,,,,,,,,,left.png,,w,right,60e5eceb989f38c746723024,2021-10-27_12h09.47.835,arrow_simon_punish,2021.1.2,Win32,32.33420636,,,,,,,,,,,,,,w,1,1.527,1.625278423,0,5,6,1,25,3,1,,,,,,,,,,,,,,
,,,,,,,,,,,left.png,,w,right,60e5eceb989f38c746723024,2021-10-27_12h09.47.835,arrow_simon_punish,2021.1.2,Win32,32.33420636,,,,,,,,,,,,,,w,1,1.5381,1.927272426,0,5,6,2,26,3,1,,,,,,,,,,,,,,
,,,,,,,,,,,left.png,,w,right,60e5eceb989f38c746723024,2021-10-27_12h09.47.835,arrow_simon_punish,2021.1.2,Win32,32.33420636,,,,,,,,,,,,,,w,1,1.5364,1.906160153,0,5,6,3,27,3,1,,,,,,,,,,,,,,
,,,,,,,,,,,left.png,,w,left,60e5eceb989f38c746723024,2021-10-27_12h09.47.835,arrow_simon_punish,2021.1.2,Win32,32.33420636,,,,,,,,,,,,,,w,1,1.5609,1.743550771,0,5,7,0,28,2,1,,,,,,,,,,,,,,
,,,,,,,,,,,left.png,,w,right,60e5eceb989f38c746723024,2021-10-27_12h09.47.835,arrow_simon_punish,2021.1.2,Win32,32.33420636,,,,,,,,,,,,,,w,1,0.0788,1.822778744,1,5,7,1,29,3,1,,,,,,,,,,,,,,
,,,,,,,,,,,left.png,,w,right,60e5eceb989f38c746723024,2021-10-27_12h09.47.835,arrow_simon_punish,2021.1.2,Win32,32.33420636,,,,,,,,,,,,,,w,1,1.7804,2.490986009,1,5,7,2,30,3,1,,,,,,,,,,,,,,
,,,,,,,,,,,left.png,,w,right,60e5eceb989f38c746723024,2021-10-27_12h09.47.835,arrow_simon_punish,2021.1.2,Win32,32.33420636,,,,,,,,,,,,,,w,1,1.4999,1.544861242,0,5,7,3,31,3,1,,,,,,,,,,,,,,
,,,,,,,,,,,right.png,,p,left,60e5eceb989f38c746723024,2021-10-27_12h09.47.835,arrow_simon_punish,2021.1.2,Win32,32.33420636,,,,,,,,,,,,,,p,1,1.5583,1.968399866,0,5,8,0,32,0,1,,,,,,,,,,,,,,
,,,,,,,,,,,left.png,,w,right,60e5eceb989f38c746723024,2021-10-27_12h09.47.835,arrow_simon_punish,2021.1.2,Win32,32.33420636,,,,,,,,,,,,,,p,0,1.6185,2.263656083,1,5,8,1,33,3,1,,,,,,,,,,,,,,
,,,,,,,,,,,right.png,,p,left,60e5eceb989f38c746723024,2021-10-27_12h09.47.835,arrow_simon_punish,2021.1.2,Win32,32.33420636,,,,,,,,,,,,,,w,0,1.618,2.261754376,1,5,8,2,34,0,1,,,,,,,,,,,,,,
,,,,,,,,,,,left.png,,w,right,60e5eceb989f38c746723024,2021-10-27_12h09.47.835,arrow_simon_punish,2021.1.2,Win32,32.33420636,,,,,,,,,,,,,,w,1,1.551,1.619675141,0,5,8,3,35,3,1,,,,,,,,,,,,,,
,,,,,,,,,,,right.png,,p,left,60e5eceb989f38c746723024,2021-10-27_12h09.47.835,arrow_simon_punish,2021.1.2,Win32,32.33420636,,,,,,,,,,,,,,w,0,1.4831,1.55220141,1,5,9,0,36,0,1,,,,,,,,,,,,,,
,,,,,,,,,,,right.png,,p,right,60e5eceb989f38c746723024,2021-10-27_12h09.47.835,arrow_simon_punish,2021.1.2,Win32,32.33420636,,,,,,,,,,,,,,p,1,1.6464,2.195686105,1,5,9,1,37,1,1,,,,,,,,,,,,,,
,,,,,,,,,,,right.png,,p,left,60e5eceb989f38c746723024,2021-10-27_12h09.47.835,arrow_simon_punish,2021.1.2,Win32,32.33420636,,,,,,,,,,,,,,p,1,1.5711,1.860909433,0,5,9,2,38,0,1,,,,,,,,,,,,,,
,,,,,,,,,,,left.png,,w,right,60e5eceb989f38c746723024,2021-10-27_12h09.47.835,arrow_simon_punish,2021.1.2,Win32,32.33420636,,,,,,,,,,,,,,w,1,1.5294,1.909221005,0,5,9,3,39,3,1,,,,,,,,,,,,,,
,,,,,,,,,,,right.png,,p,right,60e5eceb989f38c746723024,2021-10-27_12h09.47.835,arrow_simon_punish,2021.1.2,Win32,32.33420636,,,,,,,,,,,,,,p,1,1.7922,2.430246141,1,5,10,0,40,1,1,,,,,,,,,,,,,,
,,,,,,,,,,,right.png,,p,right,60e5eceb989f38c746723024,2021-10-27_12h09.47.835,arrow_simon_punish,2021.1.2,Win32,32.33420636,,,,,,,,,,,,,,p,1,1.7382,2.423824013,1,5,10,1,41,1,1,,,,,,,,,,,,,,
,,,,,,,,,,,left.png,,w,left,60e5eceb989f38c746723024,2021-10-27_12h09.47.835,arrow_simon_punish,2021.1.2,Win32,32.33420636,,,,,,,,,,,,,,w,1,1.5435,1.664443216,0,5,10,2,42,2,1,,,,,,,,,,,,,,
,,,,,,,,,,,left.png,,w,right,60e5eceb989f38c746723024,2021-10-27_12h09.47.835,arrow_simon_punish,2021.1.2,Win32,32.33420636,,,,,,,,,,,,,,w,1,1.5113,1.700106622,0,5,10,3,43,3,1,,,,,,,,,,,,,,
,,,,,,,,,,,left.png,,w,right,60e5eceb989f38c746723024,2021-10-27_12h09.47.835,arrow_simon_punish,2021.1.2,Win32,32.33420636,,,,,,,,,,,,,,p,0,1.6066,2.216814725,1,5,11,0,44,3,1,,,,,,,,,,,,,,
,,,,,,,,,,,right.png,,p,left,60e5eceb989f38c746723024,2021-10-27_12h09.47.835,arrow_simon_punish,2021.1.2,Win32,32.33420636,,,,,,,,,,,,,,p,1,1.651,1.982828767,1,5,11,1,45,0,1,,,,,,,,,,,,,,
,,,,,,,,,,,right.png,,p,left,60e5eceb989f38c746723024,2021-10-27_12h09.47.835,arrow_simon_punish,2021.1.2,Win32,32.33420636,,,,,,,,,,,,,,p,1,1.5998,1.837558467,0,5,11,2,46,0,1,,,,,,,,,,,,,,
,,,,,,,,,,,right.png,,p,left,60e5eceb989f38c746723024,2021-10-27_12h09.47.835,arrow_simon_punish,2021.1.2,Win32,32.33420636,,,,,,,,,,,,,,p,1,1.5298,1.601438363,0,5,11,3,47,0,1,,,,,,,,,,,,,,
,,,,,,,,,,,right.png,,p,right,60e5eceb989f38c746723024,2021-10-27_12h09.47.835,arrow_simon_punish,2021.1.2,Win32,32.33420636,,,,,,,,,,,,,,p,1,1.6649,2.333562914,1,5,12,0,48,1,1,,,,,,,,,,,,,,
,,,,,,,,,,,right.png,,p,left,60e5eceb989f38c746723024,2021-10-27_12h09.47.835,arrow_simon_punish,2021.1.2,Win32,32.33420636,,,,,,,,,,,,,,p,1,1.5581,1.943691774,0,5,12,1,49,0,1,,,,,,,,,,,,,,
,,,,,,,,,,,left.png,,w,left,60e5eceb989f38c746723024,2021-10-27_12h09.47.835,arrow_simon_punish,2021.1.2,Win32,32.33420636,,,,,,,,,,,,,,p,0,1.6346,2.158681646,1,5,12,2,50,2,1,,,,,,,,,,,,,,
,,,,,,,,,,,right.png,,p,left,60e5eceb989f38c746723024,2021-10-27_12h09.47.835,arrow_simon_punish,2021.1.2,Win32,32.33420636,,,,,,,,,,,,,,w,0,1.6253,2.154717806,1,5,12,3,51,0,1,,,,,,,,,,,,,,
,,,,,,,,,,,left.png,,w,left,60e5eceb989f38c746723024,2021-10-27_12h09.47.835,arrow_simon_punish,2021.1.2,Win32,32.33420636,,,,,,,,,,,,,,w,1,1.6155,2.202758539,1,5,13,0,52,2,1,,,,,,,,,,,,,,
,,,,,,,,,,,right.png,,p,right,60e5eceb989f38c746723024,2021-10-27_12h09.47.835,arrow_simon_punish,2021.1.2,Win32,32.33420636,,,,,,,,,,,,,,p,1,1.5513,1.919405161,0,5,13,1,53,1,1,,,,,,,,,,,,,,
,,,,,,,,,,,right.png,,p,right,60e5eceb989f38c746723024,2021-10-27_12h09.47.835,arrow_simon_punish,2021.1.2,Win32,32.33420636,,,,,,,,,,,,,,p,1,1.5289,1.705936832,0,5,13,2,54,1,1,,,,,,,,,,,,,,
,,,,,,,,,,,left.png,,w,left,60e5eceb989f38c746723024,2021-10-27_12h09.47.835,arrow_simon_punish,2021.1.2,Win32,32.33420636,,,,,,,,,,,,,,w,1,1.8092,2.418483676,1,5,13,3,55,2,1,,,,,,,,,,,,,,
,,,,,,,,,,,right.png,,p,right,60e5eceb989f38c746723024,2021-10-27_12h09.47.835,arrow_simon_punish,2021.1.2,Win32,32.33420636,,,,,,,,,,,,,,p,1,1.6435,2.363956965,1,5,14,0,56,1,1,,,,,,,,,,,,,,
,,,,,,,,,,,left.png,,w,left,60e5eceb989f38c746723024,2021-10-27_12h09.47.835,arrow_simon_punish,2021.1.2,Win32,32.33420636,,,,,,,,,,,,,,w,1,1.4969,2.097775506,0,5,14,1,57,2,1,,,,,,,,,,,,,,
,,,,,,,,,,,left.png,,w,left,60e5eceb989f38c746723024,2021-10-27_12h09.47.835,arrow_simon_punish,2021.1.2,Win32,32.33420636,,,,,,,,,,,,,,w,1,1.6576,2.286734797,1,5,14,2,58,2,1,,,,,,,,,,,,,,
,,,,,,,,,,,left.png,,w,right,60e5eceb989f38c746723024,2021-10-27_12h09.47.835,arrow_simon_punish,2021.1.2,Win32,32.33420636,,,,,,,,,,,,,,w,1,1.573,1.835478808,0,5,14,3,59,3,1,,,,,,,,,,,,,,
,,,,,,,,,,,,,,,60e5eceb989f38c746723024,2021-10-27_12h09.47.835,arrow_simon_punish,2021.1.2,Win32,32.33420636,,,,,,,,,,,,,,,,,,,,,,,,,space,1.6482,5,1,1,3,1,1,5,,,,,
,,,,,,,,,,,right.png,,p,left,60e5eceb989f38c746723024,2021-10-27_12h09.47.835,arrow_simon_punish,2021.1.2,Win32,32.33420636,,,,,,,,,,,,,,p,1,2.1483,2.46625807,1,1,0,0,0,0,1,,,,,,,,,,,,,,
,,,,,,,,,,,right.png,,p,right,60e5eceb989f38c746723024,2021-10-27_12h09.47.835,arrow_simon_punish,2021.1.2,Win32,32.33420636,,,,,,,,,,,,,,p,1,1.5984,2.268801303,0,1,0,1,1,1,1,,,,,,,,,,,,,,
,,,,,,,,,,,left.png,,w,right,60e5eceb989f38c746723024,2021-10-27_12h09.47.835,arrow_simon_punish,2021.1.2,Win32,32.33420636,,,,,,,,,,,,,,w,1,1.5545,2.111485305,0,1,0,2,2,3,1,,,,,,,,,,,,,,
,,,,,,,,,,,right.png,,p,left,60e5eceb989f38c746723024,2021-10-27_12h09.47.835,arrow_simon_punish,2021.1.2,Win32,32.33420636,,,,,,,,,,,,,,w,0,1.5313,2.26899424,1,1,0,3,3,0,1,,,,,,,,,,,,,,
,,,,,,,,,,,left.png,,w,left,60e5eceb989f38c746723024,2021-10-27_12h09.47.835,arrow_simon_punish,2021.1.2,Win32,32.33420636,,,,,,,,,,,,,,w,1,1.498,1.510042083,0,1,1,0,4,2,1,,,,,,,,,,,,,,
,,,,,,,,,,,left.png,,w,left,60e5eceb989f38c746723024,2021-10-27_12h09.47.835,arrow_simon_punish,2021.1.2,Win32,32.33420636,,,,,,,,,,,,,,w,1,1.5201,1.595848135,0,1,1,1,5,2,1,,,,,,,,,,,,,,
,,,,,,,,,,,right.png,,p,right,60e5eceb989f38c746723024,2021-10-27_12h09.47.835,arrow_simon_punish,2021.1.2,Win32,32.33420636,,,,,,,,,,,,,,p,1,1.431,1.992300058,0,1,1,2,6,1,1,,,,,,,,,,,,,,
,,,,,,,,,,,right.png,,p,right,60e5eceb989f38c746723024,2021-10-27_12h09.47.835,arrow_simon_punish,2021.1.2,Win32,32.33420636,,,,,,,,,,,,,,p,1,1.5695,2.257050446,0,1,1,3,7,1,1,,,,,,,,,,,,,,
,,,,,,,,,,,left.png,,w,left,60e5eceb989f38c746723024,2021-10-27_12h09.47.835,arrow_simon_punish,2021.1.2,Win32,32.33420636,,,,,,,,,,,,,,w,1,1.5982,2.334391602,0,1,2,0,8,2,1,,,,,,,,,,,,,,
,,,,,,,,,,,right.png,,p,right,60e5eceb989f38c746723024,2021-10-27_12h09.47.835,arrow_simon_punish,2021.1.2,Win32,32.33420636,,,,,,,,,,,,,,p,1,1.5936,2.274905332,0,1,2,1,9,1,1,,,,,,,,,,,,,,
,,,,,,,,,,,right.png,,p,right,60e5eceb989f38c746723024,2021-10-27_12h09.47.835,arrow_simon_punish,2021.1.2,Win32,32.33420636,,,,,,,,,,,,,,p,1,1.5938,2.242305155,0,1,2,2,10,1,1,,,,,,,,,,,,,,
,,,,,,,,,,,left.png,,w,right,60e5eceb989f38c746723024,2021-10-27_12h09.47.835,arrow_simon_punish,2021.1.2,Win32,32.33420636,,,,,,,,,,,,,,w,1,1.5464,1.720813759,0,1,2,3,11,3,1,,,,,,,,,,,,,,
,,,,,,,,,,,left.png,,w,right,60e5eceb989f38c746723024,2021-10-27_12h09.47.835,arrow_simon_punish,2021.1.2,Win32,32.33420636,,,,,,,,,,,,,,w,1,1.6072,2.117076526,1,1,3,0,12,3,1,,,,,,,,,,,,,,
,,,,,,,,,,,left.png,,w,left,60e5eceb989f38c746723024,2021-10-27_12h09.47.835,arrow_simon_punish,2021.1.2,Win32,32.33420636,,,,,,,,,,,,,,w,1,1.5472,1.557156942,0,1,3,1,13,2,1,,,,,,,,,,,,,,
,,,,,,,,,,,left.png,,w,left,60e5eceb989f38c746723024,2021-10-27_12h09.47.835,arrow_simon_punish,2021.1.2,Win32,32.33420636,,,,,,,,,,,,,,p,0,1.6378,2.461567163,1,1,3,2,14,2,1,,,,,,,,,,,,,,
,,,,,,,,,,,right.png,,p,left,60e5eceb989f38c746723024,2021-10-27_12h09.47.835,arrow_simon_punish,2021.1.2,Win32,32.33420636,,,,,,,,,,,,,,p,1,1.6734,2.222080944,1,1,3,3,15,0,1,,,,,,,,,,,,,,
,,,,,,,,,,,right.png,,p,right,60e5eceb989f38c746723024,2021-10-27_12h09.47.835,arrow_simon_punish,2021.1.2,Win32,32.33420636,,,,,,,,,,,,,,p,1,1.5975,1.948354663,0,1,4,0,16,1,1,,,,,,,,,,,,,,
,,,,,,,,,,,right.png,,p,left,60e5eceb989f38c746723024,2021-10-27_12h09.47.835,arrow_simon_punish,2021.1.2,Win32,32.33420636,,,,,,,,,,,,,,p,1,1.5711,1.867943718,0,1,4,1,17,0,1,,,,,,,,,,,,,,
,,,,,,,,,,,left.png,,w,left,60e5eceb989f38c746723024,2021-10-27_12h09.47.835,arrow_simon_punish,2021.1.2,Win32,32.33420636,,,,,,,,,,,,,,w,1,1.6038,2.039711103,1,1,4,2,18,2,1,,,,,,,,,,,,,,
,,,,,,,,,,,left.png,,w,left,60e5eceb989f38c746723024,2021-10-27_12h09.47.835,arrow_simon_punish,2021.1.2,Win32,32.33420636,,,,,,,,,,,,,,w,1,1.5547,2.221455189,0,1,4,3,19,2,1,,,,,,,,,,,,,,
,,,,,,,,,,,left.png,,w,right,60e5eceb989f38c746723024,2021-10-27_12h09.47.835,arrow_simon_punish,2021.1.2,Win32,32.33420636,,,,,,,,,,,,,,p,0,1.1465,2.107908117,1,1,5,0,20,3,1,,,,,,,,,,,,,,
,,,,,,,,,,,right.png,,p,right,60e5eceb989f38c746723024,2021-10-27_12h09.47.835,arrow_simon_punish,2021.1.2,Win32,32.33420636,,,,,,,,,,,,,,p,1,1.6122,2.331511711,1,1,5,1,21,1,1,,,,,,,,,,,,,,
,,,,,,,,,,,right.png,,p,left,60e5eceb989f38c746723024,2021-10-27_12h09.47.835,arrow_simon_punish,2021.1.2,Win32,32.33420636,,,,,,,,,,,,,,p,1,1.5834,2.130940742,0,1,5,2,22,0,1,,,,,,,,,,,,,,
,,,,,,,,,,,left.png,,w,right,60e5eceb989f38c746723024,2021-10-27_12h09.47.835,arrow_simon_punish,2021.1.2,Win32,32.33420636,,,,,,,,,,,,,,w,1,1.5835,1.905163071,0,1,5,3,23,3,1,,,,,,,,,,,,,,
,,,,,,,,,,,right.png,,p,right,60e5eceb989f38c746723024,2021-10-27_12h09.47.835,arrow_simon_punish,2021.1.2,Win32,32.33420636,,,,,,,,,,,,,,p,1,1.5915,2.232000266,0,1,6,0,24,1,1,,,,,,,,,,,,,,
,,,,,,,,,,,right.png,,p,left,60e5eceb989f38c746723024,2021-10-27_12h09.47.835,arrow_simon_punish,2021.1.2,Win32,32.33420636,,,,,,,,,,,,,,w,0,1.7263,2.394532196,1,1,6,1,25,0,1,,,,,,,,,,,,,,
,,,,,,,,,,,right.png,,p,left,60e5eceb989f38c746723024,2021-10-27_12h09.47.835,arrow_simon_punish,2021.1.2,Win32,32.33420636,,,,,,,,,,,,,,p,1,1.6027,2.290391487,1,1,6,2,26,0,1,,,,,,,,,,,,,,
,,,,,,,,,,,right.png,,p,left,60e5eceb989f38c746723024,2021-10-27_12h09.47.835,arrow_simon_punish,2021.1.2,Win32,32.33420636,,,,,,,,,,,,,,p,1,1.5603,1.995034211,0,1,6,3,27,0,1,,,,,,,,,,,,,,
,,,,,,,,,,,left.png,,w,right,60e5eceb989f38c746723024,2021-10-27_12h09.47.835,arrow_simon_punish,2021.1.2,Win32,32.33420636,,,,,,,,,,,,,,w,1,1.4806,1.621135916,0,1,7,0,28,3,1,,,,,,,,,,,,,,
,,,,,,,,,,,left.png,,w,right,60e5eceb989f38c746723024,2021-10-27_12h09.47.835,arrow_simon_punish,2021.1.2,Win32,32.33420636,,,,,,,,,,,,,,w,1,1.5338,1.857054825,0,1,7,1,29,3,1,,,,,,,,,,,,,,
,,,,,,,,,,,right.png,,p,right,60e5eceb989f38c746723024,2021-10-27_12h09.47.835,arrow_simon_punish,2021.1.2,Win32,32.33420636,,,,,,,,,,,,,,p,1,1.5536,2.237218934,0,1,7,2,30,1,1,,,,,,,,,,,,,,
,,,,,,,,,,,left.png,,w,left,60e5eceb989f38c746723024,2021-10-27_12h09.47.835,arrow_simon_punish,2021.1.2,Win32,32.33420636,,,,,,,,,,,,,,p,0,1.6104,2.242711154,1,1,7,3,31,2,1,,,,,,,,,,,,,,
,,,,,,,,,,,right.png,,p,left,60e5eceb989f38c746723024,2021-10-27_12h09.47.835,arrow_simon_punish,2021.1.2,Win32,32.33420636,,,,,,,,,,,,,,p,1,1.5336,1.821762253,0,1,8,0,32,0,1,,,,,,,,,,,,,,
,,,,,,,,,,,left.png,,w,right,60e5eceb989f38c746723024,2021-10-27_12h09.47.835,arrow_simon_punish,2021.1.2,Win32,32.33420636,,,,,,,,,,,,,,p,0,1.5984,2.251702864,1,1,8,1,33,3,1,,,,,,,,,,,,,,
,,,,,,,,,,,right.png,,p,left,60e5eceb989f38c746723024,2021-10-27_12h09.47.835,arrow_simon_punish,2021.1.2,Win32,32.33420636,,,,,,,,,,,,,,p,1,1.7568,2.102345271,1,1,8,2,34,0,1,,,,,,,,,,,,,,
,,,,,,,,,,,left.png,,w,left,60e5eceb989f38c746723024,2021-10-27_12h09.47.835,arrow_simon_punish,2021.1.2,Win32,32.33420636,,,,,,,,,,,,,,w,1,1.1039,1.631769556,1,1,8,3,35,2,1,,,,,,,,,,,,,,
,,,,,,,,,,,left.png,,w,left,60e5eceb989f38c746723024,2021-10-27_12h09.47.835,arrow_simon_punish,2021.1.2,Win32,32.33420636,,,,,,,,,,,,,,w,1,1.6067,1.717068007,1,1,9,0,36,2,1,,,,,,,,,,,,,,
,,,,,,,,,,,right.png,,p,left,60e5eceb989f38c746723024,2021-10-27_12h09.47.835,arrow_simon_punish,2021.1.2,Win32,32.33420636,,,,,,,,,,,,,,w,0,1.5313,2.217983474,1,1,9,1,37,0,1,,,,,,,,,,,,,,
,,,,,,,,,,,right.png,,p,left,60e5eceb989f38c746723024,2021-10-27_12h09.47.835,arrow_simon_punish,2021.1.2,Win32,32.33420636,,,,,,,,,,,,,,p,1,1.5022,1.693312442,0,1,9,2,38,0,1,,,,,,,,,,,,,,
,,,,,,,,,,,left.png,,w,right,60e5eceb989f38c746723024,2021-10-27_12h09.47.835,arrow_simon_punish,2021.1.2,Win32,32.33420636,,,,,,,,,,,,,,w,1,1.4991,2.017904482,0,1,9,3,39,3,1,,,,,,,,,,,,,,
,,,,,,,,,,,left.png,,w,right,60e5eceb989f38c746723024,2021-10-27_12h09.47.835,arrow_simon_punish,2021.1.2,Win32,32.33420636,,,,,,,,,,,,,,w,1,1.4941,1.64228497,0,1,10,0,40,3,1,,,,,,,,,,,,,,
,,,,,,,,,,,left.png,,w,left,60e5eceb989f38c746723024,2021-10-27_12h09.47.835,arrow_simon_punish,2021.1.2,Win32,32.33420636,,,,,,,,,,,,,,w,1,1.5205,2.196051425,0,1,10,1,41,2,1,,,,,,,,,,,,,,
,,,,,,,,,,,left.png,,w,right,60e5eceb989f38c746723024,2021-10-27_12h09.47.835,arrow_simon_punish,2021.1.2,Win32,32.33420636,,,,,,,,,,,,,,w,1,1.6109,2.077859353,1,1,10,2,42,3,1,,,,,,,,,,,,,,
,,,,,,,,,,,right.png,,p,left,60e5eceb989f38c746723024,2021-10-27_12h09.47.835,arrow_simon_punish,2021.1.2,Win32,32.33420636,,,,,,,,,,,,,,p,1,1.6247,2.071364948,1,1,10,3,43,0,1,,,,,,,,,,,,,,
,,,,,,,,,,,right.png,,p,right,60e5eceb989f38c746723024,2021-10-27_12h09.47.835,arrow_simon_punish,2021.1.2,Win32,32.33420636,,,,,,,,,,,,,,p,1,1.6174,2.290910671,1,1,11,0,44,1,1,,,,,,,,,,,,,,
,,,,,,,,,,,left.png,,w,right,60e5eceb989f38c746723024,2021-10-27_12h09.47.835,arrow_simon_punish,2021.1.2,Win32,32.33420636,,,,,,,,,,,,,,p,0,1.6185,2.273529664,1,1,11,1,45,3,1,,,,,,,,,,,,,,
,,,,,,,,,,,left.png,,w,right,60e5eceb989f38c746723024,2021-10-27_12h09.47.835,arrow_simon_punish,2021.1.2,Win32,32.33420636,,,,,,,,,,,,,,w,1,1.6184,2.152149229,1,1,11,2,46,3,1,,,,,,,,,,,,,,
,,,,,,,,,,,left.png,,w,left,60e5eceb989f38c746723024,2021-10-27_12h09.47.835,arrow_simon_punish,2021.1.2,Win32,32.33420636,,,,,,,,,,,,,,w,1,1.5941,1.631460603,0,1,11,3,47,2,1,,,,,,,,,,,,,,
,,,,,,,,,,,left.png,,w,left,60e5eceb989f38c746723024,2021-10-27_12h09.47.835,arrow_simon_punish,2021.1.2,Win32,32.33420636,,,,,,,,,,,,,,w,1,1.5046,1.923716133,0,1,12,0,48,2,1,,,,,,,,,,,,,,
,,,,,,,,,,,right.png,,p,right,60e5eceb989f38c746723024,2021-10-27_12h09.47.835,arrow_simon_punish,2021.1.2,Win32,32.33420636,,,,,,,,,,,,,,w,0,0.19,1.946090157,1,1,12,1,49,1,1,,,,,,,,,,,,,,
,,,,,,,,,,,left.png,,w,left,60e5eceb989f38c746723024,2021-10-27_12h09.47.835,arrow_simon_punish,2021.1.2,Win32,32.33420636,,,,,,,,,,,,,,w,1,1.5295,1.53391003,0,1,12,2,50,2,1,,,,,,,,,,,,,,
,,,,,,,,,,,left.png,,w,right,60e5eceb989f38c746723024,2021-10-27_12h09.47.835,arrow_simon_punish,2021.1.2,Win32,32.33420636,,,,,,,,,,,,,,w,1,1.4958,1.852712552,0,1,12,3,51,3,1,,,,,,,,,,,,,,
,,,,,,,,,,,right.png,,p,right,60e5eceb989f38c746723024,2021-10-27_12h09.47.835,arrow_simon_punish,2021.1.2,Win32,32.33420636,,,,,,,,,,,,,,w,0,1.7486,2.456414204,1,1,13,0,52,1,1,,,,,,,,,,,,,,
,,,,,,,,,,,right.png,,p,right,60e5eceb989f38c746723024,2021-10-27_12h09.47.835,arrow_simon_punish,2021.1.2,Win32,32.33420636,,,,,,,,,,,,,,p,1,1.5095,2.034121794,0,1,13,1,53,1,1,,,,,,,,,,,,,,
,,,,,,,,,,,left.png,,w,left,60e5eceb989f38c746723024,2021-10-27_12h09.47.835,arrow_simon_punish,2021.1.2,Win32,32.33420636,,,,,,,,,,,,,,w,1,1.5132,1.899949217,0,1,13,2,54,2,1,,,,,,,,,,,,,,
,,,,,,,,,,,right.png,,p,right,60e5eceb989f38c746723024,2021-10-27_12h09.47.835,arrow_simon_punish,2021.1.2,Win32,32.33420636,,,,,,,,,,,,,,p,1,1.1728,1.756743534,1,1,13,3,55,1,1,,,,,,,,,,,,,,
,,,,,,,,,,,left.png,,w,right,60e5eceb989f38c746723024,2021-10-27_12h09.47.835,arrow_simon_punish,2021.1.2,Win32,32.33420636,,,,,,,,,,,,,,p,0,1.1857,2.190126607,1,1,14,0,56,3,1,,,,,,,,,,,,,,
,,,,,,,,,,,right.png,,p,left,60e5eceb989f38c746723024,2021-10-27_12h09.47.835,arrow_simon_punish,2021.1.2,Win32,32.33420636,,,,,,,,,,,,,,w,0,1.6201,1.597420805,1,1,14,1,57,0,1,,,,,,,,,,,,,,
,,,,,,,,,,,right.png,,p,right,60e5eceb989f38c746723024,2021-10-27_12h09.47.835,arrow_simon_punish,2021.1.2,Win32,32.33420636,,,,,,,,,,,,,,p,1,1.8841,2.452537658,1,1,14,2,58,1,1,,,,,,,,,,,,,,
,,,,,,,,,,,right.png,,p,left,60e5eceb989f38c746723024,2021-10-27_12h09.47.835,arrow_simon_punish,2021.1.2,Win32,32.33420636,,,,,,,,,,,,,,w,0,1.6459,2.239053731,1,1,14,3,59,0,1,,,,,,,,,,,,,,
,,,,,,,,,,,,,,,60e5eceb989f38c746723024,2021-10-27_12h09.47.835,arrow_simon_punish,2021.1.2,Win32,32.33420636,,,,,,,,,,,,,,,,,,,,,,,,,space,115.0743,6,2,0,4,0,1,1,,,,,
,,,,,,,,,,,right.png,,p,right,60e5eceb989f38c746723024,2021-10-27_12h09.47.835,arrow_simon_punish,2021.1.2,Win32,32.33420636,,,,,,,,,,,,,,p,1,1.5252,2.16876221,0,5,0,0,0,1,1,,,,,,,,,,,,,,
,,,,,,,,,,,right.png,,p,right,60e5eceb989f38c746723024,2021-10-27_12h09.47.835,arrow_simon_punish,2021.1.2,Win32,32.33420636,,,,,,,,,,,,,,p,1,1.4894,1.906146908,0,5,0,1,1,1,1,,,,,,,,,,,,,,
,,,,,,,,,,,left.png,,w,left,60e5eceb989f38c746723024,2021-10-27_12h09.47.835,arrow_simon_punish,2021.1.2,Win32,32.33420636,,,,,,,,,,,,,,w,1,1.5008,2.026895791,0,5,0,2,2,2,1,,,,,,,,,,,,,,
,,,,,,,,,,,right.png,,p,right,60e5eceb989f38c746723024,2021-10-27_12h09.47.835,arrow_simon_punish,2021.1.2,Win32,32.33420636,,,,,,,,,,,,,,p,1,1.5049,1.742405186,0,5,0,3,3,1,1,,,,,,,,,,,,,,
,,,,,,,,,,,right.png,,p,right,60e5eceb989f38c746723024,2021-10-27_12h09.47.835,arrow_simon_punish,2021.1.2,Win32,32.33420636,,,,,,,,,,,,,,p,1,1.5414,1.911662677,0,5,1,0,4,1,1,,,,,,,,,,,,,,
,,,,,,,,,,,right.png,,p,right,60e5eceb989f38c746723024,2021-10-27_12h09.47.835,arrow_simon_punish,2021.1.2,Win32,32.33420636,,,,,,,,,,,,,,w,0,1.6017,2.39952531,1,5,1,1,5,1,1,,,,,,,,,,,,,,
,,,,,,,,,,,right.png,,p,left,60e5eceb989f38c746723024,2021-10-27_12h09.47.835,arrow_simon_punish,2021.1.2,Win32,32.33420636,,,,,,,,,,,,,,p,1,1.5123,1.567214957,0,5,1,2,6,0,1,,,,,,,,,,,,,,
,,,,,,,,,,,left.png,,w,right,60e5eceb989f38c746723024,2021-10-27_12h09.47.835,arrow_simon_punish,2021.1.2,Win32,32.33420636,,,,,,,,,,,,,,w,1,1.5769,2.069260298,0,5,1,3,7,3,1,,,,,,,,,,,,,,
,,,,,,,,,,,left.png,,w,right,60e5eceb989f38c746723024,2021-10-27_12h09.47.835,arrow_simon_punish,2021.1.2,Win32,32.33420636,,,,,,,,,,,,,,p,0,1.6786,2.456842791,1,5,2,0,8,3,1,,,,,,,,,,,,,,
,,,,,,,,,,,left.png,,w,left,60e5eceb989f38c746723024,2021-10-27_12h09.47.835,arrow_simon_punish,2021.1.2,Win32,32.33420636,,,,,,,,,,,,,,w,1,1.5196,1.578544881,0,5,2,1,9,2,1,,,,,,,,,,,,,,
,,,,,,,,,,,right.png,,p,right,60e5eceb989f38c746723024,2021-10-27_12h09.47.835,arrow_simon_punish,2021.1.2,Win32,32.33420636,,,,,,,,,,,,,,p,1,1.4986,1.549245096,0,5,2,2,10,1,1,,,,,,,,,,,,,,
,,,,,,,,,,,right.png,,p,left,60e5eceb989f38c746723024,2021-10-27_12h09.47.835,arrow_simon_punish,2021.1.2,Win32,32.33420636,,,,,,,,,,,,,,w,0,1.677,2.459397589,1,5,2,3,11,0,1,,,,,,,,,,,,,,
,,,,,,,,,,,left.png,,w,right,60e5eceb989f38c746723024,2021-10-27_12h09.47.835,arrow_simon_punish,2021.1.2,Win32,32.33420636,,,,,,,,,,,,,,w,1,1.6601,2.135575141,1,5,3,0,12,3,1,,,,,,,,,,,,,,
,,,,,,,,,,,left.png,,w,right,60e5eceb989f38c746723024,2021-10-27_12h09.47.835,arrow_simon_punish,2021.1.2,Win32,32.33420636,,,,,,,,,,,,,,w,1,1.553,1.895314722,0,5,3,1,13,3,1,,,,,,,,,,,,,,
,,,,,,,,,,,left.png,,w,left,60e5eceb989f38c746723024,2021-10-27_12h09.47.835,arrow_simon_punish,2021.1.2,Win32,32.33420636,,,,,,,,,,,,,,p,0,1.609,2.383874023,1,5,3,2,14,2,1,,,,,,,,,,,,,,
,,,,,,,,,,,left.png,,w,left,60e5eceb989f38c746723024,2021-10-27_12h09.47.835,arrow_simon_punish,2021.1.2,Win32,32.33420636,,,,,,,,,,,,,,w,1,1.5588,2.022248057,0,5,3,3,15,2,1,,,,,,,,,,,,,,
,,,,,,,,,,,right.png,,p,left,60e5eceb989f38c746723024,2021-10-27_12h09.47.835,arrow_simon_punish,2021.1.2,Win32,32.33420636,,,,,,,,,,,,,,p,1,1.6355,2.414836719,1,5,4,0,16,0,1,,,,,,,,,,,,,,
,,,,,,,,,,,left.png,,w,left,60e5eceb989f38c746723024,2021-10-27_12h09.47.835,arrow_simon_punish,2021.1.2,Win32,32.33420636,,,,,,,,,,,,,,w,1,1.5312,1.631910007,0,5,4,1,17,2,1,,,,,,,,,,,,,,
,,,,,,,,,,,left.png,,w,left,60e5eceb989f38c746723024,2021-10-27_12h09.47.835,arrow_simon_punish,2021.1.2,Win32,32.33420636,,,,,,,,,,,,,,w,1,1.5863,2.256484927,0,5,4,2,18,2,1,,,,,,,,,,,,,,
,,,,,,,,,,,right.png,,p,right,60e5eceb989f38c746723024,2021-10-27_12h09.47.835,arrow_simon_punish,2021.1.2,Win32,32.33420636,,,,,,,,,,,,,,p,1,1.5736,2.039882389,0,5,4,3,19,1,1,,,,,,,,,,,,,,
,,,,,,,,,,,left.png,,w,right,60e5eceb989f38c746723024,2021-10-27_12h09.47.835,arrow_simon_punish,2021.1.2,Win32,32.33420636,,,,,,,,,,,,,,p,0,1.583,1.953986652,1,5,5,0,20,3,1,,,,,,,,,,,,,,
,,,,,,,,,,,right.png,,p,left,60e5eceb989f38c746723024,2021-10-27_12h09.47.835,arrow_simon_punish,2021.1.2,Win32,32.33420636,,,,,,,,,,,,,,p,1,1.5241,1.820274302,0,5,5,1,21,0,1,,,,,,,,,,,,,,
,,,,,,,,,,,right.png,,p,left,60e5eceb989f38c746723024,2021-10-27_12h09.47.835,arrow_simon_punish,2021.1.2,Win32,32.33420636,,,,,,,,,,,,,,p,1,1.6097,2.376836487,1,5,5,2,22,0,1,,,,,,,,,,,,,,
,,,,,,,,,,,right.png,,p,right,60e5eceb989f38c746723024,2021-10-27_12h09.47.835,arrow_simon_punish,2021.1.2,Win32,32.33420636,,,,,,,,,,,,,,p,1,1.5382,1.574149275,0,5,5,3,23,1,1,,,,,,,,,,,,,,
,,,,,,,,,,,left.png,,w,left,60e5eceb989f38c746723024,2021-10-27_12h09.47.835,arrow_simon_punish,2021.1.2,Win32,32.33420636,,,,,,,,,,,,,,p,0,1.5384,2.448135938,1,5,6,0,24,2,1,,,,,,,,,,,,,,
,,,,,,,,,,,left.png,,w,right,60e5eceb989f38c746723024,2021-10-27_12h09.47.835,arrow_simon_punish,2021.1.2,Win32,32.33420636,,,,,,,,,,,,,,w,1,1.4892,2.422728362,0,5,6,1,25,3,1,,,,,,,,,,,,,,
,,,,,,,,,,,right.png,,p,right,60e5eceb989f38c746723024,2021-10-27_12h09.47.835,arrow_simon_punish,2021.1.2,Win32,32.33420636,,,,,,,,,,,,,,p,1,1.5244,2.311341594,0,5,6,2,26,1,1,,,,,,,,,,,,,,
,,,,,,,,,,,left.png,,w,left,60e5eceb989f38c746723024,2021-10-27_12h09.47.835,arrow_simon_punish,2021.1.2,Win32,32.33420636,,,,,,,,,,,,,,w,1,1.4797,1.623496649,0,5,6,3,27,2,1,,,,,,,,,,,,,,
,,,,,,,,,,,left.png,,w,right,60e5eceb989f38c746723024,2021-10-27_12h09.47.835,arrow_simon_punish,2021.1.2,Win32,32.33420636,,,,,,,,,,,,,,w,1,1.4484,1.832515583,0,5,7,0,28,3,1,,,,,,,,,,,,,,
,,,,,,,,,,,left.png,,w,left,60e5eceb989f38c746723024,2021-10-27_12h09.47.835,arrow_simon_punish,2021.1.2,Win32,32.33420636,,,,,,,,,,,,,,w,1,1.4649,1.82291775,0,5,7,1,29,2,1,,,,,,,,,,,,,,
,,,,,,,,,,,right.png,,p,right,60e5eceb989f38c746723024,2021-10-27_12h09.47.835,arrow_simon_punish,2021.1.2,Win32,32.33420636,,,,,,,,,,,,,,p,1,1.5071,1.859112275,0,5,7,2,30,1,1,,,,,,,,,,,,,,
,,,,,,,,,,,right.png,,p,right,60e5eceb989f38c746723024,2021-10-27_12h09.47.835,arrow_simon_punish,2021.1.2,Win32,32.33420636,,,,,,,,,,,,,,w,0,1.468,2.140693456,1,5,7,3,31,1,1,,,,,,,,,,,,,,
,,,,,,,,,,,left.png,,w,right,60e5eceb989f38c746723024,2021-10-27_12h09.47.835,arrow_simon_punish,2021.1.2,Win32,32.33420636,,,,,,,,,,,,,,p,0,1.5458,2.258134874,1,5,8,0,32,3,1,,,,,,,,,,,,,,
,,,,,,,,,,,left.png,,w,left,60e5eceb989f38c746723024,2021-10-27_12h09.47.835,arrow_simon_punish,2021.1.2,Win32,32.33420636,,,,,,,,,,,,,,w,1,1.5312,2.414220114,0,5,8,1,33,2,1,,,,,,,,,,,,,,
,,,,,,,,,,,right.png,,p,right,60e5eceb989f38c746723024,2021-10-27_12h09.47.835,arrow_simon_punish,2021.1.2,Win32,32.33420636,,,,,,,,,,,,,,p,1,1.4563,1.630242404,0,5,8,2,34,1,1,,,,,,,,,,,,,,
,,,,,,,,,,,left.png,,w,right,60e5eceb989f38c746723024,2021-10-27_12h09.47.835,arrow_simon_punish,2021.1.2,Win32,32.33420636,,,,,,,,,,,,,,w,1,1.4345,1.965065745,0,5,8,3,35,3,1,,,,,,,,,,,,,,
,,,,,,,,,,,left.png,,w,right,60e5eceb989f38c746723024,2021-10-27_12h09.47.835,arrow_simon_punish,2021.1.2,Win32,32.33420636,,,,,,,,,,,,,,w,1,1.4959,1.674060402,0,5,9,0,36,3,1,,,,,,,,,,,,,,
,,,,,,,,,,,right.png,,p,left,60e5eceb989f38c746723024,2021-10-27_12h09.47.835,arrow_simon_punish,2021.1.2,Win32,32.33420636,,,,,,,,,,,,,,p,1,1.4542,1.573680167,0,5,9,1,37,0,1,,,,,,,,,,,,,,
,,,,,,,,,,,left.png,,w,right,60e5eceb989f38c746723024,2021-10-27_12h09.47.835,arrow_simon_punish,2021.1.2,Win32,32.33420636,,,,,,,,,,,,,,w,1,1.4542,1.695691013,0,5,9,2,38,3,1,,,,,,,,,,,,,,
,,,,,,,,,,,right.png,,p,left,60e5eceb989f38c746723024,2021-10-27_12h09.47.835,arrow_simon_punish,2021.1.2,Win32,32.33420636,,,,,,,,,,,,,,p,1,1.4552,2.039604512,0,5,9,3,39,0,1,,,,,,,,,,,,,,
,,,,,,,,,,,right.png,,p,right,60e5eceb989f38c746723024,2021-10-27_12h09.47.835,arrow_simon_punish,2021.1.2,Win32,32.33420636,,,,,,,,,,,,,,p,1,1.5002,1.854412447,0,5,10,0,40,1,1,,,,,,,,,,,,,,
,,,,,,,,,,,right.png,,p,left,60e5eceb989f38c746723024,2021-10-27_12h09.47.835,arrow_simon_punish,2021.1.2,Win32,32.33420636,,,,,,,,,,,,,,p,1,1.487,1.933453656,0,5,10,1,41,0,1,,,,,,,,,,,,,,
,,,,,,,,,,,left.png,,w,right,60e5eceb989f38c746723024,2021-10-27_12h09.47.835,arrow_simon_punish,2021.1.2,Win32,32.33420636,,,,,,,,,,,,,,p,0,1.8139,2.46904434,1,5,10,2,42,3,1,,,,,,,,,,,,,,
,,,,,,,,,,,left.png,,w,right,60e5eceb989f38c746723024,2021-10-27_12h09.47.835,arrow_simon_punish,2021.1.2,Win32,32.33420636,,,,,,,,,,,,,,w,1,1.5935,1.942304627,0,5,10,3,43,3,1,,,,,,,,,,,,,,
,,,,,,,,,,,right.png,,p,left,60e5eceb989f38c746723024,2021-10-27_12h09.47.835,arrow_simon_punish,2021.1.2,Win32,32.33420636,,,,,,,,,,,,,,p,1,1.5319,1.958078235,0,5,11,0,44,0,1,,,,,,,,,,,,,,
,,,,,,,,,,,right.png,,p,right,60e5eceb989f38c746723024,2021-10-27_12h09.47.835,arrow_simon_punish,2021.1.2,Win32,32.33420636,,,,,,,,,,,,,,p,1,1.5718,1.952421987,0,5,11,1,45,1,1,,,,,,,,,,,,,,
,,,,,,,,,,,left.png,,w,left,60e5eceb989f38c746723024,2021-10-27_12h09.47.835,arrow_simon_punish,2021.1.2,Win32,32.33420636,,,,,,,,,,,,,,w,1,1.5646,1.788929289,0,5,11,2,46,2,1,,,,,,,,,,,,,,
,,,,,,,,,,,right.png,,p,left,60e5eceb989f38c746723024,2021-10-27_12h09.47.835,arrow_simon_punish,2021.1.2,Win32,32.33420636,,,,,,,,,,,,,,p,1,1.4933,2.218444077,0,5,11,3,47,0,1,,,,,,,,,,,,,,
,,,,,,,,,,,right.png,,p,left,60e5eceb989f38c746723024,2021-10-27_12h09.47.835,arrow_simon_punish,2021.1.2,Win32,32.33420636,,,,,,,,,,,,,,w,0,1.5535,1.869071149,1,5,12,0,48,0,1,,,,,,,,,,,,,,
,,,,,,,,,,,right.png,,p,left,60e5eceb989f38c746723024,2021-10-27_12h09.47.835,arrow_simon_punish,2021.1.2,Win32,32.33420636,,,,,,,,,,,,,,p,1,1.6159,2.408736813,1,5,12,1,49,0,1,,,,,,,,,,,,,,
,,,,,,,,,,,left.png,,w,left,60e5eceb989f38c746723024,2021-10-27_12h09.47.835,arrow_simon_punish,2021.1.2,Win32,32.33420636,,,,,,,,,,,,,,p,0,1.5046,2.475834098,1,5,12,2,50,2,1,,,,,,,,,,,,,,
,,,,,,,,,,,left.png,,w,left,60e5eceb989f38c746723024,2021-10-27_12h09.47.835,arrow_simon_punish,2021.1.2,Win32,32.33420636,,,,,,,,,,,,,,w,1,1.509,2.095593922,0,5,12,3,51,2,1,,,,,,,,,,,,,,
,,,,,,,,,,,right.png,,p,left,60e5eceb989f38c746723024,2021-10-27_12h09.47.835,arrow_simon_punish,2021.1.2,Win32,32.33420636,,,,,,,,,,,,,,p,1,1.539,1.558157499,0,5,13,0,52,0,1,,,,,,,,,,,,,,
,,,,,,,,,,,left.png,,w,right,60e5eceb989f38c746723024,2021-10-27_12h09.47.835,arrow_simon_punish,2021.1.2,Win32,32.33420636,,,,,,,,,,,,,,p,0,1.5138,2.215320844,1,5,13,1,53,3,1,,,,,,,,,,,,,,
,,,,,,,,,,,right.png,,p,right,60e5eceb989f38c746723024,2021-10-27_12h09.47.835,arrow_simon_punish,2021.1.2,Win32,32.33420636,,,,,,,,,,,,,,p,1,1.5229,2.284862529,0,5,13,2,54,1,1,,,,,,,,,,,,,,
,,,,,,,,,,,right.png,,p,left,60e5eceb989f38c746723024,2021-10-27_12h09.47.835,arrow_simon_punish,2021.1.2,Win32,32.33420636,,,,,,,,,,,,,,p,1,1.5063,1.853041837,0,5,13,3,55,0,1,,,,,,,,,,,,,,
,,,,,,,,,,,left.png,,w,left,60e5eceb989f38c746723024,2021-10-27_12h09.47.835,arrow_simon_punish,2021.1.2,Win32,32.33420636,,,,,,,,,,,,,,p,0,1.5695,2.421750559,1,5,14,0,56,2,1,,,,,,,,,,,,,,
,,,,,,,,,,,left.png,,w,left,60e5eceb989f38c746723024,2021-10-27_12h09.47.835,arrow_simon_punish,2021.1.2,Win32,32.33420636,,,,,,,,,,,,,,w,1,1.5353,1.99025409,0,5,14,1,57,2,1,,,,,,,,,,,,,,
,,,,,,,,,,,left.png,,w,right,60e5eceb989f38c746723024,2021-10-27_12h09.47.835,arrow_simon_punish,2021.1.2,Win32,32.33420636,,,,,,,,,,,,,,w,1,1.5524,1.615408976,0,5,14,2,58,3,1,,,,,,,,,,,,,,
,,,,,,,,,,,right.png,,p,left,60e5eceb989f38c746723024,2021-10-27_12h09.47.835,arrow_simon_punish,2021.1.2,Win32,32.33420636,,,,,,,,,,,,,,p,1,1.554,1.78097366,0,5,14,3,59,0,1,,,,,,,,,,,,,,
,,,,,,,,,,,,,,,60e5eceb989f38c746723024,2021-10-27_12h09.47.835,arrow_simon_punish,2021.1.2,Win32,32.33420636,,,,,,,,,,,,,,,,,,,,,,,,,space,11.056,7,2,1,5,1,1,5,,,,,
,,,,,,,,,,,left.png,,w,right,60e5eceb989f38c746723024,2021-10-27_12h09.47.835,arrow_simon_punish,2021.1.2,Win32,32.33420636,,,,,,,,,,,,,,w,1,1.5175,1.935092982,0,1,0,0,0,3,1,,,,,,,,,,,,,,
,,,,,,,,,,,right.png,,p,right,60e5eceb989f38c746723024,2021-10-27_12h09.47.835,arrow_simon_punish,2021.1.2,Win32,32.33420636,,,,,,,,,,,,,,p,1,1.5492,2.18203122,0,1,0,1,1,1,1,,,,,,,,,,,,,,
,,,,,,,,,,,right.png,,p,right,60e5eceb989f38c746723024,2021-10-27_12h09.47.835,arrow_simon_punish,2021.1.2,Win32,32.33420636,,,,,,,,,,,,,,p,1,1.5303,1.812160323,0,1,0,2,2,1,1,,,,,,,,,,,,,,
,,,,,,,,,,,left.png,,w,left,60e5eceb989f38c746723024,2021-10-27_12h09.47.835,arrow_simon_punish,2021.1.2,Win32,32.33420636,,,,,,,,,,,,,,w,1,1.5558,2.158232038,0,1,0,3,3,2,1,,,,,,,,,,,,,,
,,,,,,,,,,,left.png,,w,left,60e5eceb989f38c746723024,2021-10-27_12h09.47.835,arrow_simon_punish,2021.1.2,Win32,32.33420636,,,,,,,,,,,,,,p,0,1.5952,2.445150981,1,1,1,0,4,2,1,,,,,,,,,,,,,,
,,,,,,,,,,,left.png,,w,right,60e5eceb989f38c746723024,2021-10-27_12h09.47.835,arrow_simon_punish,2021.1.2,Win32,32.33420636,,,,,,,,,,,,,,p,0,1.5752,2.470750524,1,1,1,1,5,3,1,,,,,,,,,,,,,,
,,,,,,,,,,,right.png,,p,left,60e5eceb989f38c746723024,2021-10-27_12h09.47.835,arrow_simon_punish,2021.1.2,Win32,32.33420636,,,,,,,,,,,,,,p,1,1.5405,1.724213927,0,1,1,2,6,0,1,,,,,,,,,,,,,,
,,,,,,,,,,,right.png,,p,right,60e5eceb989f38c746723024,2021-10-27_12h09.47.835,arrow_simon_punish,2021.1.2,Win32,32.33420636,,,,,,,,,,,,,,p,1,1.467,1.55815282,0,1,1,3,7,1,1,,,,,,,,,,,,,,
,,,,,,,,,,,right.png,,p,left,60e5eceb989f38c746723024,2021-10-27_12h09.47.835,arrow_simon_punish,2021.1.2,Win32,32.33420636,,,,,,,,,,,,,,w,0,1.5326,2.43363411,1,1,2,0,8,0,1,,,,,,,,,,,,,,
,,,,,,,,,,,left.png,,w,left,60e5eceb989f38c746723024,2021-10-27_12h09.47.835,arrow_simon_punish,2021.1.2,Win32,32.33420636,,,,,,,,,,,,,,w,1,1.5282,2.429644987,0,1,2,1,9,2,1,,,,,,,,,,,,,,
,,,,,,,,,,,right.png,,p,left,60e5eceb989f38c746723024,2021-10-27_12h09.47.835,arrow_simon_punish,2021.1.2,Win32,32.33420636,,,,,,,,,,,,,,p,1,1.5328,2.161784391,0,1,2,2,10,0,1,,,,,,,,,,,,,,
,,,,,,,,,,,right.png,,p,left,60e5eceb989f38c746723024,2021-10-27_12h09.47.835,arrow_simon_punish,2021.1.2,Win32,32.33420636,,,,,,,,,,,,,,w,0,1.4799,2.200214996,1,1,2,3,11,0,1,,,,,,,,,,,,,,
,,,,,,,,,,,left.png,,w,right,60e5eceb989f38c746723024,2021-10-27_12h09.47.835,arrow_simon_punish,2021.1.2,Win32,32.33420636,,,,,,,,,,,,,,w,1,1.4482,1.609961747,0,1,3,0,12,3,1,,,,,,,,,,,,,,
,,,,,,,,,,,right.png,,p,right,60e5eceb989f38c746723024,2021-10-27_12h09.47.835,arrow_simon_punish,2021.1.2,Win32,32.33420636,,,,,,,,,,,,,,p,1,1.5111,2.247839927,0,1,3,1,13,1,1,,,,,,,,,,,,,,
,,,,,,,,,,,left.png,,w,right,60e5eceb989f38c746723024,2021-10-27_12h09.47.835,arrow_simon_punish,2021.1.2,Win32,32.33420636,,,,,,,,,,,,,,w,1,1.4111,1.7515335,0,1,3,2,14,3,1,,,,,,,,,,,,,,
,,,,,,,,,,,left.png,,w,right,60e5eceb989f38c746723024,2021-10-27_12h09.47.835,arrow_simon_punish,2021.1.2,Win32,32.33420636,,,,,,,,,,,,,,p,0,1.4767,2.497231352,1,1,3,3,15,3,1,,,,,,,,,,,,,,
,,,,,,,,,,,right.png,,p,left,60e5eceb989f38c746723024,2021-10-27_12h09.47.835,arrow_simon_punish,2021.1.2,Win32,32.33420636,,,,,,,,,,,,,,w,0,1.5152,2.395931992,1,1,4,0,16,0,1,,,,,,,,,,,,,,
,,,,,,,,,,,right.png,,p,right,60e5eceb989f38c746723024,2021-10-27_12h09.47.835,arrow_simon_punish,2021.1.2,Win32,32.33420636,,,,,,,,,,,,,,w,0,1.5647,2.407155921,1,1,4,1,17,1,1,,,,,,,,,,,,,,
,,,,,,,,,,,right.png,,p,left,60e5eceb989f38c746723024,2021-10-27_12h09.47.835,arrow_simon_punish,2021.1.2,Win32,32.33420636,,,,,,,,,,,,,,w,0,1.543,1.685270679,1,1,4,2,18,0,1,,,,,,,,,,,,,,
,,,,,,,,,,,left.png,,w,left,60e5eceb989f38c746723024,2021-10-27_12h09.47.835,arrow_simon_punish,2021.1.2,Win32,32.33420636,,,,,,,,,,,,,,w,1,1.5556,2.071755333,0,1,4,3,19,2,1,,,,,,,,,,,,,,
,,,,,,,,,,,right.png,,p,right,60e5eceb989f38c746723024,2021-10-27_12h09.47.835,arrow_simon_punish,2021.1.2,Win32,32.33420636,,,,,,,,,,,,,,p,1,1.5526,2.459132427,0,1,5,0,20,1,1,,,,,,,,,,,,,,
,,,,,,,,,,,left.png,,w,left,60e5eceb989f38c746723024,2021-10-27_12h09.47.835,arrow_simon_punish,2021.1.2,Win32,32.33420636,,,,,,,,,,,,,,w,1,1.5212,2.174719142,0,1,5,1,21,2,1,,,,,,,,,,,,,,
,,,,,,,,,,,right.png,,p,left,60e5eceb989f38c746723024,2021-10-27_12h09.47.835,arrow_simon_punish,2021.1.2,Win32,32.33420636,,,,,,,,,,,,,,p,1,1.5027,2.200073921,0,1,5,2,22,0,1,,,,,,,,,,,,,,
,,,,,,,,,,,left.png,,w,left,60e5eceb989f38c746723024,2021-10-27_12h09.47.835,arrow_simon_punish,2021.1.2,Win32,32.33420636,,,,,,,,,,,,,,p,0,1.5132,2.458784562,1,1,5,3,23,2,1,,,,,,,,,,,,,,
,,,,,,,,,,,left.png,,w,left,60e5eceb989f38c746723024,2021-10-27_12h09.47.835,arrow_simon_punish,2021.1.2,Win32,32.33420636,,,,,,,,,,,,,,w,1,1.5582,2.136163951,0,1,6,0,24,2,1,,,,,,,,,,,,,,
,,,,,,,,,,,left.png,,w,left,60e5eceb989f38c746723024,2021-10-27_12h09.47.835,arrow_simon_punish,2021.1.2,Win32,32.33420636,,,,,,,,,,,,,,w,1,1.4991,2.395329116,0,1,6,1,25,2,1,,,,,,,,,,,,,,
,,,,,,,,,,,left.png,,w,left,60e5eceb989f38c746723024,2021-10-27_12h09.47.835,arrow_simon_punish,2021.1.2,Win32,32.33420636,,,,,,,,,,,,,,p,0,1.5323,2.213362257,1,1,6,2,26,2,1,,,,,,,,,,,,,,
,,,,,,,,,,,right.png,,p,left,60e5eceb989f38c746723024,2021-10-27_12h09.47.835,arrow_simon_punish,2021.1.2,Win32,32.33420636,,,,,,,,,,,,,,w,0,1.5095,2.37766802,1,1,6,3,27,0,1,,,,,,,,,,,,,,
,,,,,,,,,,,right.png,,p,left,60e5eceb989f38c746723024,2021-10-27_12h09.47.835,arrow_simon_punish,2021.1.2,Win32,32.33420636,,,,,,,,,,,,,,p,1,1.491,1.518135012,0,1,7,0,28,0,1,,,,,,,,,,,,,,
,,,,,,,,,,,right.png,,p,left,60e5eceb989f38c746723024,2021-10-27_12h09.47.835,arrow_simon_punish,2021.1.2,Win32,32.33420636,,,,,,,,,,,,,,p,1,1.5484,1.872145521,0,1,7,1,29,0,1,,,,,,,,,,,,,,
,,,,,,,,,,,right.png,,p,left,60e5eceb989f38c746723024,2021-10-27_12h09.47.835,arrow_simon_punish,2021.1.2,Win32,32.33420636,,,,,,,,,,,,,,p,1,1.5242,1.864534608,0,1,7,2,30,0,1,,,,,,,,,,,,,,
,,,,,,,,,,,left.png,,w,left,60e5eceb989f38c746723024,2021-10-27_12h09.47.835,arrow_simon_punish,2021.1.2,Win32,32.33420636,,,,,,,,,,,,,,w,1,1.499,2.208222813,0,1,7,3,31,2,1,,,,,,,,,,,,,,
,,,,,,,,,,,left.png,,w,right,60e5eceb989f38c746723024,2021-10-27_12h09.47.835,arrow_simon_punish,2021.1.2,Win32,32.33420636,,,,,,,,,,,,,,w,1,1.4808,1.955356178,0,1,8,0,32,3,1,,,,,,,,,,,,,,
,,,,,,,,,,,right.png,,p,right,60e5eceb989f38c746723024,2021-10-27_12h09.47.835,arrow_simon_punish,2021.1.2,Win32,32.33420636,,,,,,,,,,,,,,p,1,1.5155,2.25925509,0,1,8,1,33,1,1,,,,,,,,,,,,,,
,,,,,,,,,,,right.png,,p,left,60e5eceb989f38c746723024,2021-10-27_12h09.47.835,arrow_simon_punish,2021.1.2,Win32,32.33420636,,,,,,,,,,,,,,w,0,1.4946,2.187570244,1,1,8,2,34,0,1,,,,,,,,,,,,,,
,,,,,,,,,,,left.png,,w,right,60e5eceb989f38c746723024,2021-10-27_12h09.47.835,arrow_simon_punish,2021.1.2,Win32,32.33420636,,,,,,,,,,,,,,p,0,1.5273,2.277136768,1,1,8,3,35,3,1,,,,,,,,,,,,,,
,,,,,,,,,,,right.png,,p,left,60e5eceb989f38c746723024,2021-10-27_12h09.47.835,arrow_simon_punish,2021.1.2,Win32,32.33420636,,,,,,,,,,,,,,w,0,1.5039,2.264266814,1,1,9,0,36,0,1,,,,,,,,,,,,,,
,,,,,,,,,,,left.png,,w,right,60e5eceb989f38c746723024,2021-10-27_12h09.47.835,arrow_simon_punish,2021.1.2,Win32,32.33420636,,,,,,,,,,,,,,p,0,1.504,2.189628795,1,1,9,1,37,3,1,,,,,,,,,,,,,,
,,,,,,,,,,,left.png,,w,left,60e5eceb989f38c746723024,2021-10-27_12h09.47.835,arrow_simon_punish,2021.1.2,Win32,32.33420636,,,,,,,,,,,,,,w,1,1.4942,1.682900028,0,1,9,2,38,2,1,,,,,,,,,,,,,,
,,,,,,,,,,,left.png,,w,right,60e5eceb989f38c746723024,2021-10-27_12h09.47.835,arrow_simon_punish,2021.1.2,Win32,32.33420636,,,,,,,,,,,,,,p,0,1.5906,2.390500649,1,1,9,3,39,3,1,,,,,,,,,,,,,,
,,,,,,,,,,,right.png,,p,right,60e5eceb989f38c746723024,2021-10-27_12h09.47.835,arrow_simon_punish,2021.1.2,Win32,32.33420636,,,,,,,,,,,,,,p,1,1.5226,1.681253411,0,1,10,0,40,1,1,,,,,,,,,,,,,,
,,,,,,,,,,,left.png,,w,right,60e5eceb989f38c746723024,2021-10-27_12h09.47.835,arrow_simon_punish,2021.1.2,Win32,32.33420636,,,,,,,,,,,,,,p,0,1.5043,2.189725338,1,1,10,1,41,3,1,,,,,,,,,,,,,,
,,,,,,,,,,,left.png,,w,left,60e5eceb989f38c746723024,2021-10-27_12h09.47.835,arrow_simon_punish,2021.1.2,Win32,32.33420636,,,,,,,,,,,,,,w,1,1.5495,2.036360248,0,1,10,2,42,2,1,,,,,,,,,,,,,,
,,,,,,,,,,,left.png,,w,right,60e5eceb989f38c746723024,2021-10-27_12h09.47.835,arrow_simon_punish,2021.1.2,Win32,32.33420636,,,,,,,,,,,,,,w,1,1.4983,1.634414535,0,1,10,3,43,3,1,,,,,,,,,,,,,,
,,,,,,,,,,,right.png,,p,right,60e5eceb989f38c746723024,2021-10-27_12h09.47.835,arrow_simon_punish,2021.1.2,Win32,32.33420636,,,,,,,,,,,,,,p,1,1.5243,2.064587254,0,1,11,0,44,1,1,,,,,,,,,,,,,,
,,,,,,,,,,,right.png,,p,right,60e5eceb989f38c746723024,2021-10-27_12h09.47.835,arrow_simon_punish,2021.1.2,Win32,32.33420636,,,,,,,,,,,,,,p,1,1.525,1.51572966,0,1,11,1,45,1,1,,,,,,,,,,,,,,
,,,,,,,,,,,left.png,,w,right,60e5eceb989f38c746723024,2021-10-27_12h09.47.835,arrow_simon_punish,2021.1.2,Win32,32.33420636,,,,,,,,,,,,,,w,1,1.4763,1.934503527,0,1,11,2,46,3,1,,,,,,,,,,,,,,
,,,,,,,,,,,right.png,,p,right,60e5eceb989f38c746723024,2021-10-27_12h09.47.835,arrow_simon_punish,2021.1.2,Win32,32.33420636,,,,,,,,,,,,,,p,1,1.5275,2.045374609,0,1,11,3,47,1,1,,,,,,,,,,,,,,
,,,,,,,,,,,left.png,,w,left,60e5eceb989f38c746723024,2021-10-27_12h09.47.835,arrow_simon_punish,2021.1.2,Win32,32.33420636,,,,,,,,,,,,,,w,1,1.5441,1.929463437,0,1,12,0,48,2,1,,,,,,,,,,,,,,
,,,,,,,,,,,right.png,,p,right,60e5eceb989f38c746723024,2021-10-27_12h09.47.835,arrow_simon_punish,2021.1.2,Win32,32.33420636,,,,,,,,,,,,,,p,1,1.5176,1.689616434,0,1,12,1,49,1,1,,,,,,,,,,,,,,
,,,,,,,,,,,left.png,,w,right,60e5eceb989f38c746723024,2021-10-27_12h09.47.835,arrow_simon_punish,2021.1.2,Win32,32.33420636,,,,,,,,,,,,,,w,1,1.5469,1.563075872,0,1,12,2,50,3,1,,,,,,,,,,,,,,
,,,,,,,,,,,right.png,,p,left,60e5eceb989f38c746723024,2021-10-27_12h09.47.835,arrow_simon_punish,2021.1.2,Win32,32.33420636,,,,,,,,,,,,,,p,1,1.574,1.647370613,0,1,12,3,51,0,1,,,,,,,,,,,,,,
,,,,,,,,,,,left.png,,w,right,60e5eceb989f38c746723024,2021-10-27_12h09.47.835,arrow_simon_punish,2021.1.2,Win32,32.33420636,,,,,,,,,,,,,,p,0,1.6424,2.309381345,1,1,13,0,52,3,1,,,,,,,,,,,,,,
,,,,,,,,,,,left.png,,w,left,60e5eceb989f38c746723024,2021-10-27_12h09.47.835,arrow_simon_punish,2021.1.2,Win32,32.33420636,,,,,,,,,,,,,,w,1,1.5891,2.335657434,0,1,13,1,53,2,1,,,,,,,,,,,,,,
,,,,,,,,,,,right.png,,p,right,60e5eceb989f38c746723024,2021-10-27_12h09.47.835,arrow_simon_punish,2021.1.2,Win32,32.33420636,,,,,,,,,,,,,,p,1,1.5052,1.986644441,0,1,13,2,54,1,1,,,,,,,,,,,,,,
,,,,,,,,,,,right.png,,p,right,60e5eceb989f38c746723024,2021-10-27_12h09.47.835,arrow_simon_punish,2021.1.2,Win32,32.33420636,,,,,,,,,,,,,,w,0,1.5559,2.426332361,1,1,13,3,55,1,1,,,,,,,,,,,,,,
,,,,,,,,,,,right.png,,p,right,60e5eceb989f38c746723024,2021-10-27_12h09.47.835,arrow_simon_punish,2021.1.2,Win32,32.33420636,,,,,,,,,,,,,,p,1,1.5421,1.762339595,0,1,14,0,56,1,1,,,,,,,,,,,,,,
,,,,,,,,,,,right.png,,p,left,60e5eceb989f38c746723024,2021-10-27_12h09.47.835,arrow_simon_punish,2021.1.2,Win32,32.33420636,,,,,,,,,,,,,,p,1,1.6078,2.06925357,1,1,14,1,57,0,1,,,,,,,,,,,,,,
,,,,,,,,,,,left.png,,w,left,60e5eceb989f38c746723024,2021-10-27_12h09.47.835,arrow_simon_punish,2021.1.2,Win32,32.33420636,,,,,,,,,,,,,,w,1,1.5005,1.830760011,0,1,14,2,58,2,1,,,,,,,,,,,,,,
,,,,,,,,,,,left.png,,w,right,60e5eceb989f38c746723024,2021-10-27_12h09.47.835,arrow_simon_punish,2021.1.2,Win32,32.33420636,,,,,,,,,,,,,,w,1,1.5622,2.120070931,0,1,14,3,59,3,1,,,,,,,,,,,,,,
,,,,,,,,,,,,,,,60e5eceb989f38c746723024,2021-10-27_12h09.47.835,arrow_simon_punish,2021.1.2,Win32,32.33420636,,,,,,,,,,,,,,,,,,,,,,,,,space,430.0292,8,3,0,6,0,1,1,,,,,
,,,,,,,,,,,left.png,,w,right,60e5eceb989f38c746723024,2021-10-27_12h09.47.835,arrow_simon_punish,2021.1.2,Win32,32.33420636,,,,,,,,,,,,,,w,1,1.237,1.626059666,1,5,0,0,0,3,1,,,,,,,,,,,,,,
,,,,,,,,,,,right.png,,p,left,60e5eceb989f38c746723024,2021-10-27_12h09.47.835,arrow_simon_punish,2021.1.2,Win32,32.33420636,,,,,,,,,,,,,,p,1,1.5914,1.947475815,0,5,0,1,1,0,1,,,,,,,,,,,,,,
,,,,,,,,,,,left.png,,w,left,60e5eceb989f38c746723024,2021-10-27_12h09.47.835,arrow_simon_punish,2021.1.2,Win32,32.33420636,,,,,,,,,,,,,,w,1,1.5611,1.810916691,0,5,0,2,2,2,1,,,,,,,,,,,,,,
,,,,,,,,,,,right.png,,p,right,60e5eceb989f38c746723024,2021-10-27_12h09.47.835,arrow_simon_punish,2021.1.2,Win32,32.33420636,,,,,,,,,,,,,,p,1,1.5458,2.095579514,0,5,0,3,3,1,1,,,,,,,,,,,,,,
,,,,,,,,,,,right.png,,p,right,60e5eceb989f38c746723024,2021-10-27_12h09.47.835,arrow_simon_punish,2021.1.2,Win32,32.33420636,,,,,,,,,,,,,,p,1,1.582,2.26982703,0,5,1,0,4,1,1,,,,,,,,,,,,,,
,,,,,,,,,,,right.png,,p,right,60e5eceb989f38c746723024,2021-10-27_12h09.47.835,arrow_simon_punish,2021.1.2,Win32,32.33420636,,,,,,,,,,,,,,p,1,1.5451,2.322012999,0,5,1,1,5,1,1,,,,,,,,,,,,,,
,,,,,,,,,,,left.png,,w,right,60e5eceb989f38c746723024,2021-10-27_12h09.47.835,arrow_simon_punish,2021.1.2,Win32,32.33420636,,,,,,,,,,,,,,w,1,1.5693,1.622717174,0,5,1,2,6,3,1,,,,,,,,,,,,,,
,,,,,,,,,,,left.png,,w,left,60e5eceb989f38c746723024,2021-10-27_12h09.47.835,arrow_simon_punish,2021.1.2,Win32,32.33420636,,,,,,,,,,,,,,w,1,1.5136,1.556753652,0,5,1,3,7,2,1,,,,,,,,,,,,,,
