instruct_resp_simon.keys,instruct_resp_simon.corr,instruct_resp_simon.rt,trial_resp_simon.keys,trial_resp_simon.corr,trial_resp_simon.rt,trials_train_simon.thisRepN,trials_train_simon.thisTrialN,trials_train_simon.thisN,trials_train_simon.thisIndex,trials_train_simon.ran,target_file,target_pos,target_resp,target_side,participant,date,expName,psychopyVersion,OS,frameRate,instruct_resp_timing.keys,instruct_resp_timing.corr,instruct_resp_timing.rt,trial_resp_timing.keys,trial_resp_timing.rt,trials_train_timing.thisRepN,trials_train_timing.thisTrialN,trials_train_timing.thisN,trials_train_timing.thisIndex,trials_train_timing.ran,instruct_resp.keys,instruct_resp.corr,instruct_resp.rt,trial_resp.keys,trial_resp.corr,trial_resp.rt,target_onset,err,pun,trials.thisRepN,trials.thisTrialN,trials.thisN,trials.thisIndex,trials.ran,block_note_resp.keys,block_note_resp.rt,block_num,blocks.thisRepN,blocks.thisTrialN,blocks.thisN,blocks.thisIndex,blocks.ran,punish,complete_resp.keys,complete_resp.rt,raffle_trial,raffle_err,raffle_rew
space,0,166.695,p,1,1.9715,0,0,0,1,1,right.png,,p,right,60f728553a37102574b585c4,2021-10-22_15h53.20.730,arrow_simon_punish,2021.1.2,Win32,59.68011459,,,,,,,,,,,,,,,,,,,,,,,,,,,,,,,,,,,,,,
,,,p,1,1.2713,0,1,1,0,1,right.png,,p,left,60f728553a37102574b585c4,2021-10-22_15h53.20.730,arrow_simon_punish,2021.1.2,Win32,59.68011459,,,,,,,,,,,,,,,,,,,,,,,,,,,,,,,,,,,,,,
,,,w,1,1.0667,0,2,2,3,1,left.png,,w,right,60f728553a37102574b585c4,2021-10-22_15h53.20.730,arrow_simon_punish,2021.1.2,Win32,59.68011459,,,,,,,,,,,,,,,,,,,,,,,,,,,,,,,,,,,,,,
,,,w,1,1.3672,0,3,3,2,1,left.png,,w,left,60f728553a37102574b585c4,2021-10-22_15h53.20.730,arrow_simon_punish,2021.1.2,Win32,59.68011459,,,,,,,,,,,,,,,,,,,,,,,,,,,,,,,,,,,,,,
,,,p,1,1.0244,1,0,4,1,1,right.png,,p,right,60f728553a37102574b585c4,2021-10-22_15h53.20.730,arrow_simon_punish,2021.1.2,Win32,59.68011459,,,,,,,,,,,,,,,,,,,,,,,,,,,,,,,,,,,,,,
,,,w,1,0.7165,1,1,5,2,1,left.png,,w,left,60f728553a37102574b585c4,2021-10-22_15h53.20.730,arrow_simon_punish,2021.1.2,Win32,59.68011459,,,,,,,,,,,,,,,,,,,,,,,,,,,,,,,,,,,,,,
,,,p,0,1.0803,1,2,6,3,1,left.png,,w,right,60f728553a37102574b585c4,2021-10-22_15h53.20.730,arrow_simon_punish,2021.1.2,Win32,59.68011459,,,,,,,,,,,,,,,,,,,,,,,,,,,,,,,,,,,,,,
,,,p,1,1.1004,1,3,7,0,1,right.png,,p,left,60f728553a37102574b585c4,2021-10-22_15h53.20.730,arrow_simon_punish,2021.1.2,Win32,59.68011459,,,,,,,,,,,,,,,,,,,,,,,,,,,,,,,,,,,,,,
,,,w,1,1.22,2,0,8,3,1,left.png,,w,right,60f728553a37102574b585c4,2021-10-22_15h53.20.730,arrow_simon_punish,2021.1.2,Win32,59.68011459,,,,,,,,,,,,,,,,,,,,,,,,,,,,,,,,,,,,,,
,,,p,1,1.1518,2,1,9,0,1,right.png,,p,left,60f728553a37102574b585c4,2021-10-22_15h53.20.730,arrow_simon_punish,2021.1.2,Win32,59.68011459,,,,,,,,,,,,,,,,,,,,,,,,,,,,,,,,,,,,,,
,,,p,1,1.3339,2,2,10,1,1,right.png,,p,right,60f728553a37102574b585c4,2021-10-22_15h53.20.730,arrow_simon_punish,2021.1.2,Win32,59.68011459,,,,,,,,,,,,,,,,,,,,,,,,,,,,,,,,,,,,,,
,,,w,1,0.935,2,3,11,2,1,left.png,,w,left,60f728553a37102574b585c4,2021-10-22_15h53.20.730,arrow_simon_punish,2021.1.2,Win32,59.68011459,,,,,,,,,,,,,,,,,,,,,,,,,,,,,,,,,,,,,,
,,,w,1,1.188,3,0,12,3,1,left.png,,w,right,60f728553a37102574b585c4,2021-10-22_15h53.20.730,arrow_simon_punish,2021.1.2,Win32,59.68011459,,,,,,,,,,,,,,,,,,,,,,,,,,,,,,,,,,,,,,
,,,w,1,1.1897,3,1,13,2,1,left.png,,w,left,60f728553a37102574b585c4,2021-10-22_15h53.20.730,arrow_simon_punish,2021.1.2,Win32,59.68011459,,,,,,,,,,,,,,,,,,,,,,,,,,,,,,,,,,,,,,
,,,p,1,1.0026,3,2,14,1,1,right.png,,p,right,60f728553a37102574b585c4,2021-10-22_15h53.20.730,arrow_simon_punish,2021.1.2,Win32,59.68011459,,,,,,,,,,,,,,,,,,,,,,,,,,,,,,,,,,,,,,
,,,p,1,0.9119,3,3,15,0,1,right.png,,p,left,60f728553a37102574b585c4,2021-10-22_15h53.20.730,arrow_simon_punish,2021.1.2,Win32,59.68011459,,,,,,,,,,,,,,,,,,,,,,,,,,,,,,,,,,,,,,
,,,p,1,1.3027,4,0,16,1,1,right.png,,p,right,60f728553a37102574b585c4,2021-10-22_15h53.20.730,arrow_simon_punish,2021.1.2,Win32,59.68011459,,,,,,,,,,,,,,,,,,,,,,,,,,,,,,,,,,,,,,
,,,w,1,1.3395,4,1,17,3,1,left.png,,w,right,60f728553a37102574b585c4,2021-10-22_15h53.20.730,arrow_simon_punish,2021.1.2,Win32,59.68011459,,,,,,,,,,,,,,,,,,,,,,,,,,,,,,,,,,,,,,
,,,w,1,1.3172,4,2,18,2,1,left.png,,w,left,60f728553a37102574b585c4,2021-10-22_15h53.20.730,arrow_simon_punish,2021.1.2,Win32,59.68011459,,,,,,,,,,,,,,,,,,,,,,,,,,,,,,,,,,,,,,
,,,p,1,0.8014,4,3,19,0,1,right.png,,p,left,60f728553a37102574b585c4,2021-10-22_15h53.20.730,arrow_simon_punish,2021.1.2,Win32,59.68011459,,,,,,,,,,,,,,,,,,,,,,,,,,,,,,,,,,,,,,
,,,p,1,1.0577,5,0,20,0,1,right.png,,p,left,60f728553a37102574b585c4,2021-10-22_15h53.20.730,arrow_simon_punish,2021.1.2,Win32,59.68011459,,,,,,,,,,,,,,,,,,,,,,,,,,,,,,,,,,,,,,
,,,p,1,1.4696,5,1,21,1,1,right.png,,p,right,60f728553a37102574b585c4,2021-10-22_15h53.20.730,arrow_simon_punish,2021.1.2,Win32,59.68011459,,,,,,,,,,,,,,,,,,,,,,,,,,,,,,,,,,,,,,
,,,w,1,1.0293,5,2,22,2,1,left.png,,w,left,60f728553a37102574b585c4,2021-10-22_15h53.20.730,arrow_simon_punish,2021.1.2,Win32,59.68011459,,,,,,,,,,,,,,,,,,,,,,,,,,,,,,,,,,,,,,
,,,w,1,1.6902,5,3,23,3,1,left.png,,w,right,60f728553a37102574b585c4,2021-10-22_15h53.20.730,arrow_simon_punish,2021.1.2,Win32,59.68011459,,,,,,,,,,,,,,,,,,,,,,,,,,,,,,,,,,,,,,
,,,w,1,1.2896,6,0,24,3,1,left.png,,w,right,60f728553a37102574b585c4,2021-10-22_15h53.20.730,arrow_simon_punish,2021.1.2,Win32,59.68011459,,,,,,,,,,,,,,,,,,,,,,,,,,,,,,,,,,,,,,
,,,p,1,1.2405,6,1,25,1,1,right.png,,p,right,60f728553a37102574b585c4,2021-10-22_15h53.20.730,arrow_simon_punish,2021.1.2,Win32,59.68011459,,,,,,,,,,,,,,,,,,,,,,,,,,,,,,,,,,,,,,
,,,p,1,1.2231,6,2,26,0,1,right.png,,p,left,60f728553a37102574b585c4,2021-10-22_15h53.20.730,arrow_simon_punish,2021.1.2,Win32,59.68011459,,,,,,,,,,,,,,,,,,,,,,,,,,,,,,,,,,,,,,
,,,w,1,1.2174,6,3,27,2,1,left.png,,w,left,60f728553a37102574b585c4,2021-10-22_15h53.20.730,arrow_simon_punish,2021.1.2,Win32,59.68011459,,,,,,,,,,,,,,,,,,,,,,,,,,,,,,,,,,,,,,
,,,w,1,1.004,7,0,28,3,1,left.png,,w,right,60f728553a37102574b585c4,2021-10-22_15h53.20.730,arrow_simon_punish,2021.1.2,Win32,59.68011459,,,,,,,,,,,,,,,,,,,,,,,,,,,,,,,,,,,,,,
,,,p,1,1.0345,7,1,29,0,1,right.png,,p,left,60f728553a37102574b585c4,2021-10-22_15h53.20.730,arrow_simon_punish,2021.1.2,Win32,59.68011459,,,,,,,,,,,,,,,,,,,,,,,,,,,,,,,,,,,,,,
,,,p,0,1.4174,7,2,30,2,1,left.png,,w,left,60f728553a37102574b585c4,2021-10-22_15h53.20.730,arrow_simon_punish,2021.1.2,Win32,59.68011459,,,,,,,,,,,,,,,,,,,,,,,,,,,,,,,,,,,,,,
,,,p,1,1.3821,7,3,31,1,1,right.png,,p,right,60f728553a37102574b585c4,2021-10-22_15h53.20.730,arrow_simon_punish,2021.1.2,Win32,59.68011459,,,,,,,,,,,,,,,,,,,,,,,,,,,,,,,,,,,,,,
,,,p,1,0.9331,8,0,32,1,1,right.png,,p,right,60f728553a37102574b585c4,2021-10-22_15h53.20.730,arrow_simon_punish,2021.1.2,Win32,59.68011459,,,,,,,,,,,,,,,,,,,,,,,,,,,,,,,,,,,,,,
,,,w,1,0.8246,8,1,33,2,1,left.png,,w,left,60f728553a37102574b585c4,2021-10-22_15h53.20.730,arrow_simon_punish,2021.1.2,Win32,59.68011459,,,,,,,,,,,,,,,,,,,,,,,,,,,,,,,,,,,,,,
,,,w,1,1.2839,8,2,34,3,1,left.png,,w,right,60f728553a37102574b585c4,2021-10-22_15h53.20.730,arrow_simon_punish,2021.1.2,Win32,59.68011459,,,,,,,,,,,,,,,,,,,,,,,,,,,,,,,,,,,,,,
,,,p,1,1.4841,8,3,35,0,1,right.png,,p,left,60f728553a37102574b585c4,2021-10-22_15h53.20.730,arrow_simon_punish,2021.1.2,Win32,59.68011459,,,,,,,,,,,,,,,,,,,,,,,,,,,,,,,,,,,,,,
,,,w,1,1.5581,9,0,36,2,1,left.png,,w,left,60f728553a37102574b585c4,2021-10-22_15h53.20.730,arrow_simon_punish,2021.1.2,Win32,59.68011459,,,,,,,,,,,,,,,,,,,,,,,,,,,,,,,,,,,,,,
,,,p,1,1.4168,9,1,37,0,1,right.png,,p,left,60f728553a37102574b585c4,2021-10-22_15h53.20.730,arrow_simon_punish,2021.1.2,Win32,59.68011459,,,,,,,,,,,,,,,,,,,,,,,,,,,,,,,,,,,,,,
,,,p,1,1.3743,9,2,38,1,1,right.png,,p,right,60f728553a37102574b585c4,2021-10-22_15h53.20.730,arrow_simon_punish,2021.1.2,Win32,59.68011459,,,,,,,,,,,,,,,,,,,,,,,,,,,,,,,,,,,,,,
,,,w,1,1.3297,9,3,39,3,1,left.png,,w,right,60f728553a37102574b585c4,2021-10-22_15h53.20.730,arrow_simon_punish,2021.1.2,Win32,59.68011459,,,,,,,,,,,,,,,,,,,,,,,,,,,,,,,,,,,,,,
,,,,,,,,,,,,,,,60f728553a37102574b585c4,2021-10-22_15h53.20.730,arrow_simon_punish,2021.1.2,Win32,59.68011459,space,0,46.0228,p,2.8449,0,0,0,0,1,,,,,,,,,,,,,,,,,,,,,,,,,,,,
,,,,,,,,,,,,,,,60f728553a37102574b585c4,2021-10-22_15h53.20.730,arrow_simon_punish,2021.1.2,Win32,59.68011459,,,,p,2.4842,1,0,1,0,1,,,,,,,,,,,,,,,,,,,,,,,,,,,,
,,,,,,,,,,,,,,,60f728553a37102574b585c4,2021-10-22_15h53.20.730,arrow_simon_punish,2021.1.2,Win32,59.68011459,,,,p,2.4494,2,0,2,0,1,,,,,,,,,,,,,,,,,,,,,,,,,,,,
,,,,,,,,,,,,,,,60f728553a37102574b585c4,2021-10-22_15h53.20.730,arrow_simon_punish,2021.1.2,Win32,59.68011459,,,,p,2.3872,3,0,3,0,1,,,,,,,,,,,,,,,,,,,,,,,,,,,,
,,,,,,,,,,,,,,,60f728553a37102574b585c4,2021-10-22_15h53.20.730,arrow_simon_punish,2021.1.2,Win32,59.68011459,,,,p,2.499,4,0,4,0,1,,,,,,,,,,,,,,,,,,,,,,,,,,,,
,,,,,,,,,,,,,,,60f728553a37102574b585c4,2021-10-22_15h53.20.730,arrow_simon_punish,2021.1.2,Win32,59.68011459,,,,p,2.0312,5,0,5,0,1,,,,,,,,,,,,,,,,,,,,,,,,,,,,
,,,,,,,,,,,,,,,60f728553a37102574b585c4,2021-10-22_15h53.20.730,arrow_simon_punish,2021.1.2,Win32,59.68011459,,,,p,2.5652,6,0,6,0,1,,,,,,,,,,,,,,,,,,,,,,,,,,,,
,,,,,,,,,,,,,,,60f728553a37102574b585c4,2021-10-22_15h53.20.730,arrow_simon_punish,2021.1.2,Win32,59.68011459,,,,p,2.8259,7,0,7,0,1,,,,,,,,,,,,,,,,,,,,,,,,,,,,
,,,,,,,,,,,,,,,60f728553a37102574b585c4,2021-10-22_15h53.20.730,arrow_simon_punish,2021.1.2,Win32,59.68011459,,,,p,2.4129,8,0,8,0,1,,,,,,,,,,,,,,,,,,,,,,,,,,,,
,,,,,,,,,,,,,,,60f728553a37102574b585c4,2021-10-22_15h53.20.730,arrow_simon_punish,2021.1.2,Win32,59.68011459,,,,p,2.7716,9,0,9,0,1,,,,,,,,,,,,,,,,,,,,,,,,,,,,
,,,,,,,,,,,,,,,60f728553a37102574b585c4,2021-10-22_15h53.20.730,arrow_simon_punish,2021.1.2,Win32,59.68011459,,,,w,2.1422,10,0,10,0,1,,,,,,,,,,,,,,,,,,,,,,,,,,,,
,,,,,,,,,,,,,,,60f728553a37102574b585c4,2021-10-22_15h53.20.730,arrow_simon_punish,2021.1.2,Win32,59.68011459,,,,w,2.4881,11,0,11,0,1,,,,,,,,,,,,,,,,,,,,,,,,,,,,
,,,,,,,,,,,,,,,60f728553a37102574b585c4,2021-10-22_15h53.20.730,arrow_simon_punish,2021.1.2,Win32,59.68011459,,,,w,2.6371,12,0,12,0,1,,,,,,,,,,,,,,,,,,,,,,,,,,,,
,,,,,,,,,,,,,,,60f728553a37102574b585c4,2021-10-22_15h53.20.730,arrow_simon_punish,2021.1.2,Win32,59.68011459,,,,w,2.4675,13,0,13,0,1,,,,,,,,,,,,,,,,,,,,,,,,,,,,
,,,,,,,,,,,,,,,60f728553a37102574b585c4,2021-10-22_15h53.20.730,arrow_simon_punish,2021.1.2,Win32,59.68011459,,,,w,2.3611,14,0,14,0,1,,,,,,,,,,,,,,,,,,,,,,,,,,,,
,,,,,,,,,,,,,,,60f728553a37102574b585c4,2021-10-22_15h53.20.730,arrow_simon_punish,2021.1.2,Win32,59.68011459,,,,w,2.4875,15,0,15,0,1,,,,,,,,,,,,,,,,,,,,,,,,,,,,
,,,,,,,,,,,,,,,60f728553a37102574b585c4,2021-10-22_15h53.20.730,arrow_simon_punish,2021.1.2,Win32,59.68011459,,,,w,2.4674,16,0,16,0,1,,,,,,,,,,,,,,,,,,,,,,,,,,,,
,,,,,,,,,,,,,,,60f728553a37102574b585c4,2021-10-22_15h53.20.730,arrow_simon_punish,2021.1.2,Win32,59.68011459,,,,w,2.4738,17,0,17,0,1,,,,,,,,,,,,,,,,,,,,,,,,,,,,
,,,,,,,,,,,,,,,60f728553a37102574b585c4,2021-10-22_15h53.20.730,arrow_simon_punish,2021.1.2,Win32,59.68011459,,,,w,2.4865,18,0,18,0,1,,,,,,,,,,,,,,,,,,,,,,,,,,,,
,,,,,,,,,,,,,,,60f728553a37102574b585c4,2021-10-22_15h53.20.730,arrow_simon_punish,2021.1.2,Win32,59.68011459,,,,w,2.5178,19,0,19,0,1,,,,,,,,,,,,,,,,,,,,,,,,,,,,
,,,,,,,,,,,,,,,60f728553a37102574b585c4,2021-10-22_15h53.20.730,arrow_simon_punish,2021.1.2,Win32,59.68011459,,,,w,2.5534,20,0,20,0,1,,,,,,,,,,,,,,,,,,,,,,,,,,,,
,,,,,,,,,,,,,,,60f728553a37102574b585c4,2021-10-22_15h53.20.730,arrow_simon_punish,2021.1.2,Win32,59.68011459,,,,w,2.504,21,0,21,0,1,,,,,,,,,,,,,,,,,,,,,,,,,,,,
,,,,,,,,,,,,,,,60f728553a37102574b585c4,2021-10-22_15h53.20.730,arrow_simon_punish,2021.1.2,Win32,59.68011459,,,,w,2.4384,22,0,22,0,1,,,,,,,,,,,,,,,,,,,,,,,,,,,,
,,,,,,,,,,,,,,,60f728553a37102574b585c4,2021-10-22_15h53.20.730,arrow_simon_punish,2021.1.2,Win32,59.68011459,,,,w,2.4998,23,0,23,0,1,,,,,,,,,,,,,,,,,,,,,,,,,,,,
,,,,,,,,,,,,,,,60f728553a37102574b585c4,2021-10-22_15h53.20.730,arrow_simon_punish,2021.1.2,Win32,59.68011459,,,,w,2.3983,24,0,24,0,1,,,,,,,,,,,,,,,,,,,,,,,,,,,,
,,,,,,,,,,,,,,,60f728553a37102574b585c4,2021-10-22_15h53.20.730,arrow_simon_punish,2021.1.2,Win32,59.68011459,,,,w,2.5414,25,0,25,0,1,,,,,,,,,,,,,,,,,,,,,,,,,,,,
,,,,,,,,,,,,,,,60f728553a37102574b585c4,2021-10-22_15h53.20.730,arrow_simon_punish,2021.1.2,Win32,59.68011459,,,,w,2.5179,26,0,26,0,1,,,,,,,,,,,,,,,,,,,,,,,,,,,,
,,,,,,,,,,,,,,,60f728553a37102574b585c4,2021-10-22_15h53.20.730,arrow_simon_punish,2021.1.2,Win32,59.68011459,,,,w,2.4704,27,0,27,0,1,,,,,,,,,,,,,,,,,,,,,,,,,,,,
,,,,,,,,,,,,,,,60f728553a37102574b585c4,2021-10-22_15h53.20.730,arrow_simon_punish,2021.1.2,Win32,59.68011459,,,,w,2.4741,28,0,28,0,1,,,,,,,,,,,,,,,,,,,,,,,,,,,,
,,,,,,,,,,,,,,,60f728553a37102574b585c4,2021-10-22_15h53.20.730,arrow_simon_punish,2021.1.2,Win32,59.68011459,,,,w,2.9335,29,0,29,0,1,,,,,,,,,,,,,,,,,,,,,,,,,,,,
,,,,,,,,,,,,,,,60f728553a37102574b585c4,2021-10-22_15h53.20.730,arrow_simon_punish,2021.1.2,Win32,59.68011459,,,,w,2.4072,30,0,30,0,1,,,,,,,,,,,,,,,,,,,,,,,,,,,,
,,,,,,,,,,,,,,,60f728553a37102574b585c4,2021-10-22_15h53.20.730,arrow_simon_punish,2021.1.2,Win32,59.68011459,,,,w,2.5878,31,0,31,0,1,,,,,,,,,,,,,,,,,,,,,,,,,,,,
,,,,,,,,,,,,,,,60f728553a37102574b585c4,2021-10-22_15h53.20.730,arrow_simon_punish,2021.1.2,Win32,59.68011459,,,,w,2.456,32,0,32,0,1,,,,,,,,,,,,,,,,,,,,,,,,,,,,
,,,,,,,,,,,,,,,60f728553a37102574b585c4,2021-10-22_15h53.20.730,arrow_simon_punish,2021.1.2,Win32,59.68011459,,,,w,2.4543,33,0,33,0,1,,,,,,,,,,,,,,,,,,,,,,,,,,,,
,,,,,,,,,,,,,,,60f728553a37102574b585c4,2021-10-22_15h53.20.730,arrow_simon_punish,2021.1.2,Win32,59.68011459,,,,w,2.5626,34,0,34,0,1,,,,,,,,,,,,,,,,,,,,,,,,,,,,
,,,,,,,,,,,,,,,60f728553a37102574b585c4,2021-10-22_15h53.20.730,arrow_simon_punish,2021.1.2,Win32,59.68011459,,,,w,2.7851,35,0,35,0,1,,,,,,,,,,,,,,,,,,,,,,,,,,,,
,,,,,,,,,,,,,,,60f728553a37102574b585c4,2021-10-22_15h53.20.730,arrow_simon_punish,2021.1.2,Win32,59.68011459,,,,w,2.5041,36,0,36,0,1,,,,,,,,,,,,,,,,,,,,,,,,,,,,
,,,,,,,,,,,,,,,60f728553a37102574b585c4,2021-10-22_15h53.20.730,arrow_simon_punish,2021.1.2,Win32,59.68011459,,,,p,2.5345,37,0,37,0,1,,,,,,,,,,,,,,,,,,,,,,,,,,,,
,,,,,,,,,,,,,,,60f728553a37102574b585c4,2021-10-22_15h53.20.730,arrow_simon_punish,2021.1.2,Win32,59.68011459,,,,p,2.4685,38,0,38,0,1,,,,,,,,,,,,,,,,,,,,,,,,,,,,
,,,,,,,,,,,,,,,60f728553a37102574b585c4,2021-10-22_15h53.20.730,arrow_simon_punish,2021.1.2,Win32,59.68011459,,,,p,2.6707,39,0,39,0,1,,,,,,,,,,,,,,,,,,,,,,,,,,,,
,,,,,,,,,,,,,,,60f728553a37102574b585c4,2021-10-22_15h53.20.730,arrow_simon_punish,2021.1.2,Win32,59.68011459,,,,p,2.3503,40,0,40,0,1,,,,,,,,,,,,,,,,,,,,,,,,,,,,
,,,,,,,,,,,,,,,60f728553a37102574b585c4,2021-10-22_15h53.20.730,arrow_simon_punish,2021.1.2,Win32,59.68011459,,,,p,2.4709,41,0,41,0,1,,,,,,,,,,,,,,,,,,,,,,,,,,,,
,,,,,,,,,,,,,,,60f728553a37102574b585c4,2021-10-22_15h53.20.730,arrow_simon_punish,2021.1.2,Win32,59.68011459,,,,p,2.4895,42,0,42,0,1,,,,,,,,,,,,,,,,,,,,,,,,,,,,
,,,,,,,,,,,,,,,60f728553a37102574b585c4,2021-10-22_15h53.20.730,arrow_simon_punish,2021.1.2,Win32,59.68011459,,,,p,2.4333,43,0,43,0,1,,,,,,,,,,,,,,,,,,,,,,,,,,,,
,,,,,,,,,,,,,,,60f728553a37102574b585c4,2021-10-22_15h53.20.730,arrow_simon_punish,2021.1.2,Win32,59.68011459,,,,p,2.4509,44,0,44,0,1,,,,,,,,,,,,,,,,,,,,,,,,,,,,
,,,,,,,,,,,,,,,60f728553a37102574b585c4,2021-10-22_15h53.20.730,arrow_simon_punish,2021.1.2,Win32,59.68011459,,,,p,2.4801,45,0,45,0,1,,,,,,,,,,,,,,,,,,,,,,,,,,,,
,,,,,,,,,,,,,,,60f728553a37102574b585c4,2021-10-22_15h53.20.730,arrow_simon_punish,2021.1.2,Win32,59.68011459,,,,p,2.5197,46,0,46,0,1,,,,,,,,,,,,,,,,,,,,,,,,,,,,
,,,,,,,,,,,,,,,60f728553a37102574b585c4,2021-10-22_15h53.20.730,arrow_simon_punish,2021.1.2,Win32,59.68011459,,,,p,2.4738,47,0,47,0,1,,,,,,,,,,,,,,,,,,,,,,,,,,,,
,,,,,,,,,,,,,,,60f728553a37102574b585c4,2021-10-22_15h53.20.730,arrow_simon_punish,2021.1.2,Win32,59.68011459,,,,p,2.6875,48,0,48,0,1,,,,,,,,,,,,,,,,,,,,,,,,,,,,
,,,,,,,,,,,,,,,60f728553a37102574b585c4,2021-10-22_15h53.20.730,arrow_simon_punish,2021.1.2,Win32,59.68011459,,,,p,2.5878,49,0,49,0,1,,,,,,,,,,,,,,,,,,,,,,,,,,,,
,,,,,,,,,,,,,,,60f728553a37102574b585c4,2021-10-22_15h53.20.730,arrow_simon_punish,2021.1.2,Win32,59.68011459,,,,p,2.5027,50,0,50,0,1,,,,,,,,,,,,,,,,,,,,,,,,,,,,
,,,,,,,,,,,,,,,60f728553a37102574b585c4,2021-10-22_15h53.20.730,arrow_simon_punish,2021.1.2,Win32,59.68011459,,,,p,2.565,51,0,51,0,1,,,,,,,,,,,,,,,,,,,,,,,,,,,,
,,,,,,,,,,,,,,,60f728553a37102574b585c4,2021-10-22_15h53.20.730,arrow_simon_punish,2021.1.2,Win32,59.68011459,,,,p,2.6168,52,0,52,0,1,,,,,,,,,,,,,,,,,,,,,,,,,,,,
,,,,,,,,,,,,,,,60f728553a37102574b585c4,2021-10-22_15h53.20.730,arrow_simon_punish,2021.1.2,Win32,59.68011459,,,,p,2.4083,53,0,53,0,1,,,,,,,,,,,,,,,,,,,,,,,,,,,,
,,,,,,,,,,,,,,,60f728553a37102574b585c4,2021-10-22_15h53.20.730,arrow_simon_punish,2021.1.2,Win32,59.68011459,,,,p,2.4931,54,0,54,0,1,,,,,,,,,,,,,,,,,,,,,,,,,,,,
,,,,,,,,,,,,,,,60f728553a37102574b585c4,2021-10-22_15h53.20.730,arrow_simon_punish,2021.1.2,Win32,59.68011459,,,,p,2.4797,55,0,55,0,1,,,,,,,,,,,,,,,,,,,,,,,,,,,,
,,,,,,,,,,,,,,,60f728553a37102574b585c4,2021-10-22_15h53.20.730,arrow_simon_punish,2021.1.2,Win32,59.68011459,,,,p,2.3576,56,0,56,0,1,,,,,,,,,,,,,,,,,,,,,,,,,,,,
,,,,,,,,,,,,,,,60f728553a37102574b585c4,2021-10-22_15h53.20.730,arrow_simon_punish,2021.1.2,Win32,59.68011459,,,,p,2.2034,57,0,57,0,1,,,,,,,,,,,,,,,,,,,,,,,,,,,,
,,,,,,,,,,,,,,,60f728553a37102574b585c4,2021-10-22_15h53.20.730,arrow_simon_punish,2021.1.2,Win32,59.68011459,,,,w,2.0032,58,0,58,0,1,,,,,,,,,,,,,,,,,,,,,,,,,,,,
,,,,,,,,,,,,,,,60f728553a37102574b585c4,2021-10-22_15h53.20.730,arrow_simon_punish,2021.1.2,Win32,59.68011459,,,,w,2.4837,59,0,59,0,1,,,,,,,,,,,,,,,,,,,,,,,,,,,,
,,,,,,,,,,,right.png,,p,left,60f728553a37102574b585c4,2021-10-22_15h53.20.730,arrow_simon_punish,2021.1.2,Win32,59.68011459,,,,,,,,,,,space,0,52.7461,p,1,2.1353,2.136976904,1,1,0,0,0,0,1,,,,,,,,,,,,,,
,,,,,,,,,,,left.png,,w,right,60f728553a37102574b585c4,2021-10-22_15h53.20.730,arrow_simon_punish,2021.1.2,Win32,59.68011459,,,,,,,,,,,,,,w,1,1.9694,2.336919091,1,1,0,1,1,3,1,,,,,,,,,,,,,,
,,,,,,,,,,,right.png,,p,right,60f728553a37102574b585c4,2021-10-22_15h53.20.730,arrow_simon_punish,2021.1.2,Win32,59.68011459,,,,,,,,,,,,,,p,1,0.8771,1.567235656,1,1,0,2,2,1,1,,,,,,,,,,,,,,
,,,,,,,,,,,right.png,,p,left,60f728553a37102574b585c4,2021-10-22_15h53.20.730,arrow_simon_punish,2021.1.2,Win32,59.68011459,,,,,,,,,,,,,,p,1,1.6108,2.12446357,1,1,0,3,3,0,1,,,,,,,,,,,,,,
,,,,,,,,,,,left.png,,w,left,60f728553a37102574b585c4,2021-10-22_15h53.20.730,arrow_simon_punish,2021.1.2,Win32,59.68011459,,,,,,,,,,,,,,w,1,1.431,2.106337793,0,1,1,0,4,2,1,,,,,,,,,,,,,,
,,,,,,,,,,,left.png,,w,left,60f728553a37102574b585c4,2021-10-22_15h53.20.730,arrow_simon_punish,2021.1.2,Win32,59.68011459,,,,,,,,,,,,,,w,1,1.4094,1.983812049,0,1,1,1,5,2,1,,,,,,,,,,,,,,
,,,,,,,,,,,left.png,,w,right,60f728553a37102574b585c4,2021-10-22_15h53.20.730,arrow_simon_punish,2021.1.2,Win32,59.68011459,,,,,,,,,,,,,,p,0,1.0188,1.62271919,1,1,1,2,6,3,1,,,,,,,,,,,,,,
,,,,,,,,,,,left.png,,w,right,60f728553a37102574b585c4,2021-10-22_15h53.20.730,arrow_simon_punish,2021.1.2,Win32,59.68011459,,,,,,,,,,,,,,w,1,1.4369,1.691005627,0,1,1,3,7,3,1,,,,,,,,,,,,,,
,,,,,,,,,,,left.png,,w,left,60f728553a37102574b585c4,2021-10-22_15h53.20.730,arrow_simon_punish,2021.1.2,Win32,59.68011459,,,,,,,,,,,,,,w,1,1.2192,1.822698302,1,1,2,0,8,2,1,,,,,,,,,,,,,,
,,,,,,,,,,,right.png,,p,left,60f728553a37102574b585c4,2021-10-22_15h53.20.730,arrow_simon_punish,2021.1.2,Win32,59.68011459,,,,,,,,,,,,,,p,1,2.1393,2.491353337,1,1,2,1,9,0,1,,,,,,,,,,,,,,
,,,,,,,,,,,right.png,,p,left,60f728553a37102574b585c4,2021-10-22_15h53.20.730,arrow_simon_punish,2021.1.2,Win32,59.68011459,,,,,,,,,,,,,,w,0,1.1914,1.73098055,1,1,2,2,10,0,1,,,,,,,,,,,,,,
,,,,,,,,,,,left.png,,w,right,60f728553a37102574b585c4,2021-10-22_15h53.20.730,arrow_simon_punish,2021.1.2,Win32,59.68011459,,,,,,,,,,,,,,w,1,1.6553,2.013422036,1,1,2,3,11,3,1,,,,,,,,,,,,,,
,,,,,,,,,,,right.png,,p,right,60f728553a37102574b585c4,2021-10-22_15h53.20.730,arrow_simon_punish,2021.1.2,Win32,59.68011459,,,,,,,,,,,,,,p,1,1.406,1.636352752,0,1,3,0,12,1,1,,,,,,,,,,,,,,
,,,,,,,,,,,right.png,,p,right,60f728553a37102574b585c4,2021-10-22_15h53.20.730,arrow_simon_punish,2021.1.2,Win32,59.68011459,,,,,,,,,,,,,,p,1,1.8294,2.185161652,1,1,3,1,13,1,1,,,,,,,,,,,,,,
,,,,,,,,,,,left.png,,w,right,60f728553a37102574b585c4,2021-10-22_15h53.20.730,arrow_simon_punish,2021.1.2,Win32,59.68011459,,,,,,,,,,,,,,w,1,1.6876,2.182213787,1,1,3,2,14,3,1,,,,,,,,,,,,,,
,,,,,,,,,,,left.png,,w,right,60f728553a37102574b585c4,2021-10-22_15h53.20.730,arrow_simon_punish,2021.1.2,Win32,59.68011459,,,,,,,,,,,,,,w,1,1.6066,2.154315371,1,1,3,3,15,3,1,,,,,,,,,,,,,,
,,,,,,,,,,,right.png,,p,left,60f728553a37102574b585c4,2021-10-22_15h53.20.730,arrow_simon_punish,2021.1.2,Win32,59.68011459,,,,,,,,,,,,,,p,1,1.4293,1.945681368,0,1,4,0,16,0,1,,,,,,,,,,,,,,
,,,,,,,,,,,right.png,,p,left,60f728553a37102574b585c4,2021-10-22_15h53.20.730,arrow_simon_punish,2021.1.2,Win32,59.68011459,,,,,,,,,,,,,,p,1,1.1356,1.521150587,1,1,4,1,17,0,1,,,,,,,,,,,,,,
,,,,,,,,,,,left.png,,w,left,60f728553a37102574b585c4,2021-10-22_15h53.20.730,arrow_simon_punish,2021.1.2,Win32,59.68011459,,,,,,,,,,,,,,w,1,0.9944,1.531596287,1,1,4,2,18,2,1,,,,,,,,,,,,,,
,,,,,,,,,,,left.png,,w,right,60f728553a37102574b585c4,2021-10-22_15h53.20.730,arrow_simon_punish,2021.1.2,Win32,59.68011459,,,,,,,,,,,,,,w,1,1.8658,2.181983445,1,1,4,3,19,3,1,,,,,,,,,,,,,,
,,,,,,,,,,,left.png,,w,right,60f728553a37102574b585c4,2021-10-22_15h53.20.730,arrow_simon_punish,2021.1.2,Win32,59.68011459,,,,,,,,,,,,,,w,1,1.3702,1.815139651,1,1,5,0,20,3,1,,,,,,,,,,,,,,
,,,,,,,,,,,left.png,,w,left,60f728553a37102574b585c4,2021-10-22_15h53.20.730,arrow_simon_punish,2021.1.2,Win32,59.68011459,,,,,,,,,,,,,,w,1,1.4215,1.989335522,0,1,5,1,21,2,1,,,,,,,,,,,,,,
,,,,,,,,,,,left.png,,w,right,60f728553a37102574b585c4,2021-10-22_15h53.20.730,arrow_simon_punish,2021.1.2,Win32,59.68011459,,,,,,,,,,,,,,w,1,1.2824,1.766562879,1,1,5,2,22,3,1,,,,,,,,,,,,,,
,,,,,,,,,,,left.png,,w,left,60f728553a37102574b585c4,2021-10-22_15h53.20.730,arrow_simon_punish,2021.1.2,Win32,59.68011459,,,,,,,,,,,,,,w,1,1.704,2.131319046,1,1,5,3,23,2,1,,,,,,,,,,,,,,
,,,,,,,,,,,right.png,,p,right,60f728553a37102574b585c4,2021-10-22_15h53.20.730,arrow_simon_punish,2021.1.2,Win32,59.68011459,,,,,,,,,,,,,,p,1,1.3193,1.764740987,1,1,6,0,24,1,1,,,,,,,,,,,,,,
,,,,,,,,,,,left.png,,w,left,60f728553a37102574b585c4,2021-10-22_15h53.20.730,arrow_simon_punish,2021.1.2,Win32,59.68011459,,,,,,,,,,,,,,w,1,1.2843,1.850765261,1,1,6,1,25,2,1,,,,,,,,,,,,,,
,,,,,,,,,,,left.png,,w,right,60f728553a37102574b585c4,2021-10-22_15h53.20.730,arrow_simon_punish,2021.1.2,Win32,59.68011459,,,,,,,,,,,,,,p,0,1.3197,1.95509389,1,1,6,2,26,3,1,,,,,,,,,,,,,,
,,,,,,,,,,,right.png,,p,right,60f728553a37102574b585c4,2021-10-22_15h53.20.730,arrow_simon_punish,2021.1.2,Win32,59.68011459,,,,,,,,,,,,,,p,1,1.1427,1.593743856,1,1,6,3,27,1,1,,,,,,,,,,,,,,
,,,,,,,,,,,right.png,,p,left,60f728553a37102574b585c4,2021-10-22_15h53.20.730,arrow_simon_punish,2021.1.2,Win32,59.68011459,,,,,,,,,,,,,,p,1,1.8881,2.084436579,1,1,7,0,28,0,1,,,,,,,,,,,,,,
,,,,,,,,,,,right.png,,p,right,60f728553a37102574b585c4,2021-10-22_15h53.20.730,arrow_simon_punish,2021.1.2,Win32,59.68011459,,,,,,,,,,,,,,p,1,1.4906,2.04527801,0,1,7,1,29,1,1,,,,,,,,,,,,,,
,,,,,,,,,,,left.png,,w,right,60f728553a37102574b585c4,2021-10-22_15h53.20.730,arrow_simon_punish,2021.1.2,Win32,59.68011459,,,,,,,,,,,,,,w,1,1.7111,2.18198556,1,1,7,2,30,3,1,,,,,,,,,,,,,,
,,,,,,,,,,,right.png,,p,right,60f728553a37102574b585c4,2021-10-22_15h53.20.730,arrow_simon_punish,2021.1.2,Win32,59.68011459,,,,,,,,,,,,,,p,1,1.489,1.914732251,0,1,7,3,31,1,1,,,,,,,,,,,,,,
,,,,,,,,,,,left.png,,w,right,60f728553a37102574b585c4,2021-10-22_15h53.20.730,arrow_simon_punish,2021.1.2,Win32,59.68011459,,,,,,,,,,,,,,w,1,1.598,2.044675865,0,1,8,0,32,3,1,,,,,,,,,,,,,,
,,,,,,,,,,,right.png,,p,right,60f728553a37102574b585c4,2021-10-22_15h53.20.730,arrow_simon_punish,2021.1.2,Win32,59.68011459,,,,,,,,,,,,,,p,1,1.3903,1.676729682,1,1,8,1,33,1,1,,,,,,,,,,,,,,
,,,,,,,,,,,left.png,,w,right,60f728553a37102574b585c4,2021-10-22_15h53.20.730,arrow_simon_punish,2021.1.2,Win32,59.68011459,,,,,,,,,,,,,,w,1,2.0461,2.255293653,1,1,8,2,34,3,1,,,,,,,,,,,,,,
,,,,,,,,,,,left.png,,w,left,60f728553a37102574b585c4,2021-10-22_15h53.20.730,arrow_simon_punish,2021.1.2,Win32,59.68011459,,,,,,,,,,,,,,w,1,1.0362,1.501999867,1,1,8,3,35,2,1,,,,,,,,,,,,,,
,,,,,,,,,,,right.png,,p,left,60f728553a37102574b585c4,2021-10-22_15h53.20.730,arrow_simon_punish,2021.1.2,Win32,59.68011459,,,,,,,,,,,,,,p,1,1.5554,1.857506723,0,1,9,0,36,0,1,,,,,,,,,,,,,,
,,,,,,,,,,,right.png,,p,left,60f728553a37102574b585c4,2021-10-22_15h53.20.730,arrow_simon_punish,2021.1.2,Win32,59.68011459,,,,,,,,,,,,,,p,1,2.0262,2.401414928,1,1,9,1,37,0,1,,,,,,,,,,,,,,
,,,,,,,,,,,right.png,,p,right,60f728553a37102574b585c4,2021-10-22_15h53.20.730,arrow_simon_punish,2021.1.2,Win32,59.68011459,,,,,,,,,,,,,,p,1,1.0074,1.540925872,1,1,9,2,38,1,1,,,,,,,,,,,,,,
,,,,,,,,,,,right.png,,p,right,60f728553a37102574b585c4,2021-10-22_15h53.20.730,arrow_simon_punish,2021.1.2,Win32,59.68011459,,,,,,,,,,,,,,p,1,1.7644,2.244641602,1,1,9,3,39,1,1,,,,,,,,,,,,,,
,,,,,,,,,,,right.png,,p,right,60f728553a37102574b585c4,2021-10-22_15h53.20.730,arrow_simon_punish,2021.1.2,Win32,59.68011459,,,,,,,,,,,,,,p,1,1.739,2.341769299,1,1,10,0,40,1,1,,,,,,,,,,,,,,
,,,,,,,,,,,right.png,,p,left,60f728553a37102574b585c4,2021-10-22_15h53.20.730,arrow_simon_punish,2021.1.2,Win32,59.68011459,,,,,,,,,,,,,,p,1,1.5421,1.9748513,0,1,10,1,41,0,1,,,,,,,,,,,,,,
,,,,,,,,,,,right.png,,p,left,60f728553a37102574b585c4,2021-10-22_15h53.20.730,arrow_simon_punish,2021.1.2,Win32,59.68011459,,,,,,,,,,,,,,p,1,2.0146,2.46273394,1,1,10,2,42,0,1,,,,,,,,,,,,,,
,,,,,,,,,,,right.png,,p,left,60f728553a37102574b585c4,2021-10-22_15h53.20.730,arrow_simon_punish,2021.1.2,Win32,59.68011459,,,,,,,,,,,,,,p,1,1.8884,2.358148149,1,1,10,3,43,0,1,,,,,,,,,,,,,,
,,,,,,,,,,,left.png,,w,left,60f728553a37102574b585c4,2021-10-22_15h53.20.730,arrow_simon_punish,2021.1.2,Win32,59.68011459,,,,,,,,,,,,,,w,1,1.5064,2.023135282,0,1,11,0,44,2,1,,,,,,,,,,,,,,
,,,,,,,,,,,right.png,,p,right,60f728553a37102574b585c4,2021-10-22_15h53.20.730,arrow_simon_punish,2021.1.2,Win32,59.68011459,,,,,,,,,,,,,,p,1,1.6196,2.187285659,1,1,11,1,45,1,1,,,,,,,,,,,,,,
,,,,,,,,,,,left.png,,w,left,60f728553a37102574b585c4,2021-10-22_15h53.20.730,arrow_simon_punish,2021.1.2,Win32,59.68011459,,,,,,,,,,,,,,w,1,1.6898,2.266673431,1,1,11,2,46,2,1,,,,,,,,,,,,,,
,,,,,,,,,,,right.png,,p,right,60f728553a37102574b585c4,2021-10-22_15h53.20.730,arrow_simon_punish,2021.1.2,Win32,59.68011459,,,,,,,,,,,,,,p,1,1.0921,1.756098914,1,1,11,3,47,1,1,,,,,,,,,,,,,,
,,,,,,,,,,,right.png,,p,left,60f728553a37102574b585c4,2021-10-22_15h53.20.730,arrow_simon_punish,2021.1.2,Win32,59.68011459,,,,,,,,,,,,,,p,1,2.0159,2.459986337,1,1,12,0,48,0,1,,,,,,,,,,,,,,
,,,,,,,,,,,left.png,,w,left,60f728553a37102574b585c4,2021-10-22_15h53.20.730,arrow_simon_punish,2021.1.2,Win32,59.68011459,,,,,,,,,,,,,,w,1,1.8902,2.420540724,1,1,12,1,49,2,1,,,,,,,,,,,,,,
,,,,,,,,,,,left.png,,w,left,60f728553a37102574b585c4,2021-10-22_15h53.20.730,arrow_simon_punish,2021.1.2,Win32,59.68011459,,,,,,,,,,,,,,w,1,1.2622,1.739620958,1,1,12,2,50,2,1,,,,,,,,,,,,,,
,,,,,,,,,,,left.png,,w,left,60f728553a37102574b585c4,2021-10-22_15h53.20.730,arrow_simon_punish,2021.1.2,Win32,59.68011459,,,,,,,,,,,,,,w,1,1.4559,1.95994347,0,1,12,3,51,2,1,,,,,,,,,,,,,,
,,,,,,,,,,,right.png,,p,left,60f728553a37102574b585c4,2021-10-22_15h53.20.730,arrow_simon_punish,2021.1.2,Win32,59.68011459,,,,,,,,,,,,,,p,1,1.9655,2.455399286,1,1,13,0,52,0,1,,,,,,,,,,,,,,
,,,,,,,,,,,left.png,,w,right,60f728553a37102574b585c4,2021-10-22_15h53.20.730,arrow_simon_punish,2021.1.2,Win32,59.68011459,,,,,,,,,,,,,,w,1,1.6358,2.120959187,1,1,13,1,53,3,1,,,,,,,,,,,,,,
,,,,,,,,,,,left.png,,w,left,60f728553a37102574b585c4,2021-10-22_15h53.20.730,arrow_simon_punish,2021.1.2,Win32,59.68011459,,,,,,,,,,,,,,w,1,1.0859,1.61669772,1,1,13,2,54,2,1,,,,,,,,,,,,,,
,,,,,,,,,,,left.png,,w,left,60f728553a37102574b585c4,2021-10-22_15h53.20.730,arrow_simon_punish,2021.1.2,Win32,59.68011459,,,,,,,,,,,,,,w,1,1.2048,1.739804876,1,1,13,3,55,2,1,,,,,,,,,,,,,,
,,,,,,,,,,,right.png,,p,right,60f728553a37102574b585c4,2021-10-22_15h53.20.730,arrow_simon_punish,2021.1.2,Win32,59.68011459,,,,,,,,,,,,,,p,1,1.923,2.498788248,1,1,14,0,56,1,1,,,,,,,,,,,,,,
,,,,,,,,,,,left.png,,w,right,60f728553a37102574b585c4,2021-10-22_15h53.20.730,arrow_simon_punish,2021.1.2,Win32,59.68011459,,,,,,,,,,,,,,w,1,1.6901,2.244714061,1,1,14,1,57,3,1,,,,,,,,,,,,,,
,,,,,,,,,,,right.png,,p,right,60f728553a37102574b585c4,2021-10-22_15h53.20.730,arrow_simon_punish,2021.1.2,Win32,59.68011459,,,,,,,,,,,,,,p,1,1.7965,2.385492147,1,1,14,2,58,1,1,,,,,,,,,,,,,,
,,,,,,,,,,,right.png,,p,left,60f728553a37102574b585c4,2021-10-22_15h53.20.730,arrow_simon_punish,2021.1.2,Win32,59.68011459,,,,,,,,,,,,,,p,1,1.2163,1.667056386,1,1,14,3,59,0,1,,,,,,,,,,,,,,
,,,,,,,,,,,,,,,60f728553a37102574b585c4,2021-10-22_15h53.20.730,arrow_simon_punish,2021.1.2,Win32,59.68011459,,,,,,,,,,,,,,,,,,,,,,,,,space,25.0481,2,0,0,0,0,1,1,,,,,
,,,,,,,,,,,left.png,,w,right,60f728553a37102574b585c4,2021-10-22_15h53.20.730,arrow_simon_punish,2021.1.2,Win32,59.68011459,,,,,,,,,,,,,,w,1,1.2198,1.682155213,1,5,0,0,0,3,1,,,,,,,,,,,,,,
,,,,,,,,,,,right.png,,p,right,60f728553a37102574b585c4,2021-10-22_15h53.20.730,arrow_simon_punish,2021.1.2,Win32,59.68011459,,,,,,,,,,,,,,p,1,1.4145,1.522295342,0,5,0,1,1,1,1,,,,,,,,,,,,,,
,,,,,,,,,,,right.png,,p,left,60f728553a37102574b585c4,2021-10-22_15h53.20.730,arrow_simon_punish,2021.1.2,Win32,59.68011459,,,,,,,,,,,,,,w,0,1.7693,2.489513848,1,5,0,2,2,0,1,,,,,,,,,,,,,,
,,,,,,,,,,,left.png,,w,left,60f728553a37102574b585c4,2021-10-22_15h53.20.730,arrow_simon_punish,2021.1.2,Win32,59.68011459,,,,,,,,,,,,,,w,1,1.6508,2.203645174,1,5,0,3,3,2,1,,,,,,,,,,,,,,
,,,,,,,,,,,right.png,,p,left,60f728553a37102574b585c4,2021-10-22_15h53.20.730,arrow_simon_punish,2021.1.2,Win32,59.68011459,,,,,,,,,,,,,,p,1,1.3034,1.779193608,1,5,1,0,4,0,1,,,,,,,,,,,,,,
,,,,,,,,,,,left.png,,w,right,60f728553a37102574b585c4,2021-10-22_15h53.20.730,arrow_simon_punish,2021.1.2,Win32,59.68011459,,,,,,,,,,,,,,w,1,1.306,1.693205205,1,5,1,1,5,3,1,,,,,,,,,,,,,,
,,,,,,,,,,,left.png,,w,left,60f728553a37102574b585c4,2021-10-22_15h53.20.730,arrow_simon_punish,2021.1.2,Win32,59.68011459,,,,,,,,,,,,,,w,1,1.4406,1.864683035,0,5,1,2,6,2,1,,,,,,,,,,,,,,
,,,,,,,,,,,left.png,,w,left,60f728553a37102574b585c4,2021-10-22_15h53.20.730,arrow_simon_punish,2021.1.2,Win32,59.68011459,,,,,,,,,,,,,,w,1,1.091,1.52316474,1,5,1,3,7,2,1,,,,,,,,,,,,,,
,,,,,,,,,,,left.png,,w,left,60f728553a37102574b585c4,2021-10-22_15h53.20.730,arrow_simon_punish,2021.1.2,Win32,59.68011459,,,,,,,,,,,,,,w,1,1.5165,2.125854523,0,5,2,0,8,2,1,,,,,,,,,,,,,,
,,,,,,,,,,,left.png,,w,right,60f728553a37102574b585c4,2021-10-22_15h53.20.730,arrow_simon_punish,2021.1.2,Win32,59.68011459,,,,,,,,,,,,,,w,1,1.4522,1.857256554,0,5,2,1,9,3,1,,,,,,,,,,,,,,
,,,,,,,,,,,right.png,,p,right,60f728553a37102574b585c4,2021-10-22_15h53.20.730,arrow_simon_punish,2021.1.2,Win32,59.68011459,,,,,,,,,,,,,,p,1,0.9361,1.515298089,1,5,2,2,10,1,1,,,,,,,,,,,,,,
,,,,,,,,,,,left.png,,w,right,60f728553a37102574b585c4,2021-10-22_15h53.20.730,arrow_simon_punish,2021.1.2,Win32,59.68011459,,,,,,,,,,,,,,p,0,1.3019,1.785479436,1,5,2,3,11,3,1,,,,,,,,,,,,,,
,,,,,,,,,,,right.png,,p,right,60f728553a37102574b585c4,2021-10-22_15h53.20.730,arrow_simon_punish,2021.1.2,Win32,59.68011459,,,,,,,,,,,,,,p,1,1.9182,2.486613959,1,5,3,0,12,1,1,,,,,,,,,,,,,,
,,,,,,,,,,,left.png,,w,left,60f728553a37102574b585c4,2021-10-22_15h53.20.730,arrow_simon_punish,2021.1.2,Win32,59.68011459,,,,,,,,,,,,,,w,1,1.0528,1.568245199,1,5,3,1,13,2,1,,,,,,,,,,,,,,
,,,,,,,,,,,right.png,,p,left,60f728553a37102574b585c4,2021-10-22_15h53.20.730,arrow_simon_punish,2021.1.2,Win32,59.68011459,,,,,,,,,,,,,,p,1,1.3858,1.930234227,1,5,3,2,14,0,1,,,,,,,,,,,,,,
,,,,,,,,,,,right.png,,p,left,60f728553a37102574b585c4,2021-10-22_15h53.20.730,arrow_simon_punish,2021.1.2,Win32,59.68011459,,,,,,,,,,,,,,p,1,1.3352,1.773889175,1,5,3,3,15,0,1,,,,,,,,,,,,,,
,,,,,,,,,,,right.png,,p,left,60f728553a37102574b585c4,2021-10-22_15h53.20.730,arrow_simon_punish,2021.1.2,Win32,59.68011459,,,,,,,,,,,,,,w,0,1.9015,2.358915206,1,5,4,0,16,0,1,,,,,,,,,,,,,,
,,,,,,,,,,,left.png,,w,left,60f728553a37102574b585c4,2021-10-22_15h53.20.730,arrow_simon_punish,2021.1.2,Win32,59.68011459,,,,,,,,,,,,,,w,1,1.6855,2.101279226,1,5,4,1,17,2,1,,,,,,,,,,,,,,
,,,,,,,,,,,right.png,,p,left,60f728553a37102574b585c4,2021-10-22_15h53.20.730,arrow_simon_punish,2021.1.2,Win32,59.68011459,,,,,,,,,,,,,,p,1,1.785,2.177921099,1,5,4,2,18,0,1,,,,,,,,,,,,,,
,,,,,,,,,,,left.png,,w,left,60f728553a37102574b585c4,2021-10-22_15h53.20.730,arrow_simon_punish,2021.1.2,Win32,59.68011459,,,,,,,,,,,,,,w,1,1.985,2.453232529,1,5,4,3,19,2,1,,,,,,,,,,,,,,
,,,,,,,,,,,left.png,,w,right,60f728553a37102574b585c4,2021-10-22_15h53.20.730,arrow_simon_punish,2021.1.2,Win32,59.68011459,,,,,,,,,,,,,,w,1,1.6514,2.020555746,1,5,5,0,20,3,1,,,,,,,,,,,,,,
,,,,,,,,,,,right.png,,p,left,60f728553a37102574b585c4,2021-10-22_15h53.20.730,arrow_simon_punish,2021.1.2,Win32,59.68011459,,,,,,,,,,,,,,p,1,1.8849,2.066655109,1,5,5,1,21,0,1,,,,,,,,,,,,,,
,,,,,,,,,,,right.png,,p,right,60f728553a37102574b585c4,2021-10-22_15h53.20.730,arrow_simon_punish,2021.1.2,Win32,59.68011459,,,,,,,,,,,,,,p,1,1.4021,1.786417587,0,5,5,2,22,1,1,,,,,,,,,,,,,,
,,,,,,,,,,,left.png,,w,right,60f728553a37102574b585c4,2021-10-22_15h53.20.730,arrow_simon_punish,2021.1.2,Win32,59.68011459,,,,,,,,,,,,,,w,1,1.4847,1.636119264,0,5,5,3,23,3,1,,,,,,,,,,,,,,
,,,,,,,,,,,left.png,,w,right,60f728553a37102574b585c4,2021-10-22_15h53.20.730,arrow_simon_punish,2021.1.2,Win32,59.68011459,,,,,,,,,,,,,,w,1,1.7021,2.166232313,1,5,6,0,24,3,1,,,,,,,,,,,,,,
,,,,,,,,,,,right.png,,p,right,60f728553a37102574b585c4,2021-10-22_15h53.20.730,arrow_simon_punish,2021.1.2,Win32,59.68011459,,,,,,,,,,,,,,p,1,1.669,2.243778943,1,5,6,1,25,1,1,,,,,,,,,,,,,,
,,,,,,,,,,,right.png,,p,right,60f728553a37102574b585c4,2021-10-22_15h53.20.730,arrow_simon_punish,2021.1.2,Win32,59.68011459,,,,,,,,,,,,,,p,1,1.4688,2.09522311,0,5,6,2,26,1,1,,,,,,,,,,,,,,
,,,,,,,,,,,right.png,,p,left,60f728553a37102574b585c4,2021-10-22_15h53.20.730,arrow_simon_punish,2021.1.2,Win32,59.68011459,,,,,,,,,,,,,,w,0,1.9847,2.491243467,1,5,6,3,27,0,1,,,,,,,,,,,,,,
,,,,,,,,,,,right.png,,p,left,60f728553a37102574b585c4,2021-10-22_15h53.20.730,arrow_simon_punish,2021.1.2,Win32,59.68011459,,,,,,,,,,,,,,p,1,1.5857,1.536240205,0,5,7,0,28,0,1,,,,,,,,,,,,,,
,,,,,,,,,,,left.png,,w,right,60f728553a37102574b585c4,2021-10-22_15h53.20.730,arrow_simon_punish,2021.1.2,Win32,59.68011459,,,,,,,,,,,,,,w,1,1.4191,1.535415969,0,5,7,1,29,3,1,,,,,,,,,,,,,,
,,,,,,,,,,,left.png,,w,right,60f728553a37102574b585c4,2021-10-22_15h53.20.730,arrow_simon_punish,2021.1.2,Win32,59.68011459,,,,,,,,,,,,,,w,1,1.6852,1.967850473,1,5,7,2,30,3,1,,,,,,,,,,,,,,
,,,,,,,,,,,left.png,,w,left,60f728553a37102574b585c4,2021-10-22_15h53.20.730,arrow_simon_punish,2021.1.2,Win32,59.68011459,,,,,,,,,,,,,,w,1,1.8356,2.053549157,1,5,7,3,31,2,1,,,,,,,,,,,,,,
,,,,,,,,,,,right.png,,p,right,60f728553a37102574b585c4,2021-10-22_15h53.20.730,arrow_simon_punish,2021.1.2,Win32,59.68011459,,,,,,,,,,,,,,p,1,1.2534,1.590512618,1,5,8,0,32,1,1,,,,,,,,,,,,,,
,,,,,,,,,,,right.png,,p,right,60f728553a37102574b585c4,2021-10-22_15h53.20.730,arrow_simon_punish,2021.1.2,Win32,59.68011459,,,,,,,,,,,,,,p,1,1.4187,1.748728061,0,5,8,1,33,1,1,,,,,,,,,,,,,,
,,,,,,,,,,,right.png,,p,left,60f728553a37102574b585c4,2021-10-22_15h53.20.730,arrow_simon_punish,2021.1.2,Win32,59.68011459,,,,,,,,,,,,,,w,0,1.7224,2.089680966,1,5,8,2,34,0,1,,,,,,,,,,,,,,
,,,,,,,,,,,left.png,,w,left,60f728553a37102574b585c4,2021-10-22_15h53.20.730,arrow_simon_punish,2021.1.2,Win32,59.68011459,,,,,,,,,,,,,,w,1,2.0706,1.993579282,1,5,8,3,35,2,1,,,,,,,,,,,,,,
,,,,,,,,,,,right.png,,p,right,60f728553a37102574b585c4,2021-10-22_15h53.20.730,arrow_simon_punish,2021.1.2,Win32,59.68011459,,,,,,,,,,,,,,p,1,1.552,1.847015466,0,5,9,0,36,1,1,,,,,,,,,,,,,,
,,,,,,,,,,,left.png,,w,right,60f728553a37102574b585c4,2021-10-22_15h53.20.730,arrow_simon_punish,2021.1.2,Win32,59.68011459,,,,,,,,,,,,,,w,1,1.3905,1.691001457,1,5,9,1,37,3,1,,,,,,,,,,,,,,
,,,,,,,,,,,right.png,,p,left,60f728553a37102574b585c4,2021-10-22_15h53.20.730,arrow_simon_punish,2021.1.2,Win32,59.68011459,,,,,,,,,,,,,,p,1,1.7031,1.877356835,1,5,9,2,38,0,1,,,,,,,,,,,,,,
,,,,,,,,,,,right.png,,p,left,60f728553a37102574b585c4,2021-10-22_15h53.20.730,arrow_simon_punish,2021.1.2,Win32,59.68011459,,,,,,,,,,,,,,w,0,1.6184,2.126826814,1,5,9,3,39,0,1,,,,,,,,,,,,,,
,,,,,,,,,,,left.png,,w,left,60f728553a37102574b585c4,2021-10-22_15h53.20.730,arrow_simon_punish,2021.1.2,Win32,59.68011459,,,,,,,,,,,,,,p,0,1.8022,2.018040532,1,5,10,0,40,2,1,,,,,,,,,,,,,,
,,,,,,,,,,,right.png,,p,right,60f728553a37102574b585c4,2021-10-22_15h53.20.730,arrow_simon_punish,2021.1.2,Win32,59.68011459,,,,,,,,,,,,,,p,1,1.6183,2.167463193,1,5,10,1,41,1,1,,,,,,,,,,,,,,
,,,,,,,,,,,left.png,,w,left,60f728553a37102574b585c4,2021-10-22_15h53.20.730,arrow_simon_punish,2021.1.2,Win32,59.68011459,,,,,,,,,,,,,,w,1,1.3029,1.561846099,1,5,10,2,42,2,1,,,,,,,,,,,,,,
,,,,,,,,,,,right.png,,p,left,60f728553a37102574b585c4,2021-10-22_15h53.20.730,arrow_simon_punish,2021.1.2,Win32,59.68011459,,,,,,,,,,,,,,p,1,1.9856,2.39112743,1,5,10,3,43,0,1,,,,,,,,,,,,,,
,,,,,,,,,,,right.png,,p,right,60f728553a37102574b585c4,2021-10-22_15h53.20.730,arrow_simon_punish,2021.1.2,Win32,59.68011459,,,,,,,,,,,,,,p,1,1.9858,2.450468571,1,5,11,0,44,1,1,,,,,,,,,,,,,,
,,,,,,,,,,,left.png,,w,right,60f728553a37102574b585c4,2021-10-22_15h53.20.730,arrow_simon_punish,2021.1.2,Win32,59.68011459,,,,,,,,,,,,,,w,1,1.6862,2.162099417,1,5,11,1,45,3,1,,,,,,,,,,,,,,
,,,,,,,,,,,right.png,,p,left,60f728553a37102574b585c4,2021-10-22_15h53.20.730,arrow_simon_punish,2021.1.2,Win32,59.68011459,,,,,,,,,,,,,,p,1,1.6182,2.010736467,1,5,11,2,46,0,1,,,,,,,,,,,,,,
,,,,,,,,,,,left.png,,w,left,60f728553a37102574b585c4,2021-10-22_15h53.20.730,arrow_simon_punish,2021.1.2,Win32,59.68011459,,,,,,,,,,,,,,w,1,1.4681,2.06646646,0,5,11,3,47,2,1,,,,,,,,,,,,,,
,,,,,,,,,,,left.png,,w,right,60f728553a37102574b585c4,2021-10-22_15h53.20.730,arrow_simon_punish,2021.1.2,Win32,59.68011459,,,,,,,,,,,,,,p,0,1.5521,2.166217969,1,5,12,0,48,3,1,,,,,,,,,,,,,,
,,,,,,,,,,,left.png,,w,left,60f728553a37102574b585c4,2021-10-22_15h53.20.730,arrow_simon_punish,2021.1.2,Win32,59.68011459,,,,,,,,,,,,,,w,1,1.5364,1.916757341,0,5,12,1,49,2,1,,,,,,,,,,,,,,
,,,,,,,,,,,left.png,,w,right,60f728553a37102574b585c4,2021-10-22_15h53.20.730,arrow_simon_punish,2021.1.2,Win32,59.68011459,,,,,,,,,,,,,,w,1,1.7353,2.209242511,1,5,12,2,50,3,1,,,,,,,,,,,,,,
,,,,,,,,,,,right.png,,p,right,60f728553a37102574b585c4,2021-10-22_15h53.20.730,arrow_simon_punish,2021.1.2,Win32,59.68011459,,,,,,,,,,,,,,p,1,1.9364,2.451983837,1,5,12,3,51,1,1,,,,,,,,,,,,,,
,,,,,,,,,,,left.png,,w,left,60f728553a37102574b585c4,2021-10-22_15h53.20.730,arrow_simon_punish,2021.1.2,Win32,59.68011459,,,,,,,,,,,,,,w,1,1.4716,2.081132337,0,5,13,0,52,2,1,,,,,,,,,,,,,,
,,,,,,,,,,,left.png,,w,left,60f728553a37102574b585c4,2021-10-22_15h53.20.730,arrow_simon_punish,2021.1.2,Win32,59.68011459,,,,,,,,,,,,,,w,1,1.5699,2.146781173,0,5,13,1,53,2,1,,,,,,,,,,,,,,
,,,,,,,,,,,right.png,,p,right,60f728553a37102574b585c4,2021-10-22_15h53.20.730,arrow_simon_punish,2021.1.2,Win32,59.68011459,,,,,,,,,,,,,,p,1,1.7539,2.221880496,1,5,13,2,54,1,1,,,,,,,,,,,,,,
,,,,,,,,,,,right.png,,p,left,60f728553a37102574b585c4,2021-10-22_15h53.20.730,arrow_simon_punish,2021.1.2,Win32,59.68011459,,,,,,,,,,,,,,p,1,1.5555,1.899780659,0,5,13,3,55,0,1,,,,,,,,,,,,,,
,,,,,,,,,,,right.png,,p,right,60f728553a37102574b585c4,2021-10-22_15h53.20.730,arrow_simon_punish,2021.1.2,Win32,59.68011459,,,,,,,,,,,,,,p,1,1.1363,1.681941318,1,5,14,0,56,1,1,,,,,,,,,,,,,,
,,,,,,,,,,,left.png,,w,right,60f728553a37102574b585c4,2021-10-22_15h53.20.730,arrow_simon_punish,2021.1.2,Win32,59.68011459,,,,,,,,,,,,,,w,1,1.9698,2.351928225,1,5,14,1,57,3,1,,,,,,,,,,,,,,
,,,,,,,,,,,left.png,,w,right,60f728553a37102574b585c4,2021-10-22_15h53.20.730,arrow_simon_punish,2021.1.2,Win32,59.68011459,,,,,,,,,,,,,,w,1,1.7361,2.291398376,1,5,14,2,58,3,1,,,,,,,,,,,,,,
,,,,,,,,,,,right.png,,p,right,60f728553a37102574b585c4,2021-10-22_15h53.20.730,arrow_simon_punish,2021.1.2,Win32,59.68011459,,,,,,,,,,,,,,p,1,1.3543,1.897684624,1,5,14,3,59,1,1,,,,,,,,,,,,,,
,,,,,,,,,,,,,,,60f728553a37102574b585c4,2021-10-22_15h53.20.730,arrow_simon_punish,2021.1.2,Win32,59.68011459,,,,,,,,,,,,,,,,,,,,,,,,,space,1.8532,3,0,1,1,1,1,5,,,,,
,,,,,,,,,,,left.png,,w,left,60f728553a37102574b585c4,2021-10-22_15h53.20.730,arrow_simon_punish,2021.1.2,Win32,59.68011459,,,,,,,,,,,,,,w,1,1.5522,1.977381983,0,1,0,0,0,2,1,,,,,,,,,,,,,,
,,,,,,,,,,,left.png,,w,right,60f728553a37102574b585c4,2021-10-22_15h53.20.730,arrow_simon_punish,2021.1.2,Win32,59.68011459,,,,,,,,,,,,,,w,1,1.9362,2.353347618,1,1,0,1,1,3,1,,,,,,,,,,,,,,
,,,,,,,,,,,right.png,,p,left,60f728553a37102574b585c4,2021-10-22_15h53.20.730,arrow_simon_punish,2021.1.2,Win32,59.68011459,,,,,,,,,,,,,,p,1,1.9368,2.407689071,1,1,0,2,2,0,1,,,,,,,,,,,,,,
,,,,,,,,,,,right.png,,p,left,60f728553a37102574b585c4,2021-10-22_15h53.20.730,arrow_simon_punish,2021.1.2,Win32,59.68011459,,,,,,,,,,,,,,p,1,1.1682,1.53505643,1,1,0,3,3,0,1,,,,,,,,,,,,,,
,,,,,,,,,,,left.png,,w,right,60f728553a37102574b585c4,2021-10-22_15h53.20.730,arrow_simon_punish,2021.1.2,Win32,59.68011459,,,,,,,,,,,,,,w,1,2.0011,2.464879047,1,1,1,0,4,3,1,,,,,,,,,,,,,,
,,,,,,,,,,,left.png,,w,right,60f728553a37102574b585c4,2021-10-22_15h53.20.730,arrow_simon_punish,2021.1.2,Win32,59.68011459,,,,,,,,,,,,,,w,1,1.3337,1.913331207,1,1,1,1,5,3,1,,,,,,,,,,,,,,
,,,,,,,,,,,left.png,,w,right,60f728553a37102574b585c4,2021-10-22_15h53.20.730,arrow_simon_punish,2021.1.2,Win32,59.68011459,,,,,,,,,,,,,,w,1,1.6188,2.090521951,1,1,1,2,6,3,1,,,,,,,,,,,,,,
,,,,,,,,,,,left.png,,w,right,60f728553a37102574b585c4,2021-10-22_15h53.20.730,arrow_simon_punish,2021.1.2,Win32,59.68011459,,,,,,,,,,,,,,w,1,1.4564,1.856284375,0,1,1,3,7,3,1,,,,,,,,,,,,,,
,,,,,,,,,,,left.png,,w,left,60f728553a37102574b585c4,2021-10-22_15h53.20.730,arrow_simon_punish,2021.1.2,Win32,59.68011459,,,,,,,,,,,,,,w,1,1.2685,1.760924332,1,1,2,0,8,2,1,,,,,,,,,,,,,,
,,,,,,,,,,,right.png,,p,right,60f728553a37102574b585c4,2021-10-22_15h53.20.730,arrow_simon_punish,2021.1.2,Win32,59.68011459,,,,,,,,,,,,,,p,1,1.5847,2.142512844,0,1,2,1,9,1,1,,,,,,,,,,,,,,
,,,,,,,,,,,left.png,,w,left,60f728553a37102574b585c4,2021-10-22_15h53.20.730,arrow_simon_punish,2021.1.2,Win32,59.68011459,,,,,,,,,,,,,,w,1,1.418,1.906891166,0,1,2,2,10,2,1,,,,,,,,,,,,,,
,,,,,,,,,,,left.png,,w,right,60f728553a37102574b585c4,2021-10-22_15h53.20.730,arrow_simon_punish,2021.1.2,Win32,59.68011459,,,,,,,,,,,,,,p,0,1.319,1.888054274,1,1,2,3,11,3,1,,,,,,,,,,,,,,
,,,,,,,,,,,right.png,,p,left,60f728553a37102574b585c4,2021-10-22_15h53.20.730,arrow_simon_punish,2021.1.2,Win32,59.68011459,,,,,,,,,,,,,,p,1,1.9355,2.284585759,1,1,3,0,12,0,1,,,,,,,,,,,,,,
,,,,,,,,,,,right.png,,p,right,60f728553a37102574b585c4,2021-10-22_15h53.20.730,arrow_simon_punish,2021.1.2,Win32,59.68011459,,,,,,,,,,,,,,p,1,1.4576,1.845591281,0,1,3,1,13,1,1,,,,,,,,,,,,,,
,,,,,,,,,,,left.png,,w,left,60f728553a37102574b585c4,2021-10-22_15h53.20.730,arrow_simon_punish,2021.1.2,Win32,59.68011459,,,,,,,,,,,,,,w,1,1.8354,2.331567151,1,1,3,2,14,2,1,,,,,,,,,,,,,,
,,,,,,,,,,,left.png,,w,left,60f728553a37102574b585c4,2021-10-22_15h53.20.730,arrow_simon_punish,2021.1.2,Win32,59.68011459,,,,,,,,,,,,,,w,1,1.1851,1.691191097,1,1,3,3,15,2,1,,,,,,,,,,,,,,
,,,,,,,,,,,right.png,,p,left,60f728553a37102574b585c4,2021-10-22_15h53.20.730,arrow_simon_punish,2021.1.2,Win32,59.68011459,,,,,,,,,,,,,,p,1,2.2511,2.436960236,1,1,4,0,16,0,1,,,,,,,,,,,,,,
,,,,,,,,,,,right.png,,p,right,60f728553a37102574b585c4,2021-10-22_15h53.20.730,arrow_simon_punish,2021.1.2,Win32,59.68011459,,,,,,,,,,,,,,p,1,1.9515,2.438724963,1,1,4,1,17,1,1,,,,,,,,,,,,,,
,,,,,,,,,,,right.png,,p,right,60f728553a37102574b585c4,2021-10-22_15h53.20.730,arrow_simon_punish,2021.1.2,Win32,59.68011459,,,,,,,,,,,,,,p,1,1.2691,1.901367149,1,1,4,2,18,1,1,,,,,,,,,,,,,,
,,,,,,,,,,,left.png,,w,left,60f728553a37102574b585c4,2021-10-22_15h53.20.730,arrow_simon_punish,2021.1.2,Win32,59.68011459,,,,,,,,,,,,,,w,1,1.2844,1.819709969,1,1,4,3,19,2,1,,,,,,,,,,,,,,
,,,,,,,,,,,left.png,,w,left,60f728553a37102574b585c4,2021-10-22_15h53.20.730,arrow_simon_punish,2021.1.2,Win32,59.68011459,,,,,,,,,,,,,,w,1,1.7351,1.821585464,1,1,5,0,20,2,1,,,,,,,,,,,,,,
,,,,,,,,,,,right.png,,p,right,60f728553a37102574b585c4,2021-10-22_15h53.20.730,arrow_simon_punish,2021.1.2,Win32,59.68011459,,,,,,,,,,,,,,p,1,1.5197,2.056531397,0,1,5,1,21,1,1,,,,,,,,,,,,,,
,,,,,,,,,,,right.png,,p,right,60f728553a37102574b585c4,2021-10-22_15h53.20.730,arrow_simon_punish,2021.1.2,Win32,59.68011459,,,,,,,,,,,,,,p,1,1.751,2.4099999,1,1,5,2,22,1,1,,,,,,,,,,,,,,
,,,,,,,,,,,left.png,,w,left,60f728553a37102574b585c4,2021-10-22_15h53.20.730,arrow_simon_punish,2021.1.2,Win32,59.68011459,,,,,,,,,,,,,,w,1,1.0357,1.631208536,1,1,5,3,23,2,1,,,,,,,,,,,,,,
,,,,,,,,,,,left.png,,w,left,60f728553a37102574b585c4,2021-10-22_15h53.20.730,arrow_simon_punish,2021.1.2,Win32,59.68011459,,,,,,,,,,,,,,w,1,1.255,1.817143851,1,1,6,0,24,2,1,,,,,,,,,,,,,,
,,,,,,,,,,,left.png,,w,left,60f728553a37102574b585c4,2021-10-22_15h53.20.730,arrow_simon_punish,2021.1.2,Win32,59.68011459,,,,,,,,,,,,,,w,1,1.8526,2.40044611,1,1,6,1,25,2,1,,,,,,,,,,,,,,
,,,,,,,,,,,left.png,,w,left,60f728553a37102574b585c4,2021-10-22_15h53.20.730,arrow_simon_punish,2021.1.2,Win32,59.68011459,,,,,,,,,,,,,,w,1,1.6855,2.326936731,1,1,6,2,26,2,1,,,,,,,,,,,,,,
,,,,,,,,,,,left.png,,w,right,60f728553a37102574b585c4,2021-10-22_15h53.20.730,arrow_simon_punish,2021.1.2,Win32,59.68011459,,,,,,,,,,,,,,w,1,1.9355,2.397141852,1,1,6,3,27,3,1,,,,,,,,,,,,,,
,,,,,,,,,,,left.png,,w,left,60f728553a37102574b585c4,2021-10-22_15h53.20.730,arrow_simon_punish,2021.1.2,Win32,59.68011459,,,,,,,,,,,,,,w,1,1.6573,2.173525297,1,1,7,0,28,2,1,,,,,,,,,,,,,,
,,,,,,,,,,,right.png,,p,left,60f728553a37102574b585c4,2021-10-22_15h53.20.730,arrow_simon_punish,2021.1.2,Win32,59.68011459,,,,,,,,,,,,,,p,1,1.6187,2.086408806,1,1,7,1,29,0,1,,,,,,,,,,,,,,
,,,,,,,,,,,right.png,,p,right,60f728553a37102574b585c4,2021-10-22_15h53.20.730,arrow_simon_punish,2021.1.2,Win32,59.68011459,,,,,,,,,,,,,,p,1,0.9683,1.519729183,1,1,7,2,30,1,1,,,,,,,,,,,,,,
,,,,,,,,,,,left.png,,w,right,60f728553a37102574b585c4,2021-10-22_15h53.20.730,arrow_simon_punish,2021.1.2,Win32,59.68011459,,,,,,,,,,,,,,w,1,1.7551,2.167681784,1,1,7,3,31,3,1,,,,,,,,,,,,,,
,,,,,,,,,,,left.png,,w,right,60f728553a37102574b585c4,2021-10-22_15h53.20.730,arrow_simon_punish,2021.1.2,Win32,59.68011459,,,,,,,,,,,,,,w,1,1.5013,1.892999787,0,1,8,0,32,3,1,,,,,,,,,,,,,,
,,,,,,,,,,,right.png,,p,left,60f728553a37102574b585c4,2021-10-22_15h53.20.730,arrow_simon_punish,2021.1.2,Win32,59.68011459,,,,,,,,,,,,,,p,1,1.9195,2.411301157,1,1,8,1,33,0,1,,,,,,,,,,,,,,
,,,,,,,,,,,right.png,,p,right,60f728553a37102574b585c4,2021-10-22_15h53.20.730,arrow_simon_punish,2021.1.2,Win32,59.68011459,,,,,,,,,,,,,,p,1,1.6201,2.313778617,1,1,8,2,34,1,1,,,,,,,,,,,,,,
,,,,,,,,,,,right.png,,p,right,60f728553a37102574b585c4,2021-10-22_15h53.20.730,arrow_simon_punish,2021.1.2,Win32,59.68011459,,,,,,,,,,,,,,p,1,1.8351,2.457861522,1,1,8,3,35,1,1,,,,,,,,,,,,,,
,,,,,,,,,,,right.png,,p,left,60f728553a37102574b585c4,2021-10-22_15h53.20.730,arrow_simon_punish,2021.1.2,Win32,59.68011459,,,,,,,,,,,,,,w,0,1.485,2.005080658,1,1,9,0,36,0,1,,,,,,,,,,,,,,
,,,,,,,,,,,right.png,,p,right,60f728553a37102574b585c4,2021-10-22_15h53.20.730,arrow_simon_punish,2021.1.2,Win32,59.68011459,,,,,,,,,,,,,,p,1,1.4856,2.022332851,0,1,9,1,37,1,1,,,,,,,,,,,,,,
,,,,,,,,,,,left.png,,w,right,60f728553a37102574b585c4,2021-10-22_15h53.20.730,arrow_simon_punish,2021.1.2,Win32,59.68011459,,,,,,,,,,,,,,w,1,1.5188,2.003928744,0,1,9,2,38,3,1,,,,,,,,,,,,,,
,,,,,,,,,,,left.png,,w,left,60f728553a37102574b585c4,2021-10-22_15h53.20.730,arrow_simon_punish,2021.1.2,Win32,59.68011459,,,,,,,,,,,,,,w,1,1.468,1.879459012,0,1,9,3,39,2,1,,,,,,,,,,,,,,
,,,,,,,,,,,right.png,,p,right,60f728553a37102574b585c4,2021-10-22_15h53.20.730,arrow_simon_punish,2021.1.2,Win32,59.68011459,,,,,,,,,,,,,,p,1,1.5358,1.897025986,0,1,10,0,40,1,1,,,,,,,,,,,,,,
,,,,,,,,,,,left.png,,w,right,60f728553a37102574b585c4,2021-10-22_15h53.20.730,arrow_simon_punish,2021.1.2,Win32,59.68011459,,,,,,,,,,,,,,w,1,1.2526,1.523073793,1,1,10,1,41,3,1,,,,,,,,,,,,,,
,,,,,,,,,,,right.png,,p,left,60f728553a37102574b585c4,2021-10-22_15h53.20.730,arrow_simon_punish,2021.1.2,Win32,59.68011459,,,,,,,,,,,,,,p,1,1.7708,1.987755609,1,1,10,2,42,0,1,,,,,,,,,,,,,,
,,,,,,,,,,,right.png,,p,left,60f728553a37102574b585c4,2021-10-22_15h53.20.730,arrow_simon_punish,2021.1.2,Win32,59.68011459,,,,,,,,,,,,,,p,1,1.6521,2.077654774,1,1,10,3,43,0,1,,,,,,,,,,,,,,
,,,,,,,,,,,left.png,,w,right,60f728553a37102574b585c4,2021-10-22_15h53.20.730,arrow_simon_punish,2021.1.2,Win32,59.68011459,,,,,,,,,,,,,,w,1,1.4684,1.79518792,0,1,11,0,44,3,1,,,,,,,,,,,,,,
,,,,,,,,,,,right.png,,p,right,60f728553a37102574b585c4,2021-10-22_15h53.20.730,arrow_simon_punish,2021.1.2,Win32,59.68011459,,,,,,,,,,,,,,p,1,1.9545,2.454749207,1,1,11,1,45,1,1,,,,,,,,,,,,,,
,,,,,,,,,,,left.png,,w,right,60f728553a37102574b585c4,2021-10-22_15h53.20.730,arrow_simon_punish,2021.1.2,Win32,59.68011459,,,,,,,,,,,,,,p,0,1.7396,2.350035171,1,1,11,2,46,3,1,,,,,,,,,,,,,,
,,,,,,,,,,,right.png,,p,left,60f728553a37102574b585c4,2021-10-22_15h53.20.730,arrow_simon_punish,2021.1.2,Win32,59.68011459,,,,,,,,,,,,,,p,1,1.4126,1.734071028,0,1,11,3,47,0,1,,,,,,,,,,,,,,
,,,,,,,,,,,right.png,,p,left,60f728553a37102574b585c4,2021-10-22_15h53.20.730,arrow_simon_punish,2021.1.2,Win32,59.68011459,,,,,,,,,,,,,,p,1,1.2871,1.692644483,1,1,12,0,48,0,1,,,,,,,,,,,,,,
,,,,,,,,,,,right.png,,p,left,60f728553a37102574b585c4,2021-10-22_15h53.20.730,arrow_simon_punish,2021.1.2,Win32,59.68011459,,,,,,,,,,,,,,p,1,1.272,1.787244254,1,1,12,1,49,0,1,,,,,,,,,,,,,,
,,,,,,,,,,,right.png,,p,right,60f728553a37102574b585c4,2021-10-22_15h53.20.730,arrow_simon_punish,2021.1.2,Win32,59.68011459,,,,,,,,,,,,,,p,1,1.5862,1.912391507,0,1,12,2,50,1,1,,,,,,,,,,,,,,
,,,,,,,,,,,right.png,,p,right,60f728553a37102574b585c4,2021-10-22_15h53.20.730,arrow_simon_punish,2021.1.2,Win32,59.68011459,,,,,,,,,,,,,,p,1,1.3434,1.816482346,1,1,12,3,51,1,1,,,,,,,,,,,,,,
,,,,,,,,,,,left.png,,w,left,60f728553a37102574b585c4,2021-10-22_15h53.20.730,arrow_simon_punish,2021.1.2,Win32,59.68011459,,,,,,,,,,,,,,w,1,1.7148,2.131841033,1,1,13,0,52,2,1,,,,,,,,,,,,,,
,,,,,,,,,,,left.png,,w,left,60f728553a37102574b585c4,2021-10-22_15h53.20.730,arrow_simon_punish,2021.1.2,Win32,59.68011459,,,,,,,,,,,,,,w,1,1.207,1.663320867,1,1,13,1,53,2,1,,,,,,,,,,,,,,
,,,,,,,,,,,right.png,,p,left,60f728553a37102574b585c4,2021-10-22_15h53.20.730,arrow_simon_punish,2021.1.2,Win32,59.68011459,,,,,,,,,,,,,,p,1,1.703,2.148325033,1,1,13,2,54,0,1,,,,,,,,,,,,,,
,,,,,,,,,,,right.png,,p,left,60f728553a37102574b585c4,2021-10-22_15h53.20.730,arrow_simon_punish,2021.1.2,Win32,59.68011459,,,,,,,,,,,,,,p,1,1.8567,2.351317776,1,1,13,3,55,0,1,,,,,,,,,,,,,,
,,,,,,,,,,,left.png,,w,right,60f728553a37102574b585c4,2021-10-22_15h53.20.730,arrow_simon_punish,2021.1.2,Win32,59.68011459,,,,,,,,,,,,,,w,1,1.6133,2.023565588,1,1,14,0,56,3,1,,,,,,,,,,,,,,
,,,,,,,,,,,right.png,,p,right,60f728553a37102574b585c4,2021-10-22_15h53.20.730,arrow_simon_punish,2021.1.2,Win32,59.68011459,,,,,,,,,,,,,,p,1,1.4271,2.037990622,0,1,14,1,57,1,1,,,,,,,,,,,,,,
,,,,,,,,,,,right.png,,p,left,60f728553a37102574b585c4,2021-10-22_15h53.20.730,arrow_simon_punish,2021.1.2,Win32,59.68011459,,,,,,,,,,,,,,p,1,1.6326,2.025509976,1,1,14,2,58,0,1,,,,,,,,,,,,,,
,,,,,,,,,,,left.png,,w,right,60f728553a37102574b585c4,2021-10-22_15h53.20.730,arrow_simon_punish,2021.1.2,Win32,59.68011459,,,,,,,,,,,,,,w,1,1.5698,2.042101723,0,1,14,3,59,3,1,,,,,,,,,,,,,,
,,,,,,,,,,,,,,,60f728553a37102574b585c4,2021-10-22_15h53.20.730,arrow_simon_punish,2021.1.2,Win32,59.68011459,,,,,,,,,,,,,,,,,,,,,,,,,space,1.7444,4,1,0,2,0,1,1,,,,,
,,,,,,,,,,,left.png,,w,left,60f728553a37102574b585c4,2021-10-22_15h53.20.730,arrow_simon_punish,2021.1.2,Win32,59.68011459,,,,,,,,,,,,,,w,1,1.862,2.444608275,1,5,0,0,0,2,1,,,,,,,,,,,,,,
,,,,,,,,,,,left.png,,w,right,60f728553a37102574b585c4,2021-10-22_15h53.20.730,arrow_simon_punish,2021.1.2,Win32,59.68011459,,,,,,,,,,,,,,w,1,1.8912,2.254351751,1,5,0,1,1,3,1,,,,,,,,,,,,,,
,,,,,,,,,,,left.png,,w,right,60f728553a37102574b585c4,2021-10-22_15h53.20.730,arrow_simon_punish,2021.1.2,Win32,59.68011459,,,,,,,,,,,,,,w,1,1.4039,1.891170198,0,5,0,2,2,3,1,,,,,,,,,,,,,,
,,,,,,,,,,,right.png,,p,right,60f728553a37102574b585c4,2021-10-22_15h53.20.730,arrow_simon_punish,2021.1.2,Win32,59.68011459,,,,,,,,,,,,,,p,1,1.9129,2.453243656,1,5,0,3,3,1,1,,,,,,,,,,,,,,
,,,,,,,,,,,left.png,,w,right,60f728553a37102574b585c4,2021-10-22_15h53.20.730,arrow_simon_punish,2021.1.2,Win32,59.68011459,,,,,,,,,,,,,,p,0,1.6063,2.223638476,1,5,1,0,4,3,1,,,,,,,,,,,,,,
,,,,,,,,,,,left.png,,w,left,60f728553a37102574b585c4,2021-10-22_15h53.20.730,arrow_simon_punish,2021.1.2,Win32,59.68011459,,,,,,,,,,,,,,w,1,1.6867,2.098831643,1,5,1,1,5,2,1,,,,,,,,,,,,,,
,,,,,,,,,,,right.png,,p,right,60f728553a37102574b585c4,2021-10-22_15h53.20.730,arrow_simon_punish,2021.1.2,Win32,59.68011459,,,,,,,,,,,,,,p,1,1.503,1.974366114,0,5,1,2,6,1,1,,,,,,,,,,,,,,
,,,,,,,,,,,left.png,,w,left,60f728553a37102574b585c4,2021-10-22_15h53.20.730,arrow_simon_punish,2021.1.2,Win32,59.68011459,,,,,,,,,,,,,,w,1,1.2562,1.829366732,1,5,1,3,7,2,1,,,,,,,,,,,,,,
,,,,,,,,,,,right.png,,p,right,60f728553a37102574b585c4,2021-10-22_15h53.20.730,arrow_simon_punish,2021.1.2,Win32,59.68011459,,,,,,,,,,,,,,p,1,1.9547,2.491012963,1,5,2,0,8,1,1,,,,,,,,,,,,,,
,,,,,,,,,,,right.png,,p,left,60f728553a37102574b585c4,2021-10-22_15h53.20.730,arrow_simon_punish,2021.1.2,Win32,59.68011459,,,,,,,,,,,,,,p,1,1.8391,2.196635328,1,5,2,1,9,0,1,,,,,,,,,,,,,,
,,,,,,,,,,,left.png,,w,left,60f728553a37102574b585c4,2021-10-22_15h53.20.730,arrow_simon_punish,2021.1.2,Win32,59.68011459,,,,,,,,,,,,,,w,1,1.6724,2.252845512,1,5,2,2,10,2,1,,,,,,,,,,,,,,
,,,,,,,,,,,left.png,,w,right,60f728553a37102574b585c4,2021-10-22_15h53.20.730,arrow_simon_punish,2021.1.2,Win32,59.68011459,,,,,,,,,,,,,,w,1,1.2798,1.675313403,1,5,2,3,11,3,1,,,,,,,,,,,,,,
,,,,,,,,,,,left.png,,w,left,60f728553a37102574b585c4,2021-10-22_15h53.20.730,arrow_simon_punish,2021.1.2,Win32,59.68011459,,,,,,,,,,,,,,w,1,1.1704,1.679695798,1,5,3,0,12,2,1,,,,,,,,,,,,,,
,,,,,,,,,,,left.png,,w,left,60f728553a37102574b585c4,2021-10-22_15h53.20.730,arrow_simon_punish,2021.1.2,Win32,59.68011459,,,,,,,,,,,,,,w,1,1.4036,1.938913116,0,5,3,1,13,2,1,,,,,,,,,,,,,,
,,,,,,,,,,,left.png,,w,right,60f728553a37102574b585c4,2021-10-22_15h53.20.730,arrow_simon_punish,2021.1.2,Win32,59.68011459,,,,,,,,,,,,,,w,1,1.2906,1.639424552,1,5,3,2,14,3,1,,,,,,,,,,,,,,
,,,,,,,,,,,right.png,,p,right,60f728553a37102574b585c4,2021-10-22_15h53.20.730,arrow_simon_punish,2021.1.2,Win32,59.68011459,,,,,,,,,,,,,,p,1,1.6704,2.243156888,1,5,3,3,15,1,1,,,,,,,,,,,,,,
,,,,,,,,,,,left.png,,w,left,60f728553a37102574b585c4,2021-10-22_15h53.20.730,arrow_simon_punish,2021.1.2,Win32,59.68011459,,,,,,,,,,,,,,w,1,1.8184,2.444260514,1,5,4,0,16,2,1,,,,,,,,,,,,,,
,,,,,,,,,,,right.png,,p,left,60f728553a37102574b585c4,2021-10-22_15h53.20.730,arrow_simon_punish,2021.1.2,Win32,59.68011459,,,,,,,,,,,,,,p,1,1.5865,2.039993974,0,5,4,1,17,0,1,,,,,,,,,,,,,,
,,,,,,,,,,,left.png,,w,left,60f728553a37102574b585c4,2021-10-22_15h53.20.730,arrow_simon_punish,2021.1.2,Win32,59.68011459,,,,,,,,,,,,,,w,1,1.4027,1.993625125,0,5,4,2,18,2,1,,,,,,,,,,,,,,
,,,,,,,,,,,right.png,,p,right,60f728553a37102574b585c4,2021-10-22_15h53.20.730,arrow_simon_punish,2021.1.2,Win32,59.68011459,,,,,,,,,,,,,,p,1,0.9983,1.547530453,1,5,4,3,19,1,1,,,,,,,,,,,,,,
,,,,,,,,,,,right.png,,p,left,60f728553a37102574b585c4,2021-10-22_15h53.20.730,arrow_simon_punish,2021.1.2,Win32,59.68011459,,,,,,,,,,,,,,p,1,1.5728,1.686681166,0,5,5,0,20,0,1,,,,,,,,,,,,,,
,,,,,,,,,,,left.png,,w,right,60f728553a37102574b585c4,2021-10-22_15h53.20.730,arrow_simon_punish,2021.1.2,Win32,59.68011459,,,,,,,,,,,,,,w,1,1.8515,2.35743741,1,5,5,1,21,3,1,,,,,,,,,,,,,,
,,,,,,,,,,,left.png,,w,left,60f728553a37102574b585c4,2021-10-22_15h53.20.730,arrow_simon_punish,2021.1.2,Win32,59.68011459,,,,,,,,,,,,,,w,1,1.6761,2.189486698,1,5,5,2,22,2,1,,,,,,,,,,,,,,
,,,,,,,,,,,left.png,,w,right,60f728553a37102574b585c4,2021-10-22_15h53.20.730,arrow_simon_punish,2021.1.2,Win32,59.68011459,,,,,,,,,,,,,,w,1,1.377,1.787523437,1,5,5,3,23,3,1,,,,,,,,,,,,,,
,,,,,,,,,,,right.png,,p,right,60f728553a37102574b585c4,2021-10-22_15h53.20.730,arrow_simon_punish,2021.1.2,Win32,59.68011459,,,,,,,,,,,,,,p,1,1.3967,1.644549792,1,5,6,0,24,1,1,,,,,,,,,,,,,,
,,,,,,,,,,,right.png,,p,left,60f728553a37102574b585c4,2021-10-22_15h53.20.730,arrow_simon_punish,2021.1.2,Win32,59.68011459,,,,,,,,,,,,,,p,1,1.9873,2.481598153,1,5,6,1,25,0,1,,,,,,,,,,,,,,
,,,,,,,,,,,left.png,,w,right,60f728553a37102574b585c4,2021-10-22_15h53.20.730,arrow_simon_punish,2021.1.2,Win32,59.68011459,,,,,,,,,,,,,,w,1,1.7003,2.163735363,1,5,6,2,26,3,1,,,,,,,,,,,,,,
,,,,,,,,,,,right.png,,p,right,60f728553a37102574b585c4,2021-10-22_15h53.20.730,arrow_simon_punish,2021.1.2,Win32,59.68011459,,,,,,,,,,,,,,p,1,1.0861,1.636096877,1,5,6,3,27,1,1,,,,,,,,,,,,,,
,,,,,,,,,,,right.png,,p,left,60f728553a37102574b585c4,2021-10-22_15h53.20.730,arrow_simon_punish,2021.1.2,Win32,59.68011459,,,,,,,,,,,,,,p,1,1.5899,1.838066115,0,5,7,0,28,0,1,,,,,,,,,,,,,,
,,,,,,,,,,,right.png,,p,right,60f728553a37102574b585c4,2021-10-22_15h53.20.730,arrow_simon_punish,2021.1.2,Win32,59.68011459,,,,,,,,,,,,,,p,1,1.5733,1.860438028,0,5,7,1,29,1,1,,,,,,,,,,,,,,
,,,,,,,,,,,right.png,,p,left,60f728553a37102574b585c4,2021-10-22_15h53.20.730,arrow_simon_punish,2021.1.2,Win32,59.68011459,,,,,,,,,,,,,,p,1,1.8708,2.320786696,1,5,7,2,30,0,1,,,,,,,,,,,,,,
,,,,,,,,,,,left.png,,w,left,60f728553a37102574b585c4,2021-10-22_15h53.20.730,arrow_simon_punish,2021.1.2,Win32,59.68011459,,,,,,,,,,,,,,w,1,1.6119,2.212493505,1,5,7,3,31,2,1,,,,,,,,,,,,,,
,,,,,,,,,,,left.png,,w,right,60f728553a37102574b585c4,2021-10-22_15h53.20.730,arrow_simon_punish,2021.1.2,Win32,59.68011459,,,,,,,,,,,,,,w,1,1.4919,1.942912951,0,5,8,0,32,3,1,,,,,,,,,,,,,,
,,,,,,,,,,,right.png,,p,left,60f728553a37102574b585c4,2021-10-22_15h53.20.730,arrow_simon_punish,2021.1.2,Win32,59.68011459,,,,,,,,,,,,,,p,1,1.7199,2.194689374,1,5,8,1,33,0,1,,,,,,,,,,,,,,
,,,,,,,,,,,right.png,,p,left,60f728553a37102574b585c4,2021-10-22_15h53.20.730,arrow_simon_punish,2021.1.2,Win32,59.68011459,,,,,,,,,,,,,,p,1,1.7609,2.332019261,1,5,8,2,34,0,1,,,,,,,,,,,,,,
,,,,,,,,,,,right.png,,p,right,60f728553a37102574b585c4,2021-10-22_15h53.20.730,arrow_simon_punish,2021.1.2,Win32,59.68011459,,,,,,,,,,,,,,p,1,1.24,1.803537117,1,5,8,3,35,1,1,,,,,,,,,,,,,,
,,,,,,,,,,,right.png,,p,right,60f728553a37102574b585c4,2021-10-22_15h53.20.730,arrow_simon_punish,2021.1.2,Win32,59.68011459,,,,,,,,,,,,,,p,1,1.5867,1.507203931,0,5,9,0,36,1,1,,,,,,,,,,,,,,
,,,,,,,,,,,left.png,,w,right,60f728553a37102574b585c4,2021-10-22_15h53.20.730,arrow_simon_punish,2021.1.2,Win32,59.68011459,,,,,,,,,,,,,,w,1,1.8532,2.331628007,1,5,9,1,37,3,1,,,,,,,,,,,,,,
,,,,,,,,,,,left.png,,w,right,60f728553a37102574b585c4,2021-10-22_15h53.20.730,arrow_simon_punish,2021.1.2,Win32,59.68011459,,,,,,,,,,,,,,w,1,1.3401,1.60837031,1,5,9,2,38,3,1,,,,,,,,,,,,,,
,,,,,,,,,,,right.png,,p,left,60f728553a37102574b585c4,2021-10-22_15h53.20.730,arrow_simon_punish,2021.1.2,Win32,59.68011459,,,,,,,,,,,,,,p,1,1.7916,1.544202571,1,5,9,3,39,0,1,,,,,,,,,,,,,,
,,,,,,,,,,,left.png,,w,left,60f728553a37102574b585c4,2021-10-22_15h53.20.730,arrow_simon_punish,2021.1.2,Win32,59.68011459,,,,,,,,,,,,,,w,1,1.7697,2.243413119,1,5,10,0,40,2,1,,,,,,,,,,,,,,
,,,,,,,,,,,right.png,,p,left,60f728553a37102574b585c4,2021-10-22_15h53.20.730,arrow_simon_punish,2021.1.2,Win32,59.68011459,,,,,,,,,,,,,,p,1,1.7685,1.855348875,1,5,10,1,41,0,1,,,,,,,,,,,,,,
,,,,,,,,,,,left.png,,w,left,60f728553a37102574b585c4,2021-10-22_15h53.20.730,arrow_simon_punish,2021.1.2,Win32,59.68011459,,,,,,,,,,,,,,w,1,1.6018,2.06533056,1,5,10,2,42,2,1,,,,,,,,,,,,,,
,,,,,,,,,,,left.png,,w,right,60f728553a37102574b585c4,2021-10-22_15h53.20.730,arrow_simon_punish,2021.1.2,Win32,59.68011459,,,,,,,,,,,,,,w,1,1.5798,1.987474662,0,5,10,3,43,3,1,,,,,,,,,,,,,,
,,,,,,,,,,,right.png,,p,right,60f728553a37102574b585c4,2021-10-22_15h53.20.730,arrow_simon_punish,2021.1.2,Win32,59.68011459,,,,,,,,,,,,,,p,1,1.7406,2.361031977,1,5,11,0,44,1,1,,,,,,,,,,,,,,
,,,,,,,,,,,right.png,,p,right,60f728553a37102574b585c4,2021-10-22_15h53.20.730,arrow_simon_punish,2021.1.2,Win32,59.68011459,,,,,,,,,,,,,,p,1,1.4105,1.987779547,0,5,11,1,45,1,1,,,,,,,,,,,,,,
,,,,,,,,,,,left.png,,w,right,60f728553a37102574b585c4,2021-10-22_15h53.20.730,arrow_simon_punish,2021.1.2,Win32,59.68011459,,,,,,,,,,,,,,w,1,1.6374,2.066677125,1,5,11,2,46,3,1,,,,,,,,,,,,,,
,,,,,,,,,,,left.png,,w,right,60f728553a37102574b585c4,2021-10-22_15h53.20.730,arrow_simon_punish,2021.1.2,Win32,59.68011459,,,,,,,,,,,,,,w,1,1.7564,2.139773488,1,5,11,3,47,3,1,,,,,,,,,,,,,,
,,,,,,,,,,,right.png,,p,right,60f728553a37102574b585c4,2021-10-22_15h53.20.730,arrow_simon_punish,2021.1.2,Win32,59.68011459,,,,,,,,,,,,,,p,1,1.5531,2.154833736,0,5,12,0,48,1,1,,,,,,,,,,,,,,
,,,,,,,,,,,right.png,,p,left,60f728553a37102574b585c4,2021-10-22_15h53.20.730,arrow_simon_punish,2021.1.2,Win32,59.68011459,,,,,,,,,,,,,,w,0,1.6361,2.183122521,1,5,12,1,49,0,1,,,,,,,,,,,,,,
,,,,,,,,,,,right.png,,p,left,60f728553a37102574b585c4,2021-10-22_15h53.20.730,arrow_simon_punish,2021.1.2,Win32,59.68011459,,,,,,,,,,,,,,p,1,1.856,2.359665251,1,5,12,2,50,0,1,,,,,,,,,,,,,,
,,,,,,,,,,,right.png,,p,right,60f728553a37102574b585c4,2021-10-22_15h53.20.730,arrow_simon_punish,2021.1.2,Win32,59.68011459,,,,,,,,,,,,,,p,1,1.8715,2.44510451,1,5,12,3,51,1,1,,,,,,,,,,,,,,
,,,,,,,,,,,left.png,,w,left,60f728553a37102574b585c4,2021-10-22_15h53.20.730,arrow_simon_punish,2021.1.2,Win32,59.68011459,,,,,,,,,,,,,,w,1,1.7527,2.252572446,1,5,13,0,52,2,1,,,,,,,,,,,,,,
,,,,,,,,,,,left.png,,w,right,60f728553a37102574b585c4,2021-10-22_15h53.20.730,arrow_simon_punish,2021.1.2,Win32,59.68011459,,,,,,,,,,,,,,w,1,1.3667,1.633022423,1,5,13,1,53,3,1,,,,,,,,,,,,,,
,,,,,,,,,,,left.png,,w,left,60f728553a37102574b585c4,2021-10-22_15h53.20.730,arrow_simon_punish,2021.1.2,Win32,59.68011459,,,,,,,,,,,,,,w,1,1.7643,2.102954395,1,5,13,2,54,2,1,,,,,,,,,,,,,,
,,,,,,,,,,,right.png,,p,left,60f728553a37102574b585c4,2021-10-22_15h53.20.730,arrow_simon_punish,2021.1.2,Win32,59.68011459,,,,,,,,,,,,,,p,1,1.4432,1.93017399,0,5,13,3,55,0,1,,,,,,,,,,,,,,
,,,,,,,,,,,right.png,,p,left,60f728553a37102574b585c4,2021-10-22_15h53.20.730,arrow_simon_punish,2021.1.2,Win32,59.68011459,,,,,,,,,,,,,,p,1,2.0073,2.355094256,1,5,14,0,56,0,1,,,,,,,,,,,,,,
,,,,,,,,,,,right.png,,p,right,60f728553a37102574b585c4,2021-10-22_15h53.20.730,arrow_simon_punish,2021.1.2,Win32,59.68011459,,,,,,,,,,,,,,p,1,1.9195,2.462545454,1,5,14,1,57,1,1,,,,,,,,,,,,,,
,,,,,,,,,,,right.png,,p,left,60f728553a37102574b585c4,2021-10-22_15h53.20.730,arrow_simon_punish,2021.1.2,Win32,59.68011459,,,,,,,,,,,,,,p,1,1.2027,1.791917736,1,5,14,2,58,0,1,,,,,,,,,,,,,,
,,,,,,,,,,,left.png,,w,left,60f728553a37102574b585c4,2021-10-22_15h53.20.730,arrow_simon_punish,2021.1.2,Win32,59.68011459,,,,,,,,,,,,,,w,1,1.4064,1.682134233,0,5,14,3,59,2,1,,,,,,,,,,,,,,
,,,,,,,,,,,,,,,60f728553a37102574b585c4,2021-10-22_15h53.20.730,arrow_simon_punish,2021.1.2,Win32,59.68011459,,,,,,,,,,,,,,,,,,,,,,,,,space,1.7991,5,1,1,3,1,1,5,,,,,
,,,,,,,,,,,right.png,,p,left,60f728553a37102574b585c4,2021-10-22_15h53.20.730,arrow_simon_punish,2021.1.2,Win32,59.68011459,,,,,,,,,,,,,,p,1,1.6034,2.088621647,1,1,0,0,0,0,1,,,,,,,,,,,,,,
,,,,,,,,,,,right.png,,p,right,60f728553a37102574b585c4,2021-10-22_15h53.20.730,arrow_simon_punish,2021.1.2,Win32,59.68011459,,,,,,,,,,,,,,p,1,1.1255,1.596655111,1,1,0,1,1,1,1,,,,,,,,,,,,,,
,,,,,,,,,,,left.png,,w,right,60f728553a37102574b585c4,2021-10-22_15h53.20.730,arrow_simon_punish,2021.1.2,Win32,59.68011459,,,,,,,,,,,,,,w,1,1.8435,2.31114647,1,1,0,2,2,3,1,,,,,,,,,,,,,,
,,,,,,,,,,,right.png,,p,left,60f728553a37102574b585c4,2021-10-22_15h53.20.730,arrow_simon_punish,2021.1.2,Win32,59.68011459,,,,,,,,,,,,,,p,1,1.72,2.098335689,1,1,0,3,3,0,1,,,,,,,,,,,,,,
,,,,,,,,,,,left.png,,w,left,60f728553a37102574b585c4,2021-10-22_15h53.20.730,arrow_simon_punish,2021.1.2,Win32,59.68011459,,,,,,,,,,,,,,w,1,1.5701,1.900515159,0,1,1,0,4,2,1,,,,,,,,,,,,,,
,,,,,,,,,,,left.png,,w,right,60f728553a37102574b585c4,2021-10-22_15h53.20.730,arrow_simon_punish,2021.1.2,Win32,59.68011459,,,,,,,,,,,,,,w,1,1.6444,2.073605127,1,1,1,1,5,3,1,,,,,,,,,,,,,,
,,,,,,,,,,,left.png,,w,left,60f728553a37102574b585c4,2021-10-22_15h53.20.730,arrow_simon_punish,2021.1.2,Win32,59.68011459,,,,,,,,,,,,,,w,1,1.5195,1.745131562,0,1,1,2,6,2,1,,,,,,,,,,,,,,
,,,,,,,,,,,right.png,,p,left,60f728553a37102574b585c4,2021-10-22_15h53.20.730,arrow_simon_punish,2021.1.2,Win32,59.68011459,,,,,,,,,,,,,,p,1,1.3527,1.709918317,1,1,1,3,7,0,1,,,,,,,,,,,,,,
,,,,,,,,,,,right.png,,p,left,60f728553a37102574b585c4,2021-10-22_15h53.20.730,arrow_simon_punish,2021.1.2,Win32,59.68011459,,,,,,,,,,,,,,p,1,1.6998,2.217519421,1,1,2,0,8,0,1,,,,,,,,,,,,,,
,,,,,,,,,,,right.png,,p,left,60f728553a37102574b585c4,2021-10-22_15h53.20.730,arrow_simon_punish,2021.1.2,Win32,59.68011459,,,,,,,,,,,,,,p,1,1.5255,2.16984122,0,1,2,1,9,0,1,,,,,,,,,,,,,,
,,,,,,,,,,,right.png,,p,right,60f728553a37102574b585c4,2021-10-22_15h53.20.730,arrow_simon_punish,2021.1.2,Win32,59.68011459,,,,,,,,,,,,,,p,1,1.2072,1.856900173,1,1,2,2,10,1,1,,,,,,,,,,,,,,
,,,,,,,,,,,left.png,,w,left,60f728553a37102574b585c4,2021-10-22_15h53.20.730,arrow_simon_punish,2021.1.2,Win32,59.68011459,,,,,,,,,,,,,,w,1,1.6076,1.812985161,1,1,2,3,11,2,1,,,,,,,,,,,,,,
,,,,,,,,,,,right.png,,p,right,60f728553a37102574b585c4,2021-10-22_15h53.20.730,arrow_simon_punish,2021.1.2,Win32,59.68011459,,,,,,,,,,,,,,p,1,1.7064,2.278905216,1,1,3,0,12,1,1,,,,,,,,,,,,,,
,,,,,,,,,,,left.png,,w,left,60f728553a37102574b585c4,2021-10-22_15h53.20.730,arrow_simon_punish,2021.1.2,Win32,59.68011459,,,,,,,,,,,,,,w,1,1.6123,1.51300966,1,1,3,1,13,2,1,,,,,,,,,,,,,,
,,,,,,,,,,,right.png,,p,right,60f728553a37102574b585c4,2021-10-22_15h53.20.730,arrow_simon_punish,2021.1.2,Win32,59.68011459,,,,,,,,,,,,,,p,1,1.6998,2.323041675,1,1,3,2,14,1,1,,,,,,,,,,,,,,
,,,,,,,,,,,left.png,,w,right,60f728553a37102574b585c4,2021-10-22_15h53.20.730,arrow_simon_punish,2021.1.2,Win32,59.68011459,,,,,,,,,,,,,,w,1,1.7158,2.095954397,1,1,3,3,15,3,1,,,,,,,,,,,,,,
,,,,,,,,,,,right.png,,p,right,60f728553a37102574b585c4,2021-10-22_15h53.20.730,arrow_simon_punish,2021.1.2,Win32,59.68011459,,,,,,,,,,,,,,p,1,1.803,2.373201816,1,1,4,0,16,1,1,,,,,,,,,,,,,,
,,,,,,,,,,,left.png,,w,left,60f728553a37102574b585c4,2021-10-22_15h53.20.730,arrow_simon_punish,2021.1.2,Win32,59.68011459,,,,,,,,,,,,,,w,1,1.3232,1.859163473,1,1,4,1,17,2,1,,,,,,,,,,,,,,
,,,,,,,,,,,left.png,,w,right,60f728553a37102574b585c4,2021-10-22_15h53.20.730,arrow_simon_punish,2021.1.2,Win32,59.68011459,,,,,,,,,,,,,,w,1,1.8087,1.642855029,1,1,4,2,18,3,1,,,,,,,,,,,,,,
,,,,,,,,,,,right.png,,p,right,60f728553a37102574b585c4,2021-10-22_15h53.20.730,arrow_simon_punish,2021.1.2,Win32,59.68011459,,,,,,,,,,,,,,p,1,1.0902,1.653994184,1,1,4,3,19,1,1,,,,,,,,,,,,,,
,,,,,,,,,,,left.png,,w,left,60f728553a37102574b585c4,2021-10-22_15h53.20.730,arrow_simon_punish,2021.1.2,Win32,59.68011459,,,,,,,,,,,,,,w,1,1.7084,2.21541081,1,1,5,0,20,2,1,,,,,,,,,,,,,,
,,,,,,,,,,,right.png,,p,right,60f728553a37102574b585c4,2021-10-22_15h53.20.730,arrow_simon_punish,2021.1.2,Win32,59.68011459,,,,,,,,,,,,,,p,1,1.5952,2.236036963,0,1,5,1,21,1,1,,,,,,,,,,,,,,
,,,,,,,,,,,right.png,,p,right,60f728553a37102574b585c4,2021-10-22_15h53.20.730,arrow_simon_punish,2021.1.2,Win32,59.68011459,,,,,,,,,,,,,,p,1,1.286,1.903561241,1,1,5,2,22,1,1,,,,,,,,,,,,,,
,,,,,,,,,,,right.png,,p,right,60f728553a37102574b585c4,2021-10-22_15h53.20.730,arrow_simon_punish,2021.1.2,Win32,59.68011459,,,,,,,,,,,,,,p,1,1.4724,2.04694168,0,1,5,3,23,1,1,,,,,,,,,,,,,,
,,,,,,,,,,,right.png,,p,left,60f728553a37102574b585c4,2021-10-22_15h53.20.730,arrow_simon_punish,2021.1.2,Win32,59.68011459,,,,,,,,,,,,,,p,1,1.6268,1.982198269,1,1,6,0,24,0,1,,,,,,,,,,,,,,
,,,,,,,,,,,right.png,,p,right,60f728553a37102574b585c4,2021-10-22_15h53.20.730,arrow_simon_punish,2021.1.2,Win32,59.68011459,,,,,,,,,,,,,,p,1,1.2367,1.786859195,1,1,6,1,25,1,1,,,,,,,,,,,,,,
,,,,,,,,,,,right.png,,p,left,60f728553a37102574b585c4,2021-10-22_15h53.20.730,arrow_simon_punish,2021.1.2,Win32,59.68011459,,,,,,,,,,,,,,p,1,1.8508,2.167293164,1,1,6,2,26,0,1,,,,,,,,,,,,,,
,,,,,,,,,,,right.png,,p,right,60f728553a37102574b585c4,2021-10-22_15h53.20.730,arrow_simon_punish,2021.1.2,Win32,59.68011459,,,,,,,,,,,,,,p,1,1.8964,2.443581375,1,1,6,3,27,1,1,,,,,,,,,,,,,,
,,,,,,,,,,,right.png,,p,left,60f728553a37102574b585c4,2021-10-22_15h53.20.730,arrow_simon_punish,2021.1.2,Win32,59.68011459,,,,,,,,,,,,,,p,1,1.3872,1.645275647,1,1,7,0,28,0,1,,,,,,,,,,,,,,
,,,,,,,,,,,left.png,,w,right,60f728553a37102574b585c4,2021-10-22_15h53.20.730,arrow_simon_punish,2021.1.2,Win32,59.68011459,,,,,,,,,,,,,,w,1,1.8896,2.164127962,1,1,7,1,29,3,1,,,,,,,,,,,,,,
,,,,,,,,,,,left.png,,w,right,60f728553a37102574b585c4,2021-10-22_15h53.20.730,arrow_simon_punish,2021.1.2,Win32,59.68011459,,,,,,,,,,,,,,w,1,1.7115,2.112766652,1,1,7,2,30,3,1,,,,,,,,,,,,,,
,,,,,,,,,,,left.png,,w,right,60f728553a37102574b585c4,2021-10-22_15h53.20.730,arrow_simon_punish,2021.1.2,Win32,59.68011459,,,,,,,,,,,,,,p,0,1.8049,2.144848007,1,1,7,3,31,3,1,,,,,,,,,,,,,,
,,,,,,,,,,,right.png,,p,left,60f728553a37102574b585c4,2021-10-22_15h53.20.730,arrow_simon_punish,2021.1.2,Win32,59.68011459,,,,,,,,,,,,,,p,1,1.911,2.234248092,1,1,8,0,32,0,1,,,,,,,,,,,,,,
,,,,,,,,,,,right.png,,p,left,60f728553a37102574b585c4,2021-10-22_15h53.20.730,arrow_simon_punish,2021.1.2,Win32,59.68011459,,,,,,,,,,,,,,p,1,1.6491,2.072259867,1,1,8,1,33,0,1,,,,,,,,,,,,,,
,,,,,,,,,,,left.png,,w,left,60f728553a37102574b585c4,2021-10-22_15h53.20.730,arrow_simon_punish,2021.1.2,Win32,59.68011459,,,,,,,,,,,,,,w,1,1.4873,1.748907954,0,1,8,2,34,2,1,,,,,,,,,,,,,,
,,,,,,,,,,,left.png,,w,left,60f728553a37102574b585c4,2021-10-22_15h53.20.730,arrow_simon_punish,2021.1.2,Win32,59.68011459,,,,,,,,,,,,,,w,1,1.5397,2.11383748,0,1,8,3,35,2,1,,,,,,,,,,,,,,
,,,,,,,,,,,right.png,,p,left,60f728553a37102574b585c4,2021-10-22_15h53.20.730,arrow_simon_punish,2021.1.2,Win32,59.68011459,,,,,,,,,,,,,,p,1,1.1206,1.567702189,1,1,9,0,36,0,1,,,,,,,,,,,,,,
,,,,,,,,,,,left.png,,w,right,60f728553a37102574b585c4,2021-10-22_15h53.20.730,arrow_simon_punish,2021.1.2,Win32,59.68011459,,,,,,,,,,,,,,w,1,1.7697,2.155732195,1,1,9,1,37,3,1,,,,,,,,,,,,,,
,,,,,,,,,,,left.png,,w,left,60f728553a37102574b585c4,2021-10-22_15h53.20.730,arrow_simon_punish,2021.1.2,Win32,59.68011459,,,,,,,,,,,,,,w,1,1.2734,1.64888082,1,1,9,2,38,2,1,,,,,,,,,,,,,,
,,,,,,,,,,,right.png,,p,right,60f728553a37102574b585c4,2021-10-22_15h53.20.730,arrow_simon_punish,2021.1.2,Win32,59.68011459,,,,,,,,,,,,,,p,1,1.22,1.713297248,1,1,9,3,39,1,1,,,,,,,,,,,,,,
,,,,,,,,,,,right.png,,p,right,60f728553a37102574b585c4,2021-10-22_15h53.20.730,arrow_simon_punish,2021.1.2,Win32,59.68011459,,,,,,,,,,,,,,p,1,1.155,1.678990663,1,1,10,0,40,1,1,,,,,,,,,,,,,,
,,,,,,,,,,,left.png,,w,left,60f728553a37102574b585c4,2021-10-22_15h53.20.730,arrow_simon_punish,2021.1.2,Win32,59.68011459,,,,,,,,,,,,,,w,1,1.2866,1.837337315,1,1,10,1,41,2,1,,,,,,,,,,,,,,
,,,,,,,,,,,left.png,,w,left,60f728553a37102574b585c4,2021-10-22_15h53.20.730,arrow_simon_punish,2021.1.2,Win32,59.68011459,,,,,,,,,,,,,,w,1,2.2585,1.688345352,1,1,10,2,42,2,1,,,,,,,,,,,,,,
,,,,,,,,,,,right.png,,p,right,60f728553a37102574b585c4,2021-10-22_15h53.20.730,arrow_simon_punish,2021.1.2,Win32,59.68011459,,,,,,,,,,,,,,p,1,1.6526,2.114693597,1,1,10,3,43,1,1,,,,,,,,,,,,,,
,,,,,,,,,,,right.png,,p,right,60f728553a37102574b585c4,2021-10-22_15h53.20.730,arrow_simon_punish,2021.1.2,Win32,59.68011459,,,,,,,,,,,,,,p,1,1.4064,1.998157256,0,1,11,0,44,1,1,,,,,,,,,,,,,,
,,,,,,,,,,,right.png,,p,left,60f728553a37102574b585c4,2021-10-22_15h53.20.730,arrow_simon_punish,2021.1.2,Win32,59.68011459,,,,,,,,,,,,,,p,1,1.5407,1.985149186,0,1,11,1,45,0,1,,,,,,,,,,,,,,
,,,,,,,,,,,left.png,,w,right,60f728553a37102574b585c4,2021-10-22_15h53.20.730,arrow_simon_punish,2021.1.2,Win32,59.68011459,,,,,,,,,,,,,,w,1,1.562,2.009788848,0,1,11,2,46,3,1,,,,,,,,,,,,,,
,,,,,,,,,,,left.png,,w,left,60f728553a37102574b585c4,2021-10-22_15h53.20.730,arrow_simon_punish,2021.1.2,Win32,59.68011459,,,,,,,,,,,,,,w,1,1.4368,1.901737388,0,1,11,3,47,2,1,,,,,,,,,,,,,,
,,,,,,,,,,,right.png,,p,left,60f728553a37102574b585c4,2021-10-22_15h53.20.730,arrow_simon_punish,2021.1.2,Win32,59.68011459,,,,,,,,,,,,,,p,1,1.8161,2.254599967,1,1,12,0,48,0,1,,,,,,,,,,,,,,
,,,,,,,,,,,left.png,,w,right,60f728553a37102574b585c4,2021-10-22_15h53.20.730,arrow_simon_punish,2021.1.2,Win32,59.68011459,,,,,,,,,,,,,,w,1,1.9632,1.830064962,1,1,12,1,49,3,1,,,,,,,,,,,,,,
,,,,,,,,,,,right.png,,p,left,60f728553a37102574b585c4,2021-10-22_15h53.20.730,arrow_simon_punish,2021.1.2,Win32,59.68011459,,,,,,,,,,,,,,p,1,1.1474,1.670979002,1,1,12,2,50,0,1,,,,,,,,,,,,,,
,,,,,,,,,,,left.png,,w,left,60f728553a37102574b585c4,2021-10-22_15h53.20.730,arrow_simon_punish,2021.1.2,Win32,59.68011459,,,,,,,,,,,,,,w,1,1.5582,1.975649652,0,1,12,3,51,2,1,,,,,,,,,,,,,,
,,,,,,,,,,,left.png,,w,right,60f728553a37102574b585c4,2021-10-22_15h53.20.730,arrow_simon_punish,2021.1.2,Win32,59.68011459,,,,,,,,,,,,,,w,1,1.5351,1.792205718,0,1,13,0,52,3,1,,,,,,,,,,,,,,
,,,,,,,,,,,left.png,,w,right,60f728553a37102574b585c4,2021-10-22_15h53.20.730,arrow_simon_punish,2021.1.2,Win32,59.68011459,,,,,,,,,,,,,,w,1,1.6334,2.015554932,1,1,13,1,53,3,1,,,,,,,,,,,,,,
,,,,,,,,,,,left.png,,w,right,60f728553a37102574b585c4,2021-10-22_15h53.20.730,arrow_simon_punish,2021.1.2,Win32,59.68011459,,,,,,,,,,,,,,w,1,1.6384,2.081328574,1,1,13,2,54,3,1,,,,,,,,,,,,,,
,,,,,,,,,,,left.png,,w,left,60f728553a37102574b585c4,2021-10-22_15h53.20.730,arrow_simon_punish,2021.1.2,Win32,59.68011459,,,,,,,,,,,,,,w,1,1.7533,1.912106559,1,1,13,3,55,2,1,,,,,,,,,,,,,,
,,,,,,,,,,,left.png,,w,right,60f728553a37102574b585c4,2021-10-22_15h53.20.730,arrow_simon_punish,2021.1.2,Win32,59.68011459,,,,,,,,,,,,,,w,1,2.1052,2.474532621,1,1,14,0,56,3,1,,,,,,,,,,,,,,
,,,,,,,,,,,left.png,,w,left,60f728553a37102574b585c4,2021-10-22_15h53.20.730,arrow_simon_punish,2021.1.2,Win32,59.68011459,,,,,,,,,,,,,,w,1,1.0994,1.57547389,1,1,14,1,57,2,1,,,,,,,,,,,,,,
,,,,,,,,,,,left.png,,w,right,60f728553a37102574b585c4,2021-10-22_15h53.20.730,arrow_simon_punish,2021.1.2,Win32,59.68011459,,,,,,,,,,,,,,p,0,1.6219,2.226024871,1,1,14,2,58,3,1,,,,,,,,,,,,,,
,,,,,,,,,,,right.png,,p,left,60f728553a37102574b585c4,2021-10-22_15h53.20.730,arrow_simon_punish,2021.1.2,Win32,59.68011459,,,,,,,,,,,,,,p,1,1.9316,2.37229424,1,1,14,3,59,0,1,,,,,,,,,,,,,,
,,,,,,,,,,,,,,,60f728553a37102574b585c4,2021-10-22_15h53.20.730,arrow_simon_punish,2021.1.2,Win32,59.68011459,,,,,,,,,,,,,,,,,,,,,,,,,space,11.4346,6,2,0,4,0,1,1,,,,,
,,,,,,,,,,,left.png,,w,left,60f728553a37102574b585c4,2021-10-22_15h53.20.730,arrow_simon_punish,2021.1.2,Win32,59.68011459,,,,,,,,,,,,,,w,1,1.1802,1.633287781,1,5,0,0,0,2,1,,,,,,,,,,,,,,
,,,,,,,,,,,left.png,,w,right,60f728553a37102574b585c4,2021-10-22_15h53.20.730,arrow_simon_punish,2021.1.2,Win32,59.68011459,,,,,,,,,,,,,,w,1,1.2753,1.631869863,1,5,0,1,1,3,1,,,,,,,,,,,,,,
,,,,,,,,,,,left.png,,w,left,60f728553a37102574b585c4,2021-10-22_15h53.20.730,arrow_simon_punish,2021.1.2,Win32,59.68011459,,,,,,,,,,,,,,w,1,1.7702,2.376247495,1,5,0,2,2,2,1,,,,,,,,,,,,,,
,,,,,,,,,,,left.png,,w,left,60f728553a37102574b585c4,2021-10-22_15h53.20.730,arrow_simon_punish,2021.1.2,Win32,59.68011459,,,,,,,,,,,,,,w,1,1.774,2.268486647,1,5,0,3,3,2,1,,,,,,,,,,,,,,
,,,,,,,,,,,right.png,,p,left,60f728553a37102574b585c4,2021-10-22_15h53.20.730,arrow_simon_punish,2021.1.2,Win32,59.68011459,,,,,,,,,,,,,,p,1,1.5193,1.872973399,0,5,1,0,4,0,1,,,,,,,,,,,,,,
,,,,,,,,,,,right.png,,p,right,60f728553a37102574b585c4,2021-10-22_15h53.20.730,arrow_simon_punish,2021.1.2,Win32,59.68011459,,,,,,,,,,,,,,p,1,0.9899,1.537712889,1,5,1,1,5,1,1,,,,,,,,,,,,,,
,,,,,,,,,,,right.png,,p,right,60f728553a37102574b585c4,2021-10-22_15h53.20.730,arrow_simon_punish,2021.1.2,Win32,59.68011459,,,,,,,,,,,,,,p,1,1.4193,2.010468877,0,5,1,2,6,1,1,,,,,,,,,,,,,,
,,,,,,,,,,,left.png,,w,left,60f728553a37102574b585c4,2021-10-22_15h53.20.730,arrow_simon_punish,2021.1.2,Win32,59.68011459,,,,,,,,,,,,,,w,1,1.4729,1.725528243,0,5,1,3,7,2,1,,,,,,,,,,,,,,
,,,,,,,,,,,left.png,,w,right,60f728553a37102574b585c4,2021-10-22_15h53.20.730,arrow_simon_punish,2021.1.2,Win32,59.68011459,,,,,,,,,,,,,,p,0,1.6718,2.40688883,1,5,2,0,8,3,1,,,,,,,,,,,,,,
,,,,,,,,,,,left.png,,w,right,60f728553a37102574b585c4,2021-10-22_15h53.20.730,arrow_simon_punish,2021.1.2,Win32,59.68011459,,,,,,,,,,,,,,w,1,1.6045,1.954719663,1,5,2,1,9,3,1,,,,,,,,,,,,,,
,,,,,,,,,,,right.png,,p,left,60f728553a37102574b585c4,2021-10-22_15h53.20.730,arrow_simon_punish,2021.1.2,Win32,59.68011459,,,,,,,,,,,,,,p,1,1.7238,1.908124501,1,5,2,2,10,0,1,,,,,,,,,,,,,,
,,,,,,,,,,,right.png,,p,left,60f728553a37102574b585c4,2021-10-22_15h53.20.730,arrow_simon_punish,2021.1.2,Win32,59.68011459,,,,,,,,,,,,,,p,1,1.3989,1.677556139,1,5,2,3,11,0,1,,,,,,,,,,,,,,
,,,,,,,,,,,left.png,,w,right,60f728553a37102574b585c4,2021-10-22_15h53.20.730,arrow_simon_punish,2021.1.2,Win32,59.68011459,,,,,,,,,,,,,,w,1,1.8227,2.242267991,1,5,3,0,12,3,1,,,,,,,,,,,,,,
,,,,,,,,,,,left.png,,w,right,60f728553a37102574b585c4,2021-10-22_15h53.20.730,arrow_simon_punish,2021.1.2,Win32,59.68011459,,,,,,,,,,,,,,w,1,1.8626,1.948358326,1,5,3,1,13,3,1,,,,,,,,,,,,,,
,,,,,,,,,,,right.png,,p,right,60f728553a37102574b585c4,2021-10-22_15h53.20.730,arrow_simon_punish,2021.1.2,Win32,59.68011459,,,,,,,,,,,,,,p,1,1.6221,2.124249883,1,5,3,2,14,1,1,,,,,,,,,,,,,,
,,,,,,,,,,,left.png,,w,right,60f728553a37102574b585c4,2021-10-22_15h53.20.730,arrow_simon_punish,2021.1.2,Win32,59.68011459,,,,,,,,,,,,,,w,1,1.7216,2.130483569,1,5,3,3,15,3,1,,,,,,,,,,,,,,
,,,,,,,,,,,right.png,,p,left,60f728553a37102574b585c4,2021-10-22_15h53.20.730,arrow_simon_punish,2021.1.2,Win32,59.68011459,,,,,,,,,,,,,,p,1,1.1181,1.644878483,1,5,4,0,16,0,1,,,,,,,,,,,,,,
,,,,,,,,,,,left.png,,w,left,60f728553a37102574b585c4,2021-10-22_15h53.20.730,arrow_simon_punish,2021.1.2,Win32,59.68011459,,,,,,,,,,,,,,w,1,1.8548,2.238269563,1,5,4,1,17,2,1,,,,,,,,,,,,,,
,,,,,,,,,,,left.png,,w,right,60f728553a37102574b585c4,2021-10-22_15h53.20.730,arrow_simon_punish,2021.1.2,Win32,59.68011459,,,,,,,,,,,,,,w,1,1.5867,2.078885472,0,5,4,2,18,3,1,,,,,,,,,,,,,,
,,,,,,,,,,,right.png,,p,left,60f728553a37102574b585c4,2021-10-22_15h53.20.730,arrow_simon_punish,2021.1.2,Win32,59.68011459,,,,,,,,,,,,,,p,1,1.5927,2.039004126,0,5,4,3,19,0,1,,,,,,,,,,,,,,
,,,,,,,,,,,right.png,,p,left,60f728553a37102574b585c4,2021-10-22_15h53.20.730,arrow_simon_punish,2021.1.2,Win32,59.68011459,,,,,,,,,,,,,,p,1,1.6358,2.064275963,1,5,5,0,20,0,1,,,,,,,,,,,,,,
,,,,,,,,,,,left.png,,w,right,60f728553a37102574b585c4,2021-10-22_15h53.20.730,arrow_simon_punish,2021.1.2,Win32,59.68011459,,,,,,,,,,,,,,w,1,1.7551,2.085063586,1,5,5,1,21,3,1,,,,,,,,,,,,,,
,,,,,,,,,,,left.png,,w,right,60f728553a37102574b585c4,2021-10-22_15h53.20.730,arrow_simon_punish,2021.1.2,Win32,59.68011459,,,,,,,,,,,,,,w,1,1.8032,2.161377561,1,5,5,2,22,3,1,,,,,,,,,,,,,,
,,,,,,,,,,,left.png,,w,left,60f728553a37102574b585c4,2021-10-22_15h53.20.730,arrow_simon_punish,2021.1.2,Win32,59.68011459,,,,,,,,,,,,,,w,1,1.0979,1.557184644,1,5,5,3,23,2,1,,,,,,,,,,,,,,
,,,,,,,,,,,right.png,,p,right,60f728553a37102574b585c4,2021-10-22_15h53.20.730,arrow_simon_punish,2021.1.2,Win32,59.68011459,,,,,,,,,,,,,,p,1,1.7038,1.980949566,1,5,6,0,24,1,1,,,,,,,,,,,,,,
,,,,,,,,,,,right.png,,p,right,60f728553a37102574b585c4,2021-10-22_15h53.20.730,arrow_simon_punish,2021.1.2,Win32,59.68011459,,,,,,,,,,,,,,p,1,1.3918,1.995524798,1,5,6,1,25,1,1,,,,,,,,,,,,,,
,,,,,,,,,,,right.png,,p,right,60f728553a37102574b585c4,2021-10-22_15h53.20.730,arrow_simon_punish,2021.1.2,Win32,59.68011459,,,,,,,,,,,,,,p,1,1.27,1.71996866,1,5,6,2,26,1,1,,,,,,,,,,,,,,
,,,,,,,,,,,left.png,,w,left,60f728553a37102574b585c4,2021-10-22_15h53.20.730,arrow_simon_punish,2021.1.2,Win32,59.68011459,,,,,,,,,,,,,,w,1,1.6238,2.205609568,1,5,6,3,27,2,1,,,,,,,,,,,,,,
,,,,,,,,,,,right.png,,p,right,60f728553a37102574b585c4,2021-10-22_15h53.20.730,arrow_simon_punish,2021.1.2,Win32,59.68011459,,,,,,,,,,,,,,p,1,1.2035,1.672125558,1,5,7,0,28,1,1,,,,,,,,,,,,,,
,,,,,,,,,,,right.png,,p,left,60f728553a37102574b585c4,2021-10-22_15h53.20.730,arrow_simon_punish,2021.1.2,Win32,59.68011459,,,,,,,,,,,,,,w,0,1.4861,2.041202413,1,5,7,1,29,0,1,,,,,,,,,,,,,,
,,,,,,,,,,,right.png,,p,left,60f728553a37102574b585c4,2021-10-22_15h53.20.730,arrow_simon_punish,2021.1.2,Win32,59.68011459,,,,,,,,,,,,,,p,1,1.8534,2.42349339,1,5,7,2,30,0,1,,,,,,,,,,,,,,
,,,,,,,,,,,right.png,,p,left,60f728553a37102574b585c4,2021-10-22_15h53.20.730,arrow_simon_punish,2021.1.2,Win32,59.68011459,,,,,,,,,,,,,,p,1,1.7859,2.266818873,1,5,7,3,31,0,1,,,,,,,,,,,,,,
,,,,,,,,,,,right.png,,p,left,60f728553a37102574b585c4,2021-10-22_15h53.20.730,arrow_simon_punish,2021.1.2,Win32,59.68011459,,,,,,,,,,,,,,p,1,1.3421,1.824642486,1,5,8,0,32,0,1,,,,,,,,,,,,,,
,,,,,,,,,,,right.png,,p,right,60f728553a37102574b585c4,2021-10-22_15h53.20.730,arrow_simon_punish,2021.1.2,Win32,59.68011459,,,,,,,,,,,,,,p,1,1.3844,1.660805809,1,5,8,1,33,1,1,,,,,,,,,,,,,,
,,,,,,,,,,,left.png,,w,left,60f728553a37102574b585c4,2021-10-22_15h53.20.730,arrow_simon_punish,2021.1.2,Win32,59.68011459,,,,,,,,,,,,,,w,1,1.95,2.374028196,1,5,8,2,34,2,1,,,,,,,,,,,,,,
,,,,,,,,,,,left.png,,w,left,60f728553a37102574b585c4,2021-10-22_15h53.20.730,arrow_simon_punish,2021.1.2,Win32,59.68011459,,,,,,,,,,,,,,w,1,1.3542,1.887908325,1,5,8,3,35,2,1,,,,,,,,,,,,,,
,,,,,,,,,,,left.png,,w,left,60f728553a37102574b585c4,2021-10-22_15h53.20.730,arrow_simon_punish,2021.1.2,Win32,59.68011459,,,,,,,,,,,,,,w,1,1.3368,1.808228459,1,5,9,0,36,2,1,,,,,,,,,,,,,,
,,,,,,,,,,,right.png,,p,right,60f728553a37102574b585c4,2021-10-22_15h53.20.730,arrow_simon_punish,2021.1.2,Win32,59.68011459,,,,,,,,,,,,,,p,1,1.5008,2.003109407,0,5,9,1,37,1,1,,,,,,,,,,,,,,
,,,,,,,,,,,right.png,,p,right,60f728553a37102574b585c4,2021-10-22_15h53.20.730,arrow_simon_punish,2021.1.2,Win32,59.68011459,,,,,,,,,,,,,,p,1,1.4359,2.059302655,0,5,9,2,38,1,1,,,,,,,,,,,,,,
,,,,,,,,,,,left.png,,w,left,60f728553a37102574b585c4,2021-10-22_15h53.20.730,arrow_simon_punish,2021.1.2,Win32,59.68011459,,,,,,,,,,,,,,w,1,1.7881,2.426356783,1,5,9,3,39,2,1,,,,,,,,,,,,,,
,,,,,,,,,,,right.png,,p,right,60f728553a37102574b585c4,2021-10-22_15h53.20.730,arrow_simon_punish,2021.1.2,Win32,59.68011459,,,,,,,,,,,,,,p,1,1.3564,1.869996742,1,5,10,0,40,1,1,,,,,,,,,,,,,,
,,,,,,,,,,,right.png,,p,right,60f728553a37102574b585c4,2021-10-22_15h53.20.730,arrow_simon_punish,2021.1.2,Win32,59.68011459,,,,,,,,,,,,,,p,1,1.3074,1.811701616,1,5,10,1,41,1,1,,,,,,,,,,,,,,
,,,,,,,,,,,right.png,,p,right,60f728553a37102574b585c4,2021-10-22_15h53.20.730,arrow_simon_punish,2021.1.2,Win32,59.68011459,,,,,,,,,,,,,,p,1,1.3791,1.821983734,1,5,10,2,42,1,1,,,,,,,,,,,,,,
,,,,,,,,,,,left.png,,w,right,60f728553a37102574b585c4,2021-10-22_15h53.20.730,arrow_simon_punish,2021.1.2,Win32,59.68011459,,,,,,,,,,,,,,w,1,1.7324,2.168027737,1,5,10,3,43,3,1,,,,,,,,,,,,,,
,,,,,,,,,,,left.png,,w,right,60f728553a37102574b585c4,2021-10-22_15h53.20.730,arrow_simon_punish,2021.1.2,Win32,59.68011459,,,,,,,,,,,,,,w,1,1.7874,1.868286479,1,5,11,0,44,3,1,,,,,,,,,,,,,,
,,,,,,,,,,,left.png,,w,left,60f728553a37102574b585c4,2021-10-22_15h53.20.730,arrow_simon_punish,2021.1.2,Win32,59.68011459,,,,,,,,,,,,,,w,1,1.3459,1.617610787,1,5,11,1,45,2,1,,,,,,,,,,,,,,
,,,,,,,,,,,right.png,,p,left,60f728553a37102574b585c4,2021-10-22_15h53.20.730,arrow_simon_punish,2021.1.2,Win32,59.68011459,,,,,,,,,,,,,,p,1,1.7904,2.269742749,1,5,11,2,46,0,1,,,,,,,,,,,,,,
,,,,,,,,,,,left.png,,w,right,60f728553a37102574b585c4,2021-10-22_15h53.20.730,arrow_simon_punish,2021.1.2,Win32,59.68011459,,,,,,,,,,,,,,p,0,1.5209,1.867398215,1,5,11,3,47,3,1,,,,,,,,,,,,,,
,,,,,,,,,,,left.png,,w,right,60f728553a37102574b585c4,2021-10-22_15h53.20.730,arrow_simon_punish,2021.1.2,Win32,59.68011459,,,,,,,,,,,,,,w,1,1.7076,2.170573731,1,5,12,0,48,3,1,,,,,,,,,,,,,,
,,,,,,,,,,,right.png,,p,left,60f728553a37102574b585c4,2021-10-22_15h53.20.730,arrow_simon_punish,2021.1.2,Win32,59.68011459,,,,,,,,,,,,,,p,1,1.5991,2.028032375,0,5,12,1,49,0,1,,,,,,,,,,,,,,
,,,,,,,,,,,left.png,,w,left,60f728553a37102574b585c4,2021-10-22_15h53.20.730,arrow_simon_punish,2021.1.2,Win32,59.68011459,,,,,,,,,,,,,,w,1,1.3221,1.748721119,1,5,12,2,50,2,1,,,,,,,,,,,,,,
,,,,,,,,,,,left.png,,w,right,60f728553a37102574b585c4,2021-10-22_15h53.20.730,arrow_simon_punish,2021.1.2,Win32,59.68011459,,,,,,,,,,,,,,w,1,1.1701,1.589989537,1,5,12,3,51,3,1,,,,,,,,,,,,,,
,,,,,,,,,,,right.png,,p,left,60f728553a37102574b585c4,2021-10-22_15h53.20.730,arrow_simon_punish,2021.1.2,Win32,59.68011459,,,,,,,,,,,,,,p,1,1.7574,2.125112748,1,5,13,0,52,0,1,,,,,,,,,,,,,,
,,,,,,,,,,,right.png,,p,left,60f728553a37102574b585c4,2021-10-22_15h53.20.730,arrow_simon_punish,2021.1.2,Win32,59.68011459,,,,,,,,,,,,,,p,1,1.3644,1.759503856,1,5,13,1,53,0,1,,,,,,,,,,,,,,
,,,,,,,,,,,right.png,,p,right,60f728553a37102574b585c4,2021-10-22_15h53.20.730,arrow_simon_punish,2021.1.2,Win32,59.68011459,,,,,,,,,,,,,,p,1,1.1923,1.61105711,1,5,13,2,54,1,1,,,,,,,,,,,,,,
,,,,,,,,,,,left.png,,w,left,60f728553a37102574b585c4,2021-10-22_15h53.20.730,arrow_simon_punish,2021.1.2,Win32,59.68011459,,,,,,,,,,,,,,w,1,1.3194,1.877897495,1,5,13,3,55,2,1,,,,,,,,,,,,,,
,,,,,,,,,,,left.png,,w,left,60f728553a37102574b585c4,2021-10-22_15h53.20.730,arrow_simon_punish,2021.1.2,Win32,59.68011459,,,,,,,,,,,,,,w,1,1.3425,1.924552208,1,5,14,0,56,2,1,,,,,,,,,,,,,,
,,,,,,,,,,,right.png,,p,right,60f728553a37102574b585c4,2021-10-22_15h53.20.730,arrow_simon_punish,2021.1.2,Win32,59.68011459,,,,,,,,,,,,,,p,1,1.6767,2.193910578,1,5,14,1,57,1,1,,,,,,,,,,,,,,
,,,,,,,,,,,left.png,,w,right,60f728553a37102574b585c4,2021-10-22_15h53.20.730,arrow_simon_punish,2021.1.2,Win32,59.68011459,,,,,,,,,,,,,,w,1,1.1701,1.624646901,1,5,14,2,58,3,1,,,,,,,,,,,,,,
,,,,,,,,,,,right.png,,p,left,60f728553a37102574b585c4,2021-10-22_15h53.20.730,arrow_simon_punish,2021.1.2,Win32,59.68011459,,,,,,,,,,,,,,p,1,1.556,1.97872939,0,5,14,3,59,0,1,,,,,,,,,,,,,,
,,,,,,,,,,,,,,,60f728553a37102574b585c4,2021-10-22_15h53.20.730,arrow_simon_punish,2021.1.2,Win32,59.68011459,,,,,,,,,,,,,,,,,,,,,,,,,space,134.1689,7,2,1,5,1,1,5,,,,,
,,,,,,,,,,,left.png,,w,right,60f728553a37102574b585c4,2021-10-22_15h53.20.730,arrow_simon_punish,2021.1.2,Win32,59.68011459,,,,,,,,,,,,,,w,1,6.6769,1.854264665,1,1,0,0,0,3,1,,,,,,,,,,,,,,
,,,,,,,,,,,right.png,,p,right,60f728553a37102574b585c4,2021-10-22_15h53.20.730,arrow_simon_punish,2021.1.2,Win32,59.68011459,,,,,,,,,,,,,,p,1,1.5123,2.06988855,0,1,0,1,1,1,1,,,,,,,,,,,,,,
,,,,,,,,,,,left.png,,w,left,60f728553a37102574b585c4,2021-10-22_15h53.20.730,arrow_simon_punish,2021.1.2,Win32,59.68011459,,,,,,,,,,,,,,w,1,1.1459,1.635139124,1,1,0,2,2,2,1,,,,,,,,,,,,,,
,,,,,,,,,,,left.png,,w,right,60f728553a37102574b585c4,2021-10-22_15h53.20.730,arrow_simon_punish,2021.1.2,Win32,59.68011459,,,,,,,,,,,,,,w,1,2.0036,2.395193071,1,1,0,3,3,3,1,,,,,,,,,,,,,,
,,,,,,,,,,,left.png,,w,right,60f728553a37102574b585c4,2021-10-22_15h53.20.730,arrow_simon_punish,2021.1.2,Win32,59.68011459,,,,,,,,,,,,,,w,1,1.317,1.569819083,1,1,1,0,4,3,1,,,,,,,,,,,,,,
,,,,,,,,,,,right.png,,p,right,60f728553a37102574b585c4,2021-10-22_15h53.20.730,arrow_simon_punish,2021.1.2,Win32,59.68011459,,,,,,,,,,,,,,p,1,1.4243,1.571514166,0,1,1,1,5,1,1,,,,,,,,,,,,,,
,,,,,,,,,,,right.png,,p,left,60f728553a37102574b585c4,2021-10-22_15h53.20.730,arrow_simon_punish,2021.1.2,Win32,59.68011459,,,,,,,,,,,,,,p,1,1.6287,2.024616762,1,1,1,2,6,0,1,,,,,,,,,,,,,,
,,,,,,,,,,,left.png,,w,left,60f728553a37102574b585c4,2021-10-22_15h53.20.730,arrow_simon_punish,2021.1.2,Win32,59.68011459,,,,,,,,,,,,,,w,1,1.6249,1.553000094,1,1,1,3,7,2,1,,,,,,,,,,,,,,
,,,,,,,,,,,right.png,,p,left,60f728553a37102574b585c4,2021-10-22_15h53.20.730,arrow_simon_punish,2021.1.2,Win32,59.68011459,,,,,,,,,,,,,,p,1,1.4038,1.867108291,0,1,2,0,8,0,1,,,,,,,,,,,,,,
,,,,,,,,,,,right.png,,p,left,60f728553a37102574b585c4,2021-10-22_15h53.20.730,arrow_simon_punish,2021.1.2,Win32,59.68011459,,,,,,,,,,,,,,p,1,1.2194,1.597627373,1,1,2,1,9,0,1,,,,,,,,,,,,,,
,,,,,,,,,,,left.png,,w,left,60f728553a37102574b585c4,2021-10-22_15h53.20.730,arrow_simon_punish,2021.1.2,Win32,59.68011459,,,,,,,,,,,,,,w,1,1.843,2.04245864,1,1,2,2,10,2,1,,,,,,,,,,,,,,
,,,,,,,,,,,right.png,,p,left,60f728553a37102574b585c4,2021-10-22_15h53.20.730,arrow_simon_punish,2021.1.2,Win32,59.68011459,,,,,,,,,,,,,,w,0,1.9095,2.408653284,1,1,2,3,11,0,1,,,,,,,,,,,,,,
,,,,,,,,,,,right.png,,p,left,60f728553a37102574b585c4,2021-10-22_15h53.20.730,arrow_simon_punish,2021.1.2,Win32,59.68011459,,,,,,,,,,,,,,p,1,1.957,2.38387143,1,1,3,0,12,0,1,,,,,,,,,,,,,,
,,,,,,,,,,,left.png,,w,left,60f728553a37102574b585c4,2021-10-22_15h53.20.730,arrow_simon_punish,2021.1.2,Win32,59.68011459,,,,,,,,,,,,,,w,1,1.4257,1.816140094,0,1,3,1,13,2,1,,,,,,,,,,,,,,
,,,,,,,,,,,left.png,,w,left,60f728553a37102574b585c4,2021-10-22_15h53.20.730,arrow_simon_punish,2021.1.2,Win32,59.68011459,,,,,,,,,,,,,,w,1,1.2877,1.57573602,1,1,3,2,14,2,1,,,,,,,,,,,,,,
,,,,,,,,,,,right.png,,p,right,60f728553a37102574b585c4,2021-10-22_15h53.20.730,arrow_simon_punish,2021.1.2,Win32,59.68011459,,,,,,,,,,,,,,p,1,1.6397,2.232544291,1,1,3,3,15,1,1,,,,,,,,,,,,,,
,,,,,,,,,,,left.png,,w,right,60f728553a37102574b585c4,2021-10-22_15h53.20.730,arrow_simon_punish,2021.1.2,Win32,59.68011459,,,,,,,,,,,,,,w,1,1.5758,1.942249115,0,1,4,0,16,3,1,,,,,,,,,,,,,,
,,,,,,,,,,,right.png,,p,right,60f728553a37102574b585c4,2021-10-22_15h53.20.730,arrow_simon_punish,2021.1.2,Win32,59.68011459,,,,,,,,,,,,,,p,1,1.7975,2.346361957,1,1,4,1,17,1,1,,,,,,,,,,,,,,
,,,,,,,,,,,left.png,,w,left,60f728553a37102574b585c4,2021-10-22_15h53.20.730,arrow_simon_punish,2021.1.2,Win32,59.68011459,,,,,,,,,,,,,,w,1,1.2367,1.585012936,1,1,4,2,18,2,1,,,,,,,,,,,,,,
,,,,,,,,,,,left.png,,w,left,60f728553a37102574b585c4,2021-10-22_15h53.20.730,arrow_simon_punish,2021.1.2,Win32,59.68011459,,,,,,,,,,,,,,w,1,1.8406,2.303946986,1,1,4,3,19,2,1,,,,,,,,,,,,,,
,,,,,,,,,,,left.png,,w,left,60f728553a37102574b585c4,2021-10-22_15h53.20.730,arrow_simon_punish,2021.1.2,Win32,59.68011459,,,,,,,,,,,,,,w,1,1.7027,2.315715024,1,1,5,0,20,2,1,,,,,,,,,,,,,,
,,,,,,,,,,,left.png,,w,left,60f728553a37102574b585c4,2021-10-22_15h53.20.730,arrow_simon_punish,2021.1.2,Win32,59.68011459,,,,,,,,,,,,,,w,1,1.5191,2.178972553,0,1,5,1,21,2,1,,,,,,,,,,,,,,
,,,,,,,,,,,right.png,,p,right,60f728553a37102574b585c4,2021-10-22_15h53.20.730,arrow_simon_punish,2021.1.2,Win32,59.68011459,,,,,,,,,,,,,,p,1,1.2544,1.81673388,1,1,5,2,22,1,1,,,,,,,,,,,,,,
,,,,,,,,,,,left.png,,w,right,60f728553a37102574b585c4,2021-10-22_15h53.20.730,arrow_simon_punish,2021.1.2,Win32,59.68011459,,,,,,,,,,,,,,p,0,1.7029,2.436267994,1,1,5,3,23,3,1,,,,,,,,,,,,,,
,,,,,,,,,,,left.png,,w,left,60f728553a37102574b585c4,2021-10-22_15h53.20.730,arrow_simon_punish,2021.1.2,Win32,59.68011459,,,,,,,,,,,,,,w,1,0.9707,1.546977378,1,1,6,0,24,2,1,,,,,,,,,,,,,,
,,,,,,,,,,,right.png,,p,left,60f728553a37102574b585c4,2021-10-22_15h53.20.730,arrow_simon_punish,2021.1.2,Win32,59.68011459,,,,,,,,,,,,,,p,1,1.918,2.354782451,1,1,6,1,25,0,1,,,,,,,,,,,,,,
,,,,,,,,,,,right.png,,p,left,60f728553a37102574b585c4,2021-10-22_15h53.20.730,arrow_simon_punish,2021.1.2,Win32,59.68011459,,,,,,,,,,,,,,p,1,1.6068,1.792093204,1,1,6,2,26,0,1,,,,,,,,,,,,,,
,,,,,,,,,,,right.png,,p,right,60f728553a37102574b585c4,2021-10-22_15h53.20.730,arrow_simon_punish,2021.1.2,Win32,59.68011459,,,,,,,,,,,,,,p,1,1.8164,2.370440535,1,1,6,3,27,1,1,,,,,,,,,,,,,,
,,,,,,,,,,,right.png,,p,left,60f728553a37102574b585c4,2021-10-22_15h53.20.730,arrow_simon_punish,2021.1.2,Win32,59.68011459,,,,,,,,,,,,,,p,1,1.6427,1.995310818,1,1,7,0,28,0,1,,,,,,,,,,,,,,
,,,,,,,,,,,right.png,,p,right,60f728553a37102574b585c4,2021-10-22_15h53.20.730,arrow_simon_punish,2021.1.2,Win32,59.68011459,,,,,,,,,,,,,,p,1,1.1105,1.633898011,1,1,7,1,29,1,1,,,,,,,,,,,,,,
,,,,,,,,,,,right.png,,p,left,60f728553a37102574b585c4,2021-10-22_15h53.20.730,arrow_simon_punish,2021.1.2,Win32,59.68011459,,,,,,,,,,,,,,p,1,1.7117,2.162955759,1,1,7,2,30,0,1,,,,,,,,,,,,,,
,,,,,,,,,,,right.png,,p,left,60f728553a37102574b585c4,2021-10-22_15h53.20.730,arrow_simon_punish,2021.1.2,Win32,59.68011459,,,,,,,,,,,,,,p,1,1.5085,2.057196067,0,1,7,3,31,0,1,,,,,,,,,,,,,,
,,,,,,,,,,,right.png,,p,right,60f728553a37102574b585c4,2021-10-22_15h53.20.730,arrow_simon_punish,2021.1.2,Win32,59.68011459,,,,,,,,,,,,,,p,1,1.4543,2.069885212,0,1,8,0,32,1,1,,,,,,,,,,,,,,
,,,,,,,,,,,right.png,,p,left,60f728553a37102574b585c4,2021-10-22_15h53.20.730,arrow_simon_punish,2021.1.2,Win32,59.68011459,,,,,,,,,,,,,,w,0,2.0198,2.329690813,1,1,8,1,33,0,1,,,,,,,,,,,,,,
,,,,,,,,,,,left.png,,w,left,60f728553a37102574b585c4,2021-10-22_15h53.20.730,arrow_simon_punish,2021.1.2,Win32,59.68011459,,,,,,,,,,,,,,w,1,1.8245,2.226124652,1,1,8,2,34,2,1,,,,,,,,,,,,,,
,,,,,,,,,,,right.png,,p,right,60f728553a37102574b585c4,2021-10-22_15h53.20.730,arrow_simon_punish,2021.1.2,Win32,59.68011459,,,,,,,,,,,,,,p,1,1.2039,1.755862492,1,1,8,3,35,1,1,,,,,,,,,,,,,,
,,,,,,,,,,,left.png,,w,left,60f728553a37102574b585c4,2021-10-22_15h53.20.730,arrow_simon_punish,2021.1.2,Win32,59.68011459,,,,,,,,,,,,,,w,1,1.5202,2.045392688,0,1,9,0,36,2,1,,,,,,,,,,,,,,
,,,,,,,,,,,right.png,,p,right,60f728553a37102574b585c4,2021-10-22_15h53.20.730,arrow_simon_punish,2021.1.2,Win32,59.68011459,,,,,,,,,,,,,,p,1,1.7296,2.327493737,1,1,9,1,37,1,1,,,,,,,,,,,,,,
,,,,,,,,,,,left.png,,w,right,60f728553a37102574b585c4,2021-10-22_15h53.20.730,arrow_simon_punish,2021.1.2,Win32,59.68011459,,,,,,,,,,,,,,w,1,1.2092,1.565652513,1,1,9,2,38,3,1,,,,,,,,,,,,,,
,,,,,,,,,,,left.png,,w,left,60f728553a37102574b585c4,2021-10-22_15h53.20.730,arrow_simon_punish,2021.1.2,Win32,59.68011459,,,,,,,,,,,,,,w,1,1.2811,1.810471226,1,1,9,3,39,2,1,,,,,,,,,,,,,,
,,,,,,,,,,,left.png,,w,right,60f728553a37102574b585c4,2021-10-22_15h53.20.730,arrow_simon_punish,2021.1.2,Win32,59.68011459,,,,,,,,,,,,,,w,1,1.9583,2.326712759,1,1,10,0,40,3,1,,,,,,,,,,,,,,
,,,,,,,,,,,left.png,,w,right,60f728553a37102574b585c4,2021-10-22_15h53.20.730,arrow_simon_punish,2021.1.2,Win32,59.68011459,,,,,,,,,,,,,,w,1,1.7203,2.186556692,1,1,10,1,41,3,1,,,,,,,,,,,,,,
,,,,,,,,,,,left.png,,w,right,60f728553a37102574b585c4,2021-10-22_15h53.20.730,arrow_simon_punish,2021.1.2,Win32,59.68011459,,,,,,,,,,,,,,w,1,1.2696,1.662332316,1,1,10,2,42,3,1,,,,,,,,,,,,,,
,,,,,,,,,,,right.png,,p,right,60f728553a37102574b585c4,2021-10-22_15h53.20.730,arrow_simon_punish,2021.1.2,Win32,59.68011459,,,,,,,,,,,,,,p,1,1.6065,2.250266675,1,1,10,3,43,1,1,,,,,,,,,,,,,,
,,,,,,,,,,,left.png,,w,right,60f728553a37102574b585c4,2021-10-22_15h53.20.730,arrow_simon_punish,2021.1.2,Win32,59.68011459,,,,,,,,,,,,,,w,1,1.5198,1.733381026,0,1,11,0,44,3,1,,,,,,,,,,,,,,
,,,,,,,,,,,left.png,,w,right,60f728553a37102574b585c4,2021-10-22_15h53.20.730,arrow_simon_punish,2021.1.2,Win32,59.68011459,,,,,,,,,,,,,,w,1,1.8706,2.292772896,1,1,11,1,45,3,1,,,,,,,,,,,,,,
,,,,,,,,,,,right.png,,p,right,60f728553a37102574b585c4,2021-10-22_15h53.20.730,arrow_simon_punish,2021.1.2,Win32,59.68011459,,,,,,,,,,,,,,p,1,1.886,2.154538245,1,1,11,2,46,1,1,,,,,,,,,,,,,,
,,,,,,,,,,,right.png,,p,right,60f728553a37102574b585c4,2021-10-22_15h53.20.730,arrow_simon_punish,2021.1.2,Win32,59.68011459,,,,,,,,,,,,,,p,1,0.9695,1.54583395,1,1,11,3,47,1,1,,,,,,,,,,,,,,
,,,,,,,,,,,right.png,,p,left,60f728553a37102574b585c4,2021-10-22_15h53.20.730,arrow_simon_punish,2021.1.2,Win32,59.68011459,,,,,,,,,,,,,,p,1,1.4285,1.988678292,0,1,12,0,48,0,1,,,,,,,,,,,,,,
,,,,,,,,,,,right.png,,p,left,60f728553a37102574b585c4,2021-10-22_15h53.20.730,arrow_simon_punish,2021.1.2,Win32,59.68011459,,,,,,,,,,,,,,p,1,0.9529,1.540412753,1,1,12,1,49,0,1,,,,,,,,,,,,,,
,,,,,,,,,,,left.png,,w,left,60f728553a37102574b585c4,2021-10-22_15h53.20.730,arrow_simon_punish,2021.1.2,Win32,59.68011459,,,,,,,,,,,,,,w,1,1.4602,1.745778644,0,1,12,2,50,2,1,,,,,,,,,,,,,,
,,,,,,,,,,,left.png,,w,right,60f728553a37102574b585c4,2021-10-22_15h53.20.730,arrow_simon_punish,2021.1.2,Win32,59.68011459,,,,,,,,,,,,,,w,1,1.141,1.588112896,1,1,12,3,51,3,1,,,,,,,,,,,,,,
,,,,,,,,,,,right.png,,p,left,60f728553a37102574b585c4,2021-10-22_15h53.20.730,arrow_simon_punish,2021.1.2,Win32,59.68011459,,,,,,,,,,,,,,p,1,1.2149,1.726775079,1,1,13,0,52,0,1,,,,,,,,,,,,,,
,,,,,,,,,,,left.png,,w,left,60f728553a37102574b585c4,2021-10-22_15h53.20.730,arrow_simon_punish,2021.1.2,Win32,59.68011459,,,,,,,,,,,,,,w,1,1.9924,2.430155134,1,1,13,1,53,2,1,,,,,,,,,,,,,,
,,,,,,,,,,,right.png,,p,left,60f728553a37102574b585c4,2021-10-22_15h53.20.730,arrow_simon_punish,2021.1.2,Win32,59.68011459,,,,,,,,,,,,,,p,1,1.0377,1.560175842,1,1,13,2,54,0,1,,,,,,,,,,,,,,
,,,,,,,,,,,left.png,,w,right,60f728553a37102574b585c4,2021-10-22_15h53.20.730,arrow_simon_punish,2021.1.2,Win32,59.68011459,,,,,,,,,,,,,,w,1,1.9206,2.211096395,1,1,13,3,55,3,1,,,,,,,,,,,,,,
,,,,,,,,,,,left.png,,w,right,60f728553a37102574b585c4,2021-10-22_15h53.20.730,arrow_simon_punish,2021.1.2,Win32,59.68011459,,,,,,,,,,,,,,w,1,1.2693,1.705669119,1,1,14,0,56,3,1,,,,,,,,,,,,,,
,,,,,,,,,,,left.png,,w,right,60f728553a37102574b585c4,2021-10-22_15h53.20.730,arrow_simon_punish,2021.1.2,Win32,59.68011459,,,,,,,,,,,,,,w,1,1.9708,2.42008689,1,1,14,1,57,3,1,,,,,,,,,,,,,,
,,,,,,,,,,,right.png,,p,right,60f728553a37102574b585c4,2021-10-22_15h53.20.730,arrow_simon_punish,2021.1.2,Win32,59.68011459,,,,,,,,,,,,,,p,1,1.62,2.199222089,1,1,14,2,58,1,1,,,,,,,,,,,,,,
,,,,,,,,,,,right.png,,p,right,60f728553a37102574b585c4,2021-10-22_15h53.20.730,arrow_simon_punish,2021.1.2,Win32,59.68011459,,,,,,,,,,,,,,p,1,1.1354,1.737921714,1,1,14,3,59,1,1,,,,,,,,,,,,,,
,,,,,,,,,,,,,,,60f728553a37102574b585c4,2021-10-22_15h53.20.730,arrow_simon_punish,2021.1.2,Win32,59.68011459,,,,,,,,,,,,,,,,,,,,,,,,,space,2.4301,8,3,0,6,0,1,1,,,,,
,,,,,,,,,,,right.png,,p,left,60f728553a37102574b585c4,2021-10-22_15h53.20.730,arrow_simon_punish,2021.1.2,Win32,59.68011459,,,,,,,,,,,,,,p,1,1.3864,1.598563565,1,5,0,0,0,0,1,,,,,,,,,,,,,,
,,,,,,,,,,,right.png,,p,right,60f728553a37102574b585c4,2021-10-22_15h53.20.730,arrow_simon_punish,2021.1.2,Win32,59.68011459,,,,,,,,,,,,,,p,1,1.9207,2.413615655,1,5,0,1,1,1,1,,,,,,,,,,,,,,
,,,,,,,,,,,right.png,,p,right,60f728553a37102574b585c4,2021-10-22_15h53.20.730,arrow_simon_punish,2021.1.2,Win32,59.68011459,,,,,,,,,,,,,,p,1,1.4892,1.945560428,0,5,0,2,2,1,1,,,,,,,,,,,,,,
,,,,,,,,,,,right.png,,p,left,60f728553a37102574b585c4,2021-10-22_15h53.20.730,arrow_simon_punish,2021.1.2,Win32,59.68011459,,,,,,,,,,,,,,p,1,1.9999,2.358987054,1,5,0,3,3,0,1,,,,,,,,,,,,,,
,,,,,,,,,,,left.png,,w,right,60f728553a37102574b585c4,2021-10-22_15h53.20.730,arrow_simon_punish,2021.1.2,Win32,59.68011459,,,,,,,,,,,,,,w,1,1.0367,1.508715093,1,5,1,0,4,3,1,,,,,,,,,,,,,,
,,,,,,,,,,,left.png,,w,right,60f728553a37102574b585c4,2021-10-22_15h53.20.730,arrow_simon_punish,2021.1.2,Win32,59.68011459,,,,,,,,,,,,,,w,1,1.6894,2.071150708,1,5,1,1,5,3,1,,,,,,,,,,,,,,
,,,,,,,,,,,right.png,,p,right,60f728553a37102574b585c4,2021-10-22_15h53.20.730,arrow_simon_punish,2021.1.2,Win32,59.68011459,,,,,,,,,,,,,,p,1,1.3033,1.764648585,1,5,1,2,6,1,1,,,,,,,,,,,,,,
,,,,,,,,,,,left.png,,w,right,60f728553a37102574b585c4,2021-10-22_15h53.20.730,arrow_simon_punish,2021.1.2,Win32,59.68011459,,,,,,,,,,,,,,w,1,1.244,1.727684981,1,5,1,3,7,3,1,,,,,,,,,,,,,,
