instruct_resp_simon.keys,instruct_resp_simon.corr,instruct_resp_simon.rt,trial_resp_simon.keys,trial_resp_simon.corr,trial_resp_simon.rt,trials_train_simon.thisRepN,trials_train_simon.thisTrialN,trials_train_simon.thisN,trials_train_simon.thisIndex,trials_train_simon.ran,target_file,target_pos,target_resp,target_side,participant,date,expName,psychopyVersion,OS,frameRate,instruct_resp_timing.keys,instruct_resp_timing.corr,instruct_resp_timing.rt,trial_resp_timing.keys,trial_resp_timing.rt,trials_train_timing.thisRepN,trials_train_timing.thisTrialN,trials_train_timing.thisN,trials_train_timing.thisIndex,trials_train_timing.ran,instruct_resp.keys,instruct_resp.corr,instruct_resp.rt,trial_resp.keys,trial_resp.corr,trial_resp.rt,target_onset,err,pun,trials.thisRepN,trials.thisTrialN,trials.thisN,trials.thisIndex,trials.ran,block_note_resp.keys,block_note_resp.rt,block_num,blocks.thisRepN,blocks.thisTrialN,blocks.thisN,blocks.thisIndex,blocks.ran,punish,complete_resp.keys,complete_resp.rt,raffle_trial,raffle_err,raffle_rew
space,0,22.0734,w,1,1.7113,0,0,0,2,1,left.png,,w,left,61095ad583e96c3096df5b0b,2021-10-27_11h10.34.063,arrow_simon_punish,2021.1.2,Win32,59.98440405,,,,,,,,,,,,,,,,,,,,,,,,,,,,,,,,,,,,,,
,,,w,1,0.8869,0,1,1,3,1,left.png,,w,right,61095ad583e96c3096df5b0b,2021-10-27_11h10.34.063,arrow_simon_punish,2021.1.2,Win32,59.98440405,,,,,,,,,,,,,,,,,,,,,,,,,,,,,,,,,,,,,,
,,,p,1,1.8591,0,2,2,1,1,right.png,,p,right,61095ad583e96c3096df5b0b,2021-10-27_11h10.34.063,arrow_simon_punish,2021.1.2,Win32,59.98440405,,,,,,,,,,,,,,,,,,,,,,,,,,,,,,,,,,,,,,
,,,p,1,1.6569,0,3,3,0,1,right.png,,p,left,61095ad583e96c3096df5b0b,2021-10-27_11h10.34.063,arrow_simon_punish,2021.1.2,Win32,59.98440405,,,,,,,,,,,,,,,,,,,,,,,,,,,,,,,,,,,,,,
,,,p,1,1.0623,1,0,4,0,1,right.png,,p,left,61095ad583e96c3096df5b0b,2021-10-27_11h10.34.063,arrow_simon_punish,2021.1.2,Win32,59.98440405,,,,,,,,,,,,,,,,,,,,,,,,,,,,,,,,,,,,,,
,,,p,1,1.4349,1,1,5,1,1,right.png,,p,right,61095ad583e96c3096df5b0b,2021-10-27_11h10.34.063,arrow_simon_punish,2021.1.2,Win32,59.98440405,,,,,,,,,,,,,,,,,,,,,,,,,,,,,,,,,,,,,,
,,,w,1,1.1527,1,2,6,2,1,left.png,,w,left,61095ad583e96c3096df5b0b,2021-10-27_11h10.34.063,arrow_simon_punish,2021.1.2,Win32,59.98440405,,,,,,,,,,,,,,,,,,,,,,,,,,,,,,,,,,,,,,
,,,w,1,0.9398,1,3,7,3,1,left.png,,w,right,61095ad583e96c3096df5b0b,2021-10-27_11h10.34.063,arrow_simon_punish,2021.1.2,Win32,59.98440405,,,,,,,,,,,,,,,,,,,,,,,,,,,,,,,,,,,,,,
,,,p,1,1.2844,2,0,8,1,1,right.png,,p,right,61095ad583e96c3096df5b0b,2021-10-27_11h10.34.063,arrow_simon_punish,2021.1.2,Win32,59.98440405,,,,,,,,,,,,,,,,,,,,,,,,,,,,,,,,,,,,,,
,,,w,0,1.3682,2,1,9,0,1,right.png,,p,left,61095ad583e96c3096df5b0b,2021-10-27_11h10.34.063,arrow_simon_punish,2021.1.2,Win32,59.98440405,,,,,,,,,,,,,,,,,,,,,,,,,,,,,,,,,,,,,,
,,,w,1,0.9691,2,2,10,2,1,left.png,,w,left,61095ad583e96c3096df5b0b,2021-10-27_11h10.34.063,arrow_simon_punish,2021.1.2,Win32,59.98440405,,,,,,,,,,,,,,,,,,,,,,,,,,,,,,,,,,,,,,
,,,w,1,1.3625,2,3,11,3,1,left.png,,w,right,61095ad583e96c3096df5b0b,2021-10-27_11h10.34.063,arrow_simon_punish,2021.1.2,Win32,59.98440405,,,,,,,,,,,,,,,,,,,,,,,,,,,,,,,,,,,,,,
,,,p,1,1.2911,3,0,12,1,1,right.png,,p,right,61095ad583e96c3096df5b0b,2021-10-27_11h10.34.063,arrow_simon_punish,2021.1.2,Win32,59.98440405,,,,,,,,,,,,,,,,,,,,,,,,,,,,,,,,,,,,,,
,,,p,1,0.8497,3,1,13,0,1,right.png,,p,left,61095ad583e96c3096df5b0b,2021-10-27_11h10.34.063,arrow_simon_punish,2021.1.2,Win32,59.98440405,,,,,,,,,,,,,,,,,,,,,,,,,,,,,,,,,,,,,,
,,,w,1,0.7838,3,2,14,2,1,left.png,,w,left,61095ad583e96c3096df5b0b,2021-10-27_11h10.34.063,arrow_simon_punish,2021.1.2,Win32,59.98440405,,,,,,,,,,,,,,,,,,,,,,,,,,,,,,,,,,,,,,
,,,w,1,0.7666,3,3,15,3,1,left.png,,w,right,61095ad583e96c3096df5b0b,2021-10-27_11h10.34.063,arrow_simon_punish,2021.1.2,Win32,59.98440405,,,,,,,,,,,,,,,,,,,,,,,,,,,,,,,,,,,,,,
,,,w,1,0.9091,4,0,16,2,1,left.png,,w,left,61095ad583e96c3096df5b0b,2021-10-27_11h10.34.063,arrow_simon_punish,2021.1.2,Win32,59.98440405,,,,,,,,,,,,,,,,,,,,,,,,,,,,,,,,,,,,,,
,,,p,1,1.4566,4,1,17,0,1,right.png,,p,left,61095ad583e96c3096df5b0b,2021-10-27_11h10.34.063,arrow_simon_punish,2021.1.2,Win32,59.98440405,,,,,,,,,,,,,,,,,,,,,,,,,,,,,,,,,,,,,,
,,,p,1,0.9895,4,2,18,1,1,right.png,,p,right,61095ad583e96c3096df5b0b,2021-10-27_11h10.34.063,arrow_simon_punish,2021.1.2,Win32,59.98440405,,,,,,,,,,,,,,,,,,,,,,,,,,,,,,,,,,,,,,
,,,w,1,1.1665,4,3,19,3,1,left.png,,w,right,61095ad583e96c3096df5b0b,2021-10-27_11h10.34.063,arrow_simon_punish,2021.1.2,Win32,59.98440405,,,,,,,,,,,,,,,,,,,,,,,,,,,,,,,,,,,,,,
,,,w,1,1.0001,5,0,20,2,1,left.png,,w,left,61095ad583e96c3096df5b0b,2021-10-27_11h10.34.063,arrow_simon_punish,2021.1.2,Win32,59.98440405,,,,,,,,,,,,,,,,,,,,,,,,,,,,,,,,,,,,,,
,,,p,1,0.8223,5,1,21,0,1,right.png,,p,left,61095ad583e96c3096df5b0b,2021-10-27_11h10.34.063,arrow_simon_punish,2021.1.2,Win32,59.98440405,,,,,,,,,,,,,,,,,,,,,,,,,,,,,,,,,,,,,,
,,,w,1,1.0837,5,2,22,3,1,left.png,,w,right,61095ad583e96c3096df5b0b,2021-10-27_11h10.34.063,arrow_simon_punish,2021.1.2,Win32,59.98440405,,,,,,,,,,,,,,,,,,,,,,,,,,,,,,,,,,,,,,
,,,p,1,1.5044,5,3,23,1,1,right.png,,p,right,61095ad583e96c3096df5b0b,2021-10-27_11h10.34.063,arrow_simon_punish,2021.1.2,Win32,59.98440405,,,,,,,,,,,,,,,,,,,,,,,,,,,,,,,,,,,,,,
,,,p,1,1.3969,6,0,24,0,1,right.png,,p,left,61095ad583e96c3096df5b0b,2021-10-27_11h10.34.063,arrow_simon_punish,2021.1.2,Win32,59.98440405,,,,,,,,,,,,,,,,,,,,,,,,,,,,,,,,,,,,,,
,,,w,1,0.7857,6,1,25,3,1,left.png,,w,right,61095ad583e96c3096df5b0b,2021-10-27_11h10.34.063,arrow_simon_punish,2021.1.2,Win32,59.98440405,,,,,,,,,,,,,,,,,,,,,,,,,,,,,,,,,,,,,,
,,,p,1,1.1394,6,2,26,1,1,right.png,,p,right,61095ad583e96c3096df5b0b,2021-10-27_11h10.34.063,arrow_simon_punish,2021.1.2,Win32,59.98440405,,,,,,,,,,,,,,,,,,,,,,,,,,,,,,,,,,,,,,
,,,w,1,1.1739,6,3,27,2,1,left.png,,w,left,61095ad583e96c3096df5b0b,2021-10-27_11h10.34.063,arrow_simon_punish,2021.1.2,Win32,59.98440405,,,,,,,,,,,,,,,,,,,,,,,,,,,,,,,,,,,,,,
,,,p,1,0.9019,7,0,28,1,1,right.png,,p,right,61095ad583e96c3096df5b0b,2021-10-27_11h10.34.063,arrow_simon_punish,2021.1.2,Win32,59.98440405,,,,,,,,,,,,,,,,,,,,,,,,,,,,,,,,,,,,,,
,,,p,1,0.8678,7,1,29,0,1,right.png,,p,left,61095ad583e96c3096df5b0b,2021-10-27_11h10.34.063,arrow_simon_punish,2021.1.2,Win32,59.98440405,,,,,,,,,,,,,,,,,,,,,,,,,,,,,,,,,,,,,,
,,,w,1,1.5262,7,2,30,2,1,left.png,,w,left,61095ad583e96c3096df5b0b,2021-10-27_11h10.34.063,arrow_simon_punish,2021.1.2,Win32,59.98440405,,,,,,,,,,,,,,,,,,,,,,,,,,,,,,,,,,,,,,
,,,w,1,0.7693,7,3,31,3,1,left.png,,w,right,61095ad583e96c3096df5b0b,2021-10-27_11h10.34.063,arrow_simon_punish,2021.1.2,Win32,59.98440405,,,,,,,,,,,,,,,,,,,,,,,,,,,,,,,,,,,,,,
,,,w,1,1.202,8,0,32,2,1,left.png,,w,left,61095ad583e96c3096df5b0b,2021-10-27_11h10.34.063,arrow_simon_punish,2021.1.2,Win32,59.98440405,,,,,,,,,,,,,,,,,,,,,,,,,,,,,,,,,,,,,,
,,,p,1,1.2496,8,1,33,0,1,right.png,,p,left,61095ad583e96c3096df5b0b,2021-10-27_11h10.34.063,arrow_simon_punish,2021.1.2,Win32,59.98440405,,,,,,,,,,,,,,,,,,,,,,,,,,,,,,,,,,,,,,
,,,w,1,1.2376,8,2,34,3,1,left.png,,w,right,61095ad583e96c3096df5b0b,2021-10-27_11h10.34.063,arrow_simon_punish,2021.1.2,Win32,59.98440405,,,,,,,,,,,,,,,,,,,,,,,,,,,,,,,,,,,,,,
,,,p,1,1.2843,8,3,35,1,1,right.png,,p,right,61095ad583e96c3096df5b0b,2021-10-27_11h10.34.063,arrow_simon_punish,2021.1.2,Win32,59.98440405,,,,,,,,,,,,,,,,,,,,,,,,,,,,,,,,,,,,,,
,,,p,1,1.168,9,0,36,0,1,right.png,,p,left,61095ad583e96c3096df5b0b,2021-10-27_11h10.34.063,arrow_simon_punish,2021.1.2,Win32,59.98440405,,,,,,,,,,,,,,,,,,,,,,,,,,,,,,,,,,,,,,
,,,p,1,1.7534,9,1,37,1,1,right.png,,p,right,61095ad583e96c3096df5b0b,2021-10-27_11h10.34.063,arrow_simon_punish,2021.1.2,Win32,59.98440405,,,,,,,,,,,,,,,,,,,,,,,,,,,,,,,,,,,,,,
,,,w,1,0.8906,9,2,38,2,1,left.png,,w,left,61095ad583e96c3096df5b0b,2021-10-27_11h10.34.063,arrow_simon_punish,2021.1.2,Win32,59.98440405,,,,,,,,,,,,,,,,,,,,,,,,,,,,,,,,,,,,,,
,,,p,0,0.7342,9,3,39,3,1,left.png,,w,right,61095ad583e96c3096df5b0b,2021-10-27_11h10.34.063,arrow_simon_punish,2021.1.2,Win32,59.98440405,,,,,,,,,,,,,,,,,,,,,,,,,,,,,,,,,,,,,,
,,,,,,,,,,,,,,,61095ad583e96c3096df5b0b,2021-10-27_11h10.34.063,arrow_simon_punish,2021.1.2,Win32,59.98440405,space,0,36.7698,p,3.7443,0,0,0,0,1,,,,,,,,,,,,,,,,,,,,,,,,,,,,
,,,,,,,,,,,,,,,61095ad583e96c3096df5b0b,2021-10-27_11h10.34.063,arrow_simon_punish,2021.1.2,Win32,59.98440405,,,,p,2.8826,1,0,1,0,1,,,,,,,,,,,,,,,,,,,,,,,,,,,,
,,,,,,,,,,,,,,,61095ad583e96c3096df5b0b,2021-10-27_11h10.34.063,arrow_simon_punish,2021.1.2,Win32,59.98440405,,,,p,2.9013,2,0,2,0,1,,,,,,,,,,,,,,,,,,,,,,,,,,,,
,,,,,,,,,,,,,,,61095ad583e96c3096df5b0b,2021-10-27_11h10.34.063,arrow_simon_punish,2021.1.2,Win32,59.98440405,,,,p,2.7631,3,0,3,0,1,,,,,,,,,,,,,,,,,,,,,,,,,,,,
,,,,,,,,,,,,,,,61095ad583e96c3096df5b0b,2021-10-27_11h10.34.063,arrow_simon_punish,2021.1.2,Win32,59.98440405,,,,p,1.5864,4,0,4,0,1,,,,,,,,,,,,,,,,,,,,,,,,,,,,
,,,,,,,,,,,,,,,61095ad583e96c3096df5b0b,2021-10-27_11h10.34.063,arrow_simon_punish,2021.1.2,Win32,59.98440405,,,,p,2.2664,5,0,5,0,1,,,,,,,,,,,,,,,,,,,,,,,,,,,,
,,,,,,,,,,,,,,,61095ad583e96c3096df5b0b,2021-10-27_11h10.34.063,arrow_simon_punish,2021.1.2,Win32,59.98440405,,,,p,2.6342,6,0,6,0,1,,,,,,,,,,,,,,,,,,,,,,,,,,,,
,,,,,,,,,,,,,,,61095ad583e96c3096df5b0b,2021-10-27_11h10.34.063,arrow_simon_punish,2021.1.2,Win32,59.98440405,,,,p,2.3686,7,0,7,0,1,,,,,,,,,,,,,,,,,,,,,,,,,,,,
,,,,,,,,,,,,,,,61095ad583e96c3096df5b0b,2021-10-27_11h10.34.063,arrow_simon_punish,2021.1.2,Win32,59.98440405,,,,p,2.433,8,0,8,0,1,,,,,,,,,,,,,,,,,,,,,,,,,,,,
,,,,,,,,,,,,,,,61095ad583e96c3096df5b0b,2021-10-27_11h10.34.063,arrow_simon_punish,2021.1.2,Win32,59.98440405,,,,p,2.5841,9,0,9,0,1,,,,,,,,,,,,,,,,,,,,,,,,,,,,
,,,,,,,,,,,,,,,61095ad583e96c3096df5b0b,2021-10-27_11h10.34.063,arrow_simon_punish,2021.1.2,Win32,59.98440405,,,,p,2.4832,10,0,10,0,1,,,,,,,,,,,,,,,,,,,,,,,,,,,,
,,,,,,,,,,,,,,,61095ad583e96c3096df5b0b,2021-10-27_11h10.34.063,arrow_simon_punish,2021.1.2,Win32,59.98440405,,,,p,2.467,11,0,11,0,1,,,,,,,,,,,,,,,,,,,,,,,,,,,,
,,,,,,,,,,,,,,,61095ad583e96c3096df5b0b,2021-10-27_11h10.34.063,arrow_simon_punish,2021.1.2,Win32,59.98440405,,,,p,2.3837,12,0,12,0,1,,,,,,,,,,,,,,,,,,,,,,,,,,,,
,,,,,,,,,,,,,,,61095ad583e96c3096df5b0b,2021-10-27_11h10.34.063,arrow_simon_punish,2021.1.2,Win32,59.98440405,,,,p,2.5173,13,0,13,0,1,,,,,,,,,,,,,,,,,,,,,,,,,,,,
,,,,,,,,,,,,,,,61095ad583e96c3096df5b0b,2021-10-27_11h10.34.063,arrow_simon_punish,2021.1.2,Win32,59.98440405,,,,p,2.5507,14,0,14,0,1,,,,,,,,,,,,,,,,,,,,,,,,,,,,
,,,,,,,,,,,,,,,61095ad583e96c3096df5b0b,2021-10-27_11h10.34.063,arrow_simon_punish,2021.1.2,Win32,59.98440405,,,,p,2.4666,15,0,15,0,1,,,,,,,,,,,,,,,,,,,,,,,,,,,,
,,,,,,,,,,,,,,,61095ad583e96c3096df5b0b,2021-10-27_11h10.34.063,arrow_simon_punish,2021.1.2,Win32,59.98440405,,,,p,2.3663,16,0,16,0,1,,,,,,,,,,,,,,,,,,,,,,,,,,,,
,,,,,,,,,,,,,,,61095ad583e96c3096df5b0b,2021-10-27_11h10.34.063,arrow_simon_punish,2021.1.2,Win32,59.98440405,,,,p,2.4531,17,0,17,0,1,,,,,,,,,,,,,,,,,,,,,,,,,,,,
,,,,,,,,,,,,,,,61095ad583e96c3096df5b0b,2021-10-27_11h10.34.063,arrow_simon_punish,2021.1.2,Win32,59.98440405,,,,p,2.3823,18,0,18,0,1,,,,,,,,,,,,,,,,,,,,,,,,,,,,
,,,,,,,,,,,,,,,61095ad583e96c3096df5b0b,2021-10-27_11h10.34.063,arrow_simon_punish,2021.1.2,Win32,59.98440405,,,,p,2.4836,19,0,19,0,1,,,,,,,,,,,,,,,,,,,,,,,,,,,,
,,,,,,,,,,,,,,,61095ad583e96c3096df5b0b,2021-10-27_11h10.34.063,arrow_simon_punish,2021.1.2,Win32,59.98440405,,,,p,2.4055,20,0,20,0,1,,,,,,,,,,,,,,,,,,,,,,,,,,,,
,,,,,,,,,,,,,,,61095ad583e96c3096df5b0b,2021-10-27_11h10.34.063,arrow_simon_punish,2021.1.2,Win32,59.98440405,,,,p,2.3839,21,0,21,0,1,,,,,,,,,,,,,,,,,,,,,,,,,,,,
,,,,,,,,,,,,,,,61095ad583e96c3096df5b0b,2021-10-27_11h10.34.063,arrow_simon_punish,2021.1.2,Win32,59.98440405,,,,p,2.3826,22,0,22,0,1,,,,,,,,,,,,,,,,,,,,,,,,,,,,
,,,,,,,,,,,,,,,61095ad583e96c3096df5b0b,2021-10-27_11h10.34.063,arrow_simon_punish,2021.1.2,Win32,59.98440405,,,,p,2.2519,23,0,23,0,1,,,,,,,,,,,,,,,,,,,,,,,,,,,,
,,,,,,,,,,,,,,,61095ad583e96c3096df5b0b,2021-10-27_11h10.34.063,arrow_simon_punish,2021.1.2,Win32,59.98440405,,,,p,2.4175,24,0,24,0,1,,,,,,,,,,,,,,,,,,,,,,,,,,,,
,,,,,,,,,,,,,,,61095ad583e96c3096df5b0b,2021-10-27_11h10.34.063,arrow_simon_punish,2021.1.2,Win32,59.98440405,,,,p,2.4337,25,0,25,0,1,,,,,,,,,,,,,,,,,,,,,,,,,,,,
,,,,,,,,,,,,,,,61095ad583e96c3096df5b0b,2021-10-27_11h10.34.063,arrow_simon_punish,2021.1.2,Win32,59.98440405,,,,p,2.4134,26,0,26,0,1,,,,,,,,,,,,,,,,,,,,,,,,,,,,
,,,,,,,,,,,,,,,61095ad583e96c3096df5b0b,2021-10-27_11h10.34.063,arrow_simon_punish,2021.1.2,Win32,59.98440405,,,,p,2.4507,27,0,27,0,1,,,,,,,,,,,,,,,,,,,,,,,,,,,,
,,,,,,,,,,,,,,,61095ad583e96c3096df5b0b,2021-10-27_11h10.34.063,arrow_simon_punish,2021.1.2,Win32,59.98440405,,,,p,2.4401,28,0,28,0,1,,,,,,,,,,,,,,,,,,,,,,,,,,,,
,,,,,,,,,,,,,,,61095ad583e96c3096df5b0b,2021-10-27_11h10.34.063,arrow_simon_punish,2021.1.2,Win32,59.98440405,,,,p,2.4842,29,0,29,0,1,,,,,,,,,,,,,,,,,,,,,,,,,,,,
,,,,,,,,,,,,,,,61095ad583e96c3096df5b0b,2021-10-27_11h10.34.063,arrow_simon_punish,2021.1.2,Win32,59.98440405,,,,p,2.4001,30,0,30,0,1,,,,,,,,,,,,,,,,,,,,,,,,,,,,
,,,,,,,,,,,,,,,61095ad583e96c3096df5b0b,2021-10-27_11h10.34.063,arrow_simon_punish,2021.1.2,Win32,59.98440405,,,,p,2.4094,31,0,31,0,1,,,,,,,,,,,,,,,,,,,,,,,,,,,,
,,,,,,,,,,,,,,,61095ad583e96c3096df5b0b,2021-10-27_11h10.34.063,arrow_simon_punish,2021.1.2,Win32,59.98440405,,,,p,2.4167,32,0,32,0,1,,,,,,,,,,,,,,,,,,,,,,,,,,,,
,,,,,,,,,,,,,,,61095ad583e96c3096df5b0b,2021-10-27_11h10.34.063,arrow_simon_punish,2021.1.2,Win32,59.98440405,,,,p,2.6828,33,0,33,0,1,,,,,,,,,,,,,,,,,,,,,,,,,,,,
,,,,,,,,,,,,,,,61095ad583e96c3096df5b0b,2021-10-27_11h10.34.063,arrow_simon_punish,2021.1.2,Win32,59.98440405,,,,p,2.4664,34,0,34,0,1,,,,,,,,,,,,,,,,,,,,,,,,,,,,
,,,,,,,,,,,,,,,61095ad583e96c3096df5b0b,2021-10-27_11h10.34.063,arrow_simon_punish,2021.1.2,Win32,59.98440405,,,,p,2.3745,35,0,35,0,1,,,,,,,,,,,,,,,,,,,,,,,,,,,,
,,,,,,,,,,,,,,,61095ad583e96c3096df5b0b,2021-10-27_11h10.34.063,arrow_simon_punish,2021.1.2,Win32,59.98440405,,,,p,2.4662,36,0,36,0,1,,,,,,,,,,,,,,,,,,,,,,,,,,,,
,,,,,,,,,,,,,,,61095ad583e96c3096df5b0b,2021-10-27_11h10.34.063,arrow_simon_punish,2021.1.2,Win32,59.98440405,,,,p,2.549,37,0,37,0,1,,,,,,,,,,,,,,,,,,,,,,,,,,,,
,,,,,,,,,,,,,,,61095ad583e96c3096df5b0b,2021-10-27_11h10.34.063,arrow_simon_punish,2021.1.2,Win32,59.98440405,,,,p,2.417,38,0,38,0,1,,,,,,,,,,,,,,,,,,,,,,,,,,,,
,,,,,,,,,,,,,,,61095ad583e96c3096df5b0b,2021-10-27_11h10.34.063,arrow_simon_punish,2021.1.2,Win32,59.98440405,,,,p,2.3338,39,0,39,0,1,,,,,,,,,,,,,,,,,,,,,,,,,,,,
,,,,,,,,,,,,,,,61095ad583e96c3096df5b0b,2021-10-27_11h10.34.063,arrow_simon_punish,2021.1.2,Win32,59.98440405,,,,p,2.551,40,0,40,0,1,,,,,,,,,,,,,,,,,,,,,,,,,,,,
,,,,,,,,,,,,,,,61095ad583e96c3096df5b0b,2021-10-27_11h10.34.063,arrow_simon_punish,2021.1.2,Win32,59.98440405,,,,p,2.4235,41,0,41,0,1,,,,,,,,,,,,,,,,,,,,,,,,,,,,
,,,,,,,,,,,,,,,61095ad583e96c3096df5b0b,2021-10-27_11h10.34.063,arrow_simon_punish,2021.1.2,Win32,59.98440405,,,,p,2.4378,42,0,42,0,1,,,,,,,,,,,,,,,,,,,,,,,,,,,,
,,,,,,,,,,,,,,,61095ad583e96c3096df5b0b,2021-10-27_11h10.34.063,arrow_simon_punish,2021.1.2,Win32,59.98440405,,,,p,2.4424,43,0,43,0,1,,,,,,,,,,,,,,,,,,,,,,,,,,,,
,,,,,,,,,,,,,,,61095ad583e96c3096df5b0b,2021-10-27_11h10.34.063,arrow_simon_punish,2021.1.2,Win32,59.98440405,,,,p,2.4006,44,0,44,0,1,,,,,,,,,,,,,,,,,,,,,,,,,,,,
,,,,,,,,,,,,,,,61095ad583e96c3096df5b0b,2021-10-27_11h10.34.063,arrow_simon_punish,2021.1.2,Win32,59.98440405,,,,p,2.6842,45,0,45,0,1,,,,,,,,,,,,,,,,,,,,,,,,,,,,
,,,,,,,,,,,,,,,61095ad583e96c3096df5b0b,2021-10-27_11h10.34.063,arrow_simon_punish,2021.1.2,Win32,59.98440405,,,,p,2.3667,46,0,46,0,1,,,,,,,,,,,,,,,,,,,,,,,,,,,,
,,,,,,,,,,,,,,,61095ad583e96c3096df5b0b,2021-10-27_11h10.34.063,arrow_simon_punish,2021.1.2,Win32,59.98440405,,,,p,2.4274,47,0,47,0,1,,,,,,,,,,,,,,,,,,,,,,,,,,,,
,,,,,,,,,,,,,,,61095ad583e96c3096df5b0b,2021-10-27_11h10.34.063,arrow_simon_punish,2021.1.2,Win32,59.98440405,,,,p,2.3304,48,0,48,0,1,,,,,,,,,,,,,,,,,,,,,,,,,,,,
,,,,,,,,,,,,,,,61095ad583e96c3096df5b0b,2021-10-27_11h10.34.063,arrow_simon_punish,2021.1.2,Win32,59.98440405,,,,p,2.3825,49,0,49,0,1,,,,,,,,,,,,,,,,,,,,,,,,,,,,
,,,,,,,,,,,,,,,61095ad583e96c3096df5b0b,2021-10-27_11h10.34.063,arrow_simon_punish,2021.1.2,Win32,59.98440405,,,,p,2.5006,50,0,50,0,1,,,,,,,,,,,,,,,,,,,,,,,,,,,,
,,,,,,,,,,,,,,,61095ad583e96c3096df5b0b,2021-10-27_11h10.34.063,arrow_simon_punish,2021.1.2,Win32,59.98440405,,,,p,2.3433,51,0,51,0,1,,,,,,,,,,,,,,,,,,,,,,,,,,,,
,,,,,,,,,,,,,,,61095ad583e96c3096df5b0b,2021-10-27_11h10.34.063,arrow_simon_punish,2021.1.2,Win32,59.98440405,,,,p,2.5002,52,0,52,0,1,,,,,,,,,,,,,,,,,,,,,,,,,,,,
,,,,,,,,,,,,,,,61095ad583e96c3096df5b0b,2021-10-27_11h10.34.063,arrow_simon_punish,2021.1.2,Win32,59.98440405,,,,p,2.333,53,0,53,0,1,,,,,,,,,,,,,,,,,,,,,,,,,,,,
,,,,,,,,,,,,,,,61095ad583e96c3096df5b0b,2021-10-27_11h10.34.063,arrow_simon_punish,2021.1.2,Win32,59.98440405,,,,p,2.3673,54,0,54,0,1,,,,,,,,,,,,,,,,,,,,,,,,,,,,
,,,,,,,,,,,,,,,61095ad583e96c3096df5b0b,2021-10-27_11h10.34.063,arrow_simon_punish,2021.1.2,Win32,59.98440405,,,,p,2.4378,55,0,55,0,1,,,,,,,,,,,,,,,,,,,,,,,,,,,,
,,,,,,,,,,,,,,,61095ad583e96c3096df5b0b,2021-10-27_11h10.34.063,arrow_simon_punish,2021.1.2,Win32,59.98440405,,,,p,2.5329,56,0,56,0,1,,,,,,,,,,,,,,,,,,,,,,,,,,,,
,,,,,,,,,,,,,,,61095ad583e96c3096df5b0b,2021-10-27_11h10.34.063,arrow_simon_punish,2021.1.2,Win32,59.98440405,,,,p,2.4176,57,0,57,0,1,,,,,,,,,,,,,,,,,,,,,,,,,,,,
,,,,,,,,,,,,,,,61095ad583e96c3096df5b0b,2021-10-27_11h10.34.063,arrow_simon_punish,2021.1.2,Win32,59.98440405,,,,p,2.4363,58,0,58,0,1,,,,,,,,,,,,,,,,,,,,,,,,,,,,
,,,,,,,,,,,,,,,61095ad583e96c3096df5b0b,2021-10-27_11h10.34.063,arrow_simon_punish,2021.1.2,Win32,59.98440405,,,,p,2.5836,59,0,59,0,1,,,,,,,,,,,,,,,,,,,,,,,,,,,,
,,,,,,,,,,,right.png,,p,left,61095ad583e96c3096df5b0b,2021-10-27_11h10.34.063,arrow_simon_punish,2021.1.2,Win32,59.98440405,,,,,,,,,,,space,0,41.3767,p,1,1.5487,1.721553164,0,1,0,0,0,0,1,,,,,,,,,,,,,,
,,,,,,,,,,,left.png,,w,right,61095ad583e96c3096df5b0b,2021-10-27_11h10.34.063,arrow_simon_punish,2021.1.2,Win32,59.98440405,,,,,,,,,,,,,,w,1,1.2491,1.757528134,1,1,0,1,1,3,1,,,,,,,,,,,,,,
,,,,,,,,,,,left.png,,w,right,61095ad583e96c3096df5b0b,2021-10-27_11h10.34.063,arrow_simon_punish,2021.1.2,Win32,59.98440405,,,,,,,,,,,,,,p,0,1.1486,1.558148888,1,1,0,2,2,3,1,,,,,,,,,,,,,,
,,,,,,,,,,,left.png,,w,right,61095ad583e96c3096df5b0b,2021-10-27_11h10.34.063,arrow_simon_punish,2021.1.2,Win32,59.98440405,,,,,,,,,,,,,,p,0,1.6079,2.183475898,1,1,0,3,3,3,1,,,,,,,,,,,,,,
,,,,,,,,,,,right.png,,p,right,61095ad583e96c3096df5b0b,2021-10-27_11h10.34.063,arrow_simon_punish,2021.1.2,Win32,59.98440405,,,,,,,,,,,,,,p,1,1.3203,2.200708275,1,1,1,0,4,1,1,,,,,,,,,,,,,,
,,,,,,,,,,,right.png,,p,right,61095ad583e96c3096df5b0b,2021-10-27_11h10.34.063,arrow_simon_punish,2021.1.2,Win32,59.98440405,,,,,,,,,,,,,,p,1,1.6412,2.270705182,1,1,1,1,5,1,1,,,,,,,,,,,,,,
,,,,,,,,,,,right.png,,p,right,61095ad583e96c3096df5b0b,2021-10-27_11h10.34.063,arrow_simon_punish,2021.1.2,Win32,59.98440405,,,,,,,,,,,,,,p,1,1.3018,1.928205586,1,1,1,2,6,1,1,,,,,,,,,,,,,,
,,,,,,,,,,,left.png,,w,left,61095ad583e96c3096df5b0b,2021-10-27_11h10.34.063,arrow_simon_punish,2021.1.2,Win32,59.98440405,,,,,,,,,,,,,,w,1,1.5177,1.945008257,0,1,1,3,7,2,1,,,,,,,,,,,,,,
,,,,,,,,,,,left.png,,w,right,61095ad583e96c3096df5b0b,2021-10-27_11h10.34.063,arrow_simon_punish,2021.1.2,Win32,59.98440405,,,,,,,,,,,,,,w,1,1.5342,1.57517486,0,1,2,0,8,3,1,,,,,,,,,,,,,,
,,,,,,,,,,,right.png,,p,left,61095ad583e96c3096df5b0b,2021-10-27_11h10.34.063,arrow_simon_punish,2021.1.2,Win32,59.98440405,,,,,,,,,,,,,,p,1,1.183,1.703130062,1,1,2,1,9,0,1,,,,,,,,,,,,,,
,,,,,,,,,,,right.png,,p,right,61095ad583e96c3096df5b0b,2021-10-27_11h10.34.063,arrow_simon_punish,2021.1.2,Win32,59.98440405,,,,,,,,,,,,,,p,1,1.6761,2.34690685,1,1,2,2,10,1,1,,,,,,,,,,,,,,
,,,,,,,,,,,left.png,,w,right,61095ad583e96c3096df5b0b,2021-10-27_11h10.34.063,arrow_simon_punish,2021.1.2,Win32,59.98440405,,,,,,,,,,,,,,w,1,1.553,2.026170555,0,1,2,3,11,3,1,,,,,,,,,,,,,,
,,,,,,,,,,,left.png,,w,right,61095ad583e96c3096df5b0b,2021-10-27_11h10.34.063,arrow_simon_punish,2021.1.2,Win32,59.98440405,,,,,,,,,,,,,,p,0,1.5342,2.200709733,1,1,3,0,12,3,1,,,,,,,,,,,,,,
,,,,,,,,,,,left.png,,w,right,61095ad583e96c3096df5b0b,2021-10-27_11h10.34.063,arrow_simon_punish,2021.1.2,Win32,59.98440405,,,,,,,,,,,,,,p,0,1.2263,1.800183099,1,1,3,1,13,3,1,,,,,,,,,,,,,,
,,,,,,,,,,,left.png,,w,left,61095ad583e96c3096df5b0b,2021-10-27_11h10.34.063,arrow_simon_punish,2021.1.2,Win32,59.98440405,,,,,,,,,,,,,,w,1,1.7917,2.080404464,1,1,3,2,14,2,1,,,,,,,,,,,,,,
,,,,,,,,,,,right.png,,p,left,61095ad583e96c3096df5b0b,2021-10-27_11h10.34.063,arrow_simon_punish,2021.1.2,Win32,59.98440405,,,,,,,,,,,,,,p,1,1.4167,1.788359213,0,1,3,3,15,0,1,,,,,,,,,,,,,,
,,,,,,,,,,,right.png,,p,left,61095ad583e96c3096df5b0b,2021-10-27_11h10.34.063,arrow_simon_punish,2021.1.2,Win32,59.98440405,,,,,,,,,,,,,,p,1,1.3725,2.046034383,1,1,4,0,16,0,1,,,,,,,,,,,,,,
,,,,,,,,,,,right.png,,p,right,61095ad583e96c3096df5b0b,2021-10-27_11h10.34.063,arrow_simon_punish,2021.1.2,Win32,59.98440405,,,,,,,,,,,,,,p,1,1.0995,1.74367096,1,1,4,1,17,1,1,,,,,,,,,,,,,,
,,,,,,,,,,,left.png,,w,left,61095ad583e96c3096df5b0b,2021-10-27_11h10.34.063,arrow_simon_punish,2021.1.2,Win32,59.98440405,,,,,,,,,,,,,,p,0,1.4826,2.433328355,1,1,4,2,18,2,1,,,,,,,,,,,,,,
,,,,,,,,,,,right.png,,p,left,61095ad583e96c3096df5b0b,2021-10-27_11h10.34.063,arrow_simon_punish,2021.1.2,Win32,59.98440405,,,,,,,,,,,,,,p,1,1.252,1.980137374,1,1,4,3,19,0,1,,,,,,,,,,,,,,
,,,,,,,,,,,right.png,,p,right,61095ad583e96c3096df5b0b,2021-10-27_11h10.34.063,arrow_simon_punish,2021.1.2,Win32,59.98440405,,,,,,,,,,,,,,p,1,1.408,2.179920556,0,1,5,0,20,1,1,,,,,,,,,,,,,,
,,,,,,,,,,,right.png,,p,left,61095ad583e96c3096df5b0b,2021-10-27_11h10.34.063,arrow_simon_punish,2021.1.2,Win32,59.98440405,,,,,,,,,,,,,,p,1,1.4667,1.949992147,0,1,5,1,21,0,1,,,,,,,,,,,,,,
,,,,,,,,,,,left.png,,w,left,61095ad583e96c3096df5b0b,2021-10-27_11h10.34.063,arrow_simon_punish,2021.1.2,Win32,59.98440405,,,,,,,,,,,,,,w,1,1.1727,1.540283809,1,1,5,2,22,2,1,,,,,,,,,,,,,,
,,,,,,,,,,,right.png,,p,left,61095ad583e96c3096df5b0b,2021-10-27_11h10.34.063,arrow_simon_punish,2021.1.2,Win32,59.98440405,,,,,,,,,,,,,,p,1,1.5329,2.301220879,0,1,5,3,23,0,1,,,,,,,,,,,,,,
,,,,,,,,,,,right.png,,p,right,61095ad583e96c3096df5b0b,2021-10-27_11h10.34.063,arrow_simon_punish,2021.1.2,Win32,59.98440405,,,,,,,,,,,,,,p,1,1.3326,1.584559875,1,1,6,0,24,1,1,,,,,,,,,,,,,,
,,,,,,,,,,,right.png,,p,right,61095ad583e96c3096df5b0b,2021-10-27_11h10.34.063,arrow_simon_punish,2021.1.2,Win32,59.98440405,,,,,,,,,,,,,,p,1,1.6819,2.398002841,1,1,6,1,25,1,1,,,,,,,,,,,,,,
,,,,,,,,,,,right.png,,p,left,61095ad583e96c3096df5b0b,2021-10-27_11h10.34.063,arrow_simon_punish,2021.1.2,Win32,59.98440405,,,,,,,,,,,,,,p,1,1.3062,1.863571924,1,1,6,2,26,0,1,,,,,,,,,,,,,,
,,,,,,,,,,,left.png,,w,left,61095ad583e96c3096df5b0b,2021-10-27_11h10.34.063,arrow_simon_punish,2021.1.2,Win32,59.98440405,,,,,,,,,,,,,,p,0,1.4476,2.254319977,1,1,6,3,27,2,1,,,,,,,,,,,,,,
,,,,,,,,,,,left.png,,w,right,61095ad583e96c3096df5b0b,2021-10-27_11h10.34.063,arrow_simon_punish,2021.1.2,Win32,59.98440405,,,,,,,,,,,,,,p,0,1.4201,2.471044283,1,1,7,0,28,3,1,,,,,,,,,,,,,,
,,,,,,,,,,,left.png,,w,left,61095ad583e96c3096df5b0b,2021-10-27_11h10.34.063,arrow_simon_punish,2021.1.2,Win32,59.98440405,,,,,,,,,,,,,,p,0,1.3195,2.233420589,1,1,7,1,29,2,1,,,,,,,,,,,,,,
,,,,,,,,,,,left.png,,w,right,61095ad583e96c3096df5b0b,2021-10-27_11h10.34.063,arrow_simon_punish,2021.1.2,Win32,59.98440405,,,,,,,,,,,,,,w,1,1.5382,1.834147774,0,1,7,2,30,3,1,,,,,,,,,,,,,,
,,,,,,,,,,,right.png,,p,right,61095ad583e96c3096df5b0b,2021-10-27_11h10.34.063,arrow_simon_punish,2021.1.2,Win32,59.98440405,,,,,,,,,,,,,,p,1,1.4313,1.748672068,0,1,7,3,31,1,1,,,,,,,,,,,,,,
,,,,,,,,,,,left.png,,w,right,61095ad583e96c3096df5b0b,2021-10-27_11h10.34.063,arrow_simon_punish,2021.1.2,Win32,59.98440405,,,,,,,,,,,,,,p,0,1.7652,2.342456919,1,1,8,0,32,3,1,,,,,,,,,,,,,,
,,,,,,,,,,,left.png,,w,right,61095ad583e96c3096df5b0b,2021-10-27_11h10.34.063,arrow_simon_punish,2021.1.2,Win32,59.98440405,,,,,,,,,,,,,,p,0,1.4766,2.390301636,1,1,8,1,33,3,1,,,,,,,,,,,,,,
,,,,,,,,,,,right.png,,p,right,61095ad583e96c3096df5b0b,2021-10-27_11h10.34.063,arrow_simon_punish,2021.1.2,Win32,59.98440405,,,,,,,,,,,,,,p,1,1.3126,2.102979369,1,1,8,2,34,1,1,,,,,,,,,,,,,,
,,,,,,,,,,,left.png,,w,right,61095ad583e96c3096df5b0b,2021-10-27_11h10.34.063,arrow_simon_punish,2021.1.2,Win32,59.98440405,,,,,,,,,,,,,,p,0,1.3506,1.7545634,1,1,8,3,35,3,1,,,,,,,,,,,,,,
,,,,,,,,,,,left.png,,w,right,61095ad583e96c3096df5b0b,2021-10-27_11h10.34.063,arrow_simon_punish,2021.1.2,Win32,59.98440405,,,,,,,,,,,,,,p,0,1.5228,2.186336152,1,1,9,0,36,3,1,,,,,,,,,,,,,,
,,,,,,,,,,,right.png,,p,right,61095ad583e96c3096df5b0b,2021-10-27_11h10.34.063,arrow_simon_punish,2021.1.2,Win32,59.98440405,,,,,,,,,,,,,,p,1,1.1832,1.91253712,1,1,9,1,37,1,1,,,,,,,,,,,,,,
,,,,,,,,,,,left.png,,w,left,61095ad583e96c3096df5b0b,2021-10-27_11h10.34.063,arrow_simon_punish,2021.1.2,Win32,59.98440405,,,,,,,,,,,,,,w,1,1.7722,2.179847541,1,1,9,2,38,2,1,,,,,,,,,,,,,,
,,,,,,,,,,,left.png,,w,left,61095ad583e96c3096df5b0b,2021-10-27_11h10.34.063,arrow_simon_punish,2021.1.2,Win32,59.98440405,,,,,,,,,,,,,,w,1,1.2339,1.67028622,1,1,9,3,39,2,1,,,,,,,,,,,,,,
,,,,,,,,,,,right.png,,p,right,61095ad583e96c3096df5b0b,2021-10-27_11h10.34.063,arrow_simon_punish,2021.1.2,Win32,59.98440405,,,,,,,,,,,,,,p,1,1.7152,2.499906965,1,1,10,0,40,1,1,,,,,,,,,,,,,,
,,,,,,,,,,,left.png,,w,left,61095ad583e96c3096df5b0b,2021-10-27_11h10.34.063,arrow_simon_punish,2021.1.2,Win32,59.98440405,,,,,,,,,,,,,,p,0,1.4823,1.91552946,1,1,10,1,41,2,1,,,,,,,,,,,,,,
,,,,,,,,,,,left.png,,w,right,61095ad583e96c3096df5b0b,2021-10-27_11h10.34.063,arrow_simon_punish,2021.1.2,Win32,59.98440405,,,,,,,,,,,,,,p,0,1.4092,1.534752449,1,1,10,2,42,3,1,,,,,,,,,,,,,,
,,,,,,,,,,,right.png,,p,left,61095ad583e96c3096df5b0b,2021-10-27_11h10.34.063,arrow_simon_punish,2021.1.2,Win32,59.98440405,,,,,,,,,,,,,,p,1,1.8167,1.870224654,1,1,10,3,43,0,1,,,,,,,,,,,,,,
,,,,,,,,,,,right.png,,p,right,61095ad583e96c3096df5b0b,2021-10-27_11h10.34.063,arrow_simon_punish,2021.1.2,Win32,59.98440405,,,,,,,,,,,,,,p,1,1.2649,1.62373578,1,1,11,0,44,1,1,,,,,,,,,,,,,,
,,,,,,,,,,,left.png,,w,left,61095ad583e96c3096df5b0b,2021-10-27_11h10.34.063,arrow_simon_punish,2021.1.2,Win32,59.98440405,,,,,,,,,,,,,,p,0,1.8845,1.729453188,1,1,11,1,45,2,1,,,,,,,,,,,,,,
,,,,,,,,,,,left.png,,w,left,61095ad583e96c3096df5b0b,2021-10-27_11h10.34.063,arrow_simon_punish,2021.1.2,Win32,59.98440405,,,,,,,,,,,,,,p,0,1.2228,1.747146389,1,1,11,2,46,2,1,,,,,,,,,,,,,,
,,,,,,,,,,,right.png,,p,left,61095ad583e96c3096df5b0b,2021-10-27_11h10.34.063,arrow_simon_punish,2021.1.2,Win32,59.98440405,,,,,,,,,,,,,,p,1,1.3896,1.563778821,1,1,11,3,47,0,1,,,,,,,,,,,,,,
,,,,,,,,,,,left.png,,w,left,61095ad583e96c3096df5b0b,2021-10-27_11h10.34.063,arrow_simon_punish,2021.1.2,Win32,59.98440405,,,,,,,,,,,,,,p,0,1.3726,1.903240111,1,1,12,0,48,2,1,,,,,,,,,,,,,,
,,,,,,,,,,,right.png,,p,right,61095ad583e96c3096df5b0b,2021-10-27_11h10.34.063,arrow_simon_punish,2021.1.2,Win32,59.98440405,,,,,,,,,,,,,,p,1,1.0016,2.277800808,1,1,12,1,49,1,1,,,,,,,,,,,,,,
,,,,,,,,,,,left.png,,w,left,61095ad583e96c3096df5b0b,2021-10-27_11h10.34.063,arrow_simon_punish,2021.1.2,Win32,59.98440405,,,,,,,,,,,,,,p,0,1.5383,1.863025061,1,1,12,2,50,2,1,,,,,,,,,,,,,,
,,,,,,,,,,,right.png,,p,right,61095ad583e96c3096df5b0b,2021-10-27_11h10.34.063,arrow_simon_punish,2021.1.2,Win32,59.98440405,,,,,,,,,,,,,,p,1,1.418,1.910723601,0,1,12,3,51,1,1,,,,,,,,,,,,,,
,,,,,,,,,,,right.png,,p,left,61095ad583e96c3096df5b0b,2021-10-27_11h10.34.063,arrow_simon_punish,2021.1.2,Win32,59.98440405,,,,,,,,,,,,,,p,1,1.233,2.160050167,1,1,13,0,52,0,1,,,,,,,,,,,,,,
,,,,,,,,,,,right.png,,p,left,61095ad583e96c3096df5b0b,2021-10-27_11h10.34.063,arrow_simon_punish,2021.1.2,Win32,59.98440405,,,,,,,,,,,,,,p,1,1.5167,2.107723713,0,1,13,1,53,0,1,,,,,,,,,,,,,,
,,,,,,,,,,,right.png,,p,left,61095ad583e96c3096df5b0b,2021-10-27_11h10.34.063,arrow_simon_punish,2021.1.2,Win32,59.98440405,,,,,,,,,,,,,,p,1,1.346,1.620063027,1,1,13,2,54,0,1,,,,,,,,,,,,,,
,,,,,,,,,,,left.png,,w,left,61095ad583e96c3096df5b0b,2021-10-27_11h10.34.063,arrow_simon_punish,2021.1.2,Win32,59.98440405,,,,,,,,,,,,,,p,0,1.2501,1.96260685,1,1,13,3,55,2,1,,,,,,,,,,,,,,
,,,,,,,,,,,left.png,,w,right,61095ad583e96c3096df5b0b,2021-10-27_11h10.34.063,arrow_simon_punish,2021.1.2,Win32,59.98440405,,,,,,,,,,,,,,p,0,1.7007,2.280493543,1,1,14,0,56,3,1,,,,,,,,,,,,,,
,,,,,,,,,,,right.png,,p,left,61095ad583e96c3096df5b0b,2021-10-27_11h10.34.063,arrow_simon_punish,2021.1.2,Win32,59.98440405,,,,,,,,,,,,,,p,1,1.5175,1.950964955,0,1,14,1,57,0,1,,,,,,,,,,,,,,
,,,,,,,,,,,right.png,,p,left,61095ad583e96c3096df5b0b,2021-10-27_11h10.34.063,arrow_simon_punish,2021.1.2,Win32,59.98440405,,,,,,,,,,,,,,p,1,0.3959,2.183343713,1,1,14,2,58,0,1,,,,,,,,,,,,,,
,,,,,,,,,,,left.png,,w,left,61095ad583e96c3096df5b0b,2021-10-27_11h10.34.063,arrow_simon_punish,2021.1.2,Win32,59.98440405,,,,,,,,,,,,,,p,0,1.7832,1.531163577,1,1,14,3,59,2,1,,,,,,,,,,,,,,
,,,,,,,,,,,,,,,61095ad583e96c3096df5b0b,2021-10-27_11h10.34.063,arrow_simon_punish,2021.1.2,Win32,59.98440405,,,,,,,,,,,,,,,,,,,,,,,,,space,12.6674,2,0,0,0,0,1,1,,,,,
,,,,,,,,,,,left.png,,w,right,61095ad583e96c3096df5b0b,2021-10-27_11h10.34.063,arrow_simon_punish,2021.1.2,Win32,59.98440405,,,,,,,,,,,,,,w,1,1.6017,2.02138184,1,5,0,0,0,3,1,,,,,,,,,,,,,,
,,,,,,,,,,,right.png,,p,right,61095ad583e96c3096df5b0b,2021-10-27_11h10.34.063,arrow_simon_punish,2021.1.2,Win32,59.98440405,,,,,,,,,,,,,,p,1,1.2456,1.711993012,1,5,0,1,1,1,1,,,,,,,,,,,,,,
,,,,,,,,,,,right.png,,p,left,61095ad583e96c3096df5b0b,2021-10-27_11h10.34.063,arrow_simon_punish,2021.1.2,Win32,59.98440405,,,,,,,,,,,,,,w,0,1.5866,2.175357334,1,5,0,2,2,0,1,,,,,,,,,,,,,,
,,,,,,,,,,,left.png,,w,left,61095ad583e96c3096df5b0b,2021-10-27_11h10.34.063,arrow_simon_punish,2021.1.2,Win32,59.98440405,,,,,,,,,,,,,,w,1,1.5845,2.100671127,0,5,0,3,3,2,1,,,,,,,,,,,,,,
,,,,,,,,,,,left.png,,w,right,61095ad583e96c3096df5b0b,2021-10-27_11h10.34.063,arrow_simon_punish,2021.1.2,Win32,59.98440405,,,,,,,,,,,,,,w,1,1.7654,2.205356315,1,5,1,0,4,3,1,,,,,,,,,,,,,,
,,,,,,,,,,,left.png,,w,left,61095ad583e96c3096df5b0b,2021-10-27_11h10.34.063,arrow_simon_punish,2021.1.2,Win32,59.98440405,,,,,,,,,,,,,,w,1,1.784,2.452614519,1,5,1,1,5,2,1,,,,,,,,,,,,,,
,,,,,,,,,,,right.png,,p,left,61095ad583e96c3096df5b0b,2021-10-27_11h10.34.063,arrow_simon_punish,2021.1.2,Win32,59.98440405,,,,,,,,,,,,,,w,0,1.2995,1.890247298,1,5,1,2,6,0,1,,,,,,,,,,,,,,
,,,,,,,,,,,right.png,,p,right,61095ad583e96c3096df5b0b,2021-10-27_11h10.34.063,arrow_simon_punish,2021.1.2,Win32,59.98440405,,,,,,,,,,,,,,p,1,1.1225,1.742296014,1,5,1,3,7,1,1,,,,,,,,,,,,,,
,,,,,,,,,,,right.png,,p,right,61095ad583e96c3096df5b0b,2021-10-27_11h10.34.063,arrow_simon_punish,2021.1.2,Win32,59.98440405,,,,,,,,,,,,,,p,1,0.2652,1.505388515,1,5,2,0,8,1,1,,,,,,,,,,,,,,
,,,,,,,,,,,left.png,,w,left,61095ad583e96c3096df5b0b,2021-10-27_11h10.34.063,arrow_simon_punish,2021.1.2,Win32,59.98440405,,,,,,,,,,,,,,w,1,1.3623,1.705495317,1,5,2,1,9,2,1,,,,,,,,,,,,,,
,,,,,,,,,,,right.png,,p,left,61095ad583e96c3096df5b0b,2021-10-27_11h10.34.063,arrow_simon_punish,2021.1.2,Win32,59.98440405,,,,,,,,,,,,,,p,1,1.433,1.930684607,0,5,2,2,10,0,1,,,,,,,,,,,,,,
,,,,,,,,,,,right.png,,p,left,61095ad583e96c3096df5b0b,2021-10-27_11h10.34.063,arrow_simon_punish,2021.1.2,Win32,59.98440405,,,,,,,,,,,,,,p,1,1.104,1.525400343,1,5,2,3,11,0,1,,,,,,,,,,,,,,
,,,,,,,,,,,left.png,,w,left,61095ad583e96c3096df5b0b,2021-10-27_11h10.34.063,arrow_simon_punish,2021.1.2,Win32,59.98440405,,,,,,,,,,,,,,w,1,2.3325,2.301045692,1,5,3,0,12,2,1,,,,,,,,,,,,,,
,,,,,,,,,,,left.png,,w,right,61095ad583e96c3096df5b0b,2021-10-27_11h10.34.063,arrow_simon_punish,2021.1.2,Win32,59.98440405,,,,,,,,,,,,,,w,1,1.5838,1.856794447,0,5,3,1,13,3,1,,,,,,,,,,,,,,
,,,,,,,,,,,left.png,,w,left,61095ad583e96c3096df5b0b,2021-10-27_11h10.34.063,arrow_simon_punish,2021.1.2,Win32,59.98440405,,,,,,,,,,,,,,w,1,1.0744,1.531122289,1,5,3,2,14,2,1,,,,,,,,,,,,,,
,,,,,,,,,,,right.png,,p,right,61095ad583e96c3096df5b0b,2021-10-27_11h10.34.063,arrow_simon_punish,2021.1.2,Win32,59.98440405,,,,,,,,,,,,,,p,1,1.2067,1.69915726,1,5,3,3,15,1,1,,,,,,,,,,,,,,
,,,,,,,,,,,left.png,,w,left,61095ad583e96c3096df5b0b,2021-10-27_11h10.34.063,arrow_simon_punish,2021.1.2,Win32,59.98440405,,,,,,,,,,,,,,w,1,1.5658,1.583923846,0,5,4,0,16,2,1,,,,,,,,,,,,,,
,,,,,,,,,,,right.png,,p,right,61095ad583e96c3096df5b0b,2021-10-27_11h10.34.063,arrow_simon_punish,2021.1.2,Win32,59.98440405,,,,,,,,,,,,,,p,1,1.1748,1.730887627,1,5,4,1,17,1,1,,,,,,,,,,,,,,
,,,,,,,,,,,left.png,,w,left,61095ad583e96c3096df5b0b,2021-10-27_11h10.34.063,arrow_simon_punish,2021.1.2,Win32,59.98440405,,,,,,,,,,,,,,w,1,1.6642,2.22350476,1,5,4,2,18,2,1,,,,,,,,,,,,,,
,,,,,,,,,,,left.png,,w,right,61095ad583e96c3096df5b0b,2021-10-27_11h10.34.063,arrow_simon_punish,2021.1.2,Win32,59.98440405,,,,,,,,,,,,,,w,1,1.5071,1.672977829,0,5,4,3,19,3,1,,,,,,,,,,,,,,
,,,,,,,,,,,right.png,,p,left,61095ad583e96c3096df5b0b,2021-10-27_11h10.34.063,arrow_simon_punish,2021.1.2,Win32,59.98440405,,,,,,,,,,,,,,p,1,1.9677,2.442641609,1,5,5,0,20,0,1,,,,,,,,,,,,,,
,,,,,,,,,,,right.png,,p,left,61095ad583e96c3096df5b0b,2021-10-27_11h10.34.063,arrow_simon_punish,2021.1.2,Win32,59.98440405,,,,,,,,,,,,,,p,1,1.4926,1.901101086,0,5,5,1,21,0,1,,,,,,,,,,,,,,
,,,,,,,,,,,right.png,,p,right,61095ad583e96c3096df5b0b,2021-10-27_11h10.34.063,arrow_simon_punish,2021.1.2,Win32,59.98440405,,,,,,,,,,,,,,p,1,1.3917,1.783505211,1,5,5,2,22,1,1,,,,,,,,,,,,,,
,,,,,,,,,,,left.png,,w,right,61095ad583e96c3096df5b0b,2021-10-27_11h10.34.063,arrow_simon_punish,2021.1.2,Win32,59.98440405,,,,,,,,,,,,,,p,0,1.617,2.18854204,1,5,5,3,23,3,1,,,,,,,,,,,,,,
,,,,,,,,,,,left.png,,w,right,61095ad583e96c3096df5b0b,2021-10-27_11h10.34.063,arrow_simon_punish,2021.1.2,Win32,59.98440405,,,,,,,,,,,,,,w,1,1.4693,1.529787756,0,5,6,0,24,3,1,,,,,,,,,,,,,,
,,,,,,,,,,,left.png,,w,left,61095ad583e96c3096df5b0b,2021-10-27_11h10.34.063,arrow_simon_punish,2021.1.2,Win32,59.98440405,,,,,,,,,,,,,,w,1,1.5943,1.851864824,0,5,6,1,25,2,1,,,,,,,,,,,,,,
,,,,,,,,,,,left.png,,w,right,61095ad583e96c3096df5b0b,2021-10-27_11h10.34.063,arrow_simon_punish,2021.1.2,Win32,59.98440405,,,,,,,,,,,,,,w,1,1.4975,2.030144304,0,5,6,2,26,3,1,,,,,,,,,,,,,,
,,,,,,,,,,,right.png,,p,right,61095ad583e96c3096df5b0b,2021-10-27_11h10.34.063,arrow_simon_punish,2021.1.2,Win32,59.98440405,,,,,,,,,,,,,,p,1,1.3335,1.604305144,1,5,6,3,27,1,1,,,,,,,,,,,,,,
,,,,,,,,,,,right.png,,p,right,61095ad583e96c3096df5b0b,2021-10-27_11h10.34.063,arrow_simon_punish,2021.1.2,Win32,59.98440405,,,,,,,,,,,,,,p,1,1.6776,2.316977664,1,5,7,0,28,1,1,,,,,,,,,,,,,,
,,,,,,,,,,,right.png,,p,right,61095ad583e96c3096df5b0b,2021-10-27_11h10.34.063,arrow_simon_punish,2021.1.2,Win32,59.98440405,,,,,,,,,,,,,,p,1,1.2093,1.912303744,1,5,7,1,29,1,1,,,,,,,,,,,,,,
,,,,,,,,,,,left.png,,w,right,61095ad583e96c3096df5b0b,2021-10-27_11h10.34.063,arrow_simon_punish,2021.1.2,Win32,59.98440405,,,,,,,,,,,,,,p,0,1.198,1.708459239,1,5,7,2,30,3,1,,,,,,,,,,,,,,
,,,,,,,,,,,left.png,,w,left,61095ad583e96c3096df5b0b,2021-10-27_11h10.34.063,arrow_simon_punish,2021.1.2,Win32,59.98440405,,,,,,,,,,,,,,p,0,1.6004,2.132608851,1,5,7,3,31,2,1,,,,,,,,,,,,,,
,,,,,,,,,,,right.png,,p,right,61095ad583e96c3096df5b0b,2021-10-27_11h10.34.063,arrow_simon_punish,2021.1.2,Win32,59.98440405,,,,,,,,,,,,,,p,1,1.4412,2.088289676,0,5,8,0,32,1,1,,,,,,,,,,,,,,
,,,,,,,,,,,left.png,,w,right,61095ad583e96c3096df5b0b,2021-10-27_11h10.34.063,arrow_simon_punish,2021.1.2,Win32,59.98440405,,,,,,,,,,,,,,p,0,1.3491,1.967149577,1,5,8,1,33,3,1,,,,,,,,,,,,,,
,,,,,,,,,,,left.png,,w,left,61095ad583e96c3096df5b0b,2021-10-27_11h10.34.063,arrow_simon_punish,2021.1.2,Win32,59.98440405,,,,,,,,,,,,,,w,1,2.1814,2.269023889,1,5,8,2,34,2,1,,,,,,,,,,,,,,
,,,,,,,,,,,right.png,,p,left,61095ad583e96c3096df5b0b,2021-10-27_11h10.34.063,arrow_simon_punish,2021.1.2,Win32,59.98440405,,,,,,,,,,,,,,p,1,1.5502,1.994972025,0,5,8,3,35,0,1,,,,,,,,,,,,,,
,,,,,,,,,,,left.png,,w,right,61095ad583e96c3096df5b0b,2021-10-27_11h10.34.063,arrow_simon_punish,2021.1.2,Win32,59.98440405,,,,,,,,,,,,,,w,1,1.4675,1.991398543,0,5,9,0,36,3,1,,,,,,,,,,,,,,
,,,,,,,,,,,left.png,,w,right,61095ad583e96c3096df5b0b,2021-10-27_11h10.34.063,arrow_simon_punish,2021.1.2,Win32,59.98440405,,,,,,,,,,,,,,w,1,1.6991,1.544909471,1,5,9,1,37,3,1,,,,,,,,,,,,,,
,,,,,,,,,,,right.png,,p,left,61095ad583e96c3096df5b0b,2021-10-27_11h10.34.063,arrow_simon_punish,2021.1.2,Win32,59.98440405,,,,,,,,,,,,,,p,1,1.5335,2.001233671,0,5,9,2,38,0,1,,,,,,,,,,,,,,
,,,,,,,,,,,right.png,,p,left,61095ad583e96c3096df5b0b,2021-10-27_11h10.34.063,arrow_simon_punish,2021.1.2,Win32,59.98440405,,,,,,,,,,,,,,p,1,1.8402,2.348002349,1,5,9,3,39,0,1,,,,,,,,,,,,,,
,,,,,,,,,,,left.png,,w,left,61095ad583e96c3096df5b0b,2021-10-27_11h10.34.063,arrow_simon_punish,2021.1.2,Win32,59.98440405,,,,,,,,,,,,,,w,1,1.6432,2.011705211,1,5,10,0,40,2,1,,,,,,,,,,,,,,
,,,,,,,,,,,left.png,,w,left,61095ad583e96c3096df5b0b,2021-10-27_11h10.34.063,arrow_simon_punish,2021.1.2,Win32,59.98440405,,,,,,,,,,,,,,w,1,1.7013,2.142788041,1,5,10,1,41,2,1,,,,,,,,,,,,,,
,,,,,,,,,,,right.png,,p,left,61095ad583e96c3096df5b0b,2021-10-27_11h10.34.063,arrow_simon_punish,2021.1.2,Win32,59.98440405,,,,,,,,,,,,,,p,1,1.7654,2.271371595,1,5,10,2,42,0,1,,,,,,,,,,,,,,
,,,,,,,,,,,right.png,,p,left,61095ad583e96c3096df5b0b,2021-10-27_11h10.34.063,arrow_simon_punish,2021.1.2,Win32,59.98440405,,,,,,,,,,,,,,p,1,1.1004,1.526410599,1,5,10,3,43,0,1,,,,,,,,,,,,,,
,,,,,,,,,,,left.png,,w,right,61095ad583e96c3096df5b0b,2021-10-27_11h10.34.063,arrow_simon_punish,2021.1.2,Win32,59.98440405,,,,,,,,,,,,,,w,1,1.2184,1.526577113,1,5,11,0,44,3,1,,,,,,,,,,,,,,
,,,,,,,,,,,right.png,,p,left,61095ad583e96c3096df5b0b,2021-10-27_11h10.34.063,arrow_simon_punish,2021.1.2,Win32,59.98440405,,,,,,,,,,,,,,p,1,1.3983,1.864540922,1,5,11,1,45,0,1,,,,,,,,,,,,,,
,,,,,,,,,,,left.png,,w,right,61095ad583e96c3096df5b0b,2021-10-27_11h10.34.063,arrow_simon_punish,2021.1.2,Win32,59.98440405,,,,,,,,,,,,,,w,1,1.85,2.216054934,1,5,11,2,46,3,1,,,,,,,,,,,,,,
,,,,,,,,,,,left.png,,w,left,61095ad583e96c3096df5b0b,2021-10-27_11h10.34.063,arrow_simon_punish,2021.1.2,Win32,59.98440405,,,,,,,,,,,,,,p,0,1.573,2.117967981,1,5,11,3,47,2,1,,,,,,,,,,,,,,
,,,,,,,,,,,left.png,,w,left,61095ad583e96c3096df5b0b,2021-10-27_11h10.34.063,arrow_simon_punish,2021.1.2,Win32,59.98440405,,,,,,,,,,,,,,w,1,1.8747,2.343202331,1,5,12,0,48,2,1,,,,,,,,,,,,,,
,,,,,,,,,,,right.png,,p,right,61095ad583e96c3096df5b0b,2021-10-27_11h10.34.063,arrow_simon_punish,2021.1.2,Win32,59.98440405,,,,,,,,,,,,,,p,1,1.839,2.271469951,1,5,12,1,49,1,1,,,,,,,,,,,,,,
,,,,,,,,,,,right.png,,p,right,61095ad583e96c3096df5b0b,2021-10-27_11h10.34.063,arrow_simon_punish,2021.1.2,Win32,59.98440405,,,,,,,,,,,,,,p,1,2.3324,2.196178493,1,5,12,2,50,1,1,,,,,,,,,,,,,,
,,,,,,,,,,,right.png,,p,left,61095ad583e96c3096df5b0b,2021-10-27_11h10.34.063,arrow_simon_punish,2021.1.2,Win32,59.98440405,,,,,,,,,,,,,,p,1,1.5644,1.921739993,0,5,12,3,51,0,1,,,,,,,,,,,,,,
,,,,,,,,,,,right.png,,p,right,61095ad583e96c3096df5b0b,2021-10-27_11h10.34.063,arrow_simon_punish,2021.1.2,Win32,59.98440405,,,,,,,,,,,,,,w,0,1.3991,1.884053465,1,5,13,0,52,1,1,,,,,,,,,,,,,,
,,,,,,,,,,,left.png,,w,right,61095ad583e96c3096df5b0b,2021-10-27_11h10.34.063,arrow_simon_punish,2021.1.2,Win32,59.98440405,,,,,,,,,,,,,,w,1,1.7475,1.708071063,1,5,13,1,53,3,1,,,,,,,,,,,,,,
,,,,,,,,,,,right.png,,p,right,61095ad583e96c3096df5b0b,2021-10-27_11h10.34.063,arrow_simon_punish,2021.1.2,Win32,59.98440405,,,,,,,,,,,,,,p,1,1.1038,1.565818947,1,5,13,2,54,1,1,,,,,,,,,,,,,,
,,,,,,,,,,,left.png,,w,right,61095ad583e96c3096df5b0b,2021-10-27_11h10.34.063,arrow_simon_punish,2021.1.2,Win32,59.98440405,,,,,,,,,,,,,,p,0,1.4167,2.433424245,1,5,13,3,55,3,1,,,,,,,,,,,,,,
,,,,,,,,,,,right.png,,p,left,61095ad583e96c3096df5b0b,2021-10-27_11h10.34.063,arrow_simon_punish,2021.1.2,Win32,59.98440405,,,,,,,,,,,,,,p,1,1.9443,1.515902631,1,5,14,0,56,0,1,,,,,,,,,,,,,,
,,,,,,,,,,,right.png,,p,left,61095ad583e96c3096df5b0b,2021-10-27_11h10.34.063,arrow_simon_punish,2021.1.2,Win32,59.98440405,,,,,,,,,,,,,,p,1,1.2483,2.443568595,1,5,14,1,57,0,1,,,,,,,,,,,,,,
,,,,,,,,,,,right.png,,p,right,61095ad583e96c3096df5b0b,2021-10-27_11h10.34.063,arrow_simon_punish,2021.1.2,Win32,59.98440405,,,,,,,,,,,,,,p,1,1.4352,1.869234132,0,5,14,2,58,1,1,,,,,,,,,,,,,,
,,,,,,,,,,,left.png,,w,left,61095ad583e96c3096df5b0b,2021-10-27_11h10.34.063,arrow_simon_punish,2021.1.2,Win32,59.98440405,,,,,,,,,,,,,,w,1,1.5992,1.561556634,0,5,14,3,59,2,1,,,,,,,,,,,,,,
,,,,,,,,,,,,,,,61095ad583e96c3096df5b0b,2021-10-27_11h10.34.063,arrow_simon_punish,2021.1.2,Win32,59.98440405,,,,,,,,,,,,,,,,,,,,,,,,,space,84.5483,3,0,1,1,1,1,5,,,,,
,,,,,,,,,,,left.png,,w,right,61095ad583e96c3096df5b0b,2021-10-27_11h10.34.063,arrow_simon_punish,2021.1.2,Win32,59.98440405,,,,,,,,,,,,,,p,0,1.6858,1.668933204,1,1,0,0,0,3,1,,,,,,,,,,,,,,
,,,,,,,,,,,left.png,,w,right,61095ad583e96c3096df5b0b,2021-10-27_11h10.34.063,arrow_simon_punish,2021.1.2,Win32,59.98440405,,,,,,,,,,,,,,w,1,1.938,2.454394269,1,1,0,1,1,3,1,,,,,,,,,,,,,,
,,,,,,,,,,,left.png,,w,left,61095ad583e96c3096df5b0b,2021-10-27_11h10.34.063,arrow_simon_punish,2021.1.2,Win32,59.98440405,,,,,,,,,,,,,,w,1,1.2512,1.871179391,1,1,0,2,2,2,1,,,,,,,,,,,,,,
,,,,,,,,,,,right.png,,p,left,61095ad583e96c3096df5b0b,2021-10-27_11h10.34.063,arrow_simon_punish,2021.1.2,Win32,59.98440405,,,,,,,,,,,,,,p,1,2.087,2.491537934,1,1,0,3,3,0,1,,,,,,,,,,,,,,
,,,,,,,,,,,right.png,,p,right,61095ad583e96c3096df5b0b,2021-10-27_11h10.34.063,arrow_simon_punish,2021.1.2,Win32,59.98440405,,,,,,,,,,,,,,w,0,1.6501,2.114117131,1,1,1,0,4,1,1,,,,,,,,,,,,,,
,,,,,,,,,,,right.png,,p,left,61095ad583e96c3096df5b0b,2021-10-27_11h10.34.063,arrow_simon_punish,2021.1.2,Win32,59.98440405,,,,,,,,,,,,,,w,0,2.2712,2.244275712,1,1,1,1,5,0,1,,,,,,,,,,,,,,
,,,,,,,,,,,right.png,,p,left,61095ad583e96c3096df5b0b,2021-10-27_11h10.34.063,arrow_simon_punish,2021.1.2,Win32,59.98440405,,,,,,,,,,,,,,w,0,2.1009,2.086647836,1,1,1,2,6,0,1,,,,,,,,,,,,,,
,,,,,,,,,,,right.png,,p,right,61095ad583e96c3096df5b0b,2021-10-27_11h10.34.063,arrow_simon_punish,2021.1.2,Win32,59.98440405,,,,,,,,,,,,,,p,1,1.9256,1.783446129,1,1,1,3,7,1,1,,,,,,,,,,,,,,
,,,,,,,,,,,right.png,,p,left,61095ad583e96c3096df5b0b,2021-10-27_11h10.34.063,arrow_simon_punish,2021.1.2,Win32,59.98440405,,,,,,,,,,,,,,p,1,3.034,1.61015084,1,1,2,0,8,0,1,,,,,,,,,,,,,,
,,,,,,,,,,,right.png,,p,left,61095ad583e96c3096df5b0b,2021-10-27_11h10.34.063,arrow_simon_punish,2021.1.2,Win32,59.98440405,,,,,,,,,,,,,,w,0,2.2535,1.601954999,1,1,2,1,9,0,1,,,,,,,,,,,,,,
,,,,,,,,,,,left.png,,w,left,61095ad583e96c3096df5b0b,2021-10-27_11h10.34.063,arrow_simon_punish,2021.1.2,Win32,59.98440405,,,,,,,,,,,,,,w,1,1.5943,1.967586627,0,1,2,2,10,2,1,,,,,,,,,,,,,,
,,,,,,,,,,,left.png,,w,right,61095ad583e96c3096df5b0b,2021-10-27_11h10.34.063,arrow_simon_punish,2021.1.2,Win32,59.98440405,,,,,,,,,,,,,,w,1,3.7613,2.091531182,1,1,2,3,11,3,1,,,,,,,,,,,,,,
,,,,,,,,,,,left.png,,w,left,61095ad583e96c3096df5b0b,2021-10-27_11h10.34.063,arrow_simon_punish,2021.1.2,Win32,59.98440405,,,,,,,,,,,,,,w,1,1.8263,1.832144229,1,1,3,0,12,2,1,,,,,,,,,,,,,,
,,,,,,,,,,,left.png,,w,left,61095ad583e96c3096df5b0b,2021-10-27_11h10.34.063,arrow_simon_punish,2021.1.2,Win32,59.98440405,,,,,,,,,,,,,,w,1,1.7363,2.245693598,1,1,3,1,13,2,1,,,,,,,,,,,,,,
,,,,,,,,,,,right.png,,p,left,61095ad583e96c3096df5b0b,2021-10-27_11h10.34.063,arrow_simon_punish,2021.1.2,Win32,59.98440405,,,,,,,,,,,,,,p,1,1.9696,2.42134957,1,1,3,2,14,0,1,,,,,,,,,,,,,,
,,,,,,,,,,,left.png,,w,right,61095ad583e96c3096df5b0b,2021-10-27_11h10.34.063,arrow_simon_punish,2021.1.2,Win32,59.98440405,,,,,,,,,,,,,,p,0,1.4276,1.700341393,1,1,3,3,15,3,1,,,,,,,,,,,,,,
,,,,,,,,,,,right.png,,p,left,61095ad583e96c3096df5b0b,2021-10-27_11h10.34.063,arrow_simon_punish,2021.1.2,Win32,59.98440405,,,,,,,,,,,,,,p,1,1.407,2.306010066,0,1,4,0,16,0,1,,,,,,,,,,,,,,
,,,,,,,,,,,left.png,,w,left,61095ad583e96c3096df5b0b,2021-10-27_11h10.34.063,arrow_simon_punish,2021.1.2,Win32,59.98440405,,,,,,,,,,,,,,w,1,1.3509,1.80876189,1,1,4,1,17,2,1,,,,,,,,,,,,,,
,,,,,,,,,,,left.png,,w,right,61095ad583e96c3096df5b0b,2021-10-27_11h10.34.063,arrow_simon_punish,2021.1.2,Win32,59.98440405,,,,,,,,,,,,,,w,1,1.3511,1.665052183,1,1,4,2,18,3,1,,,,,,,,,,,,,,
,,,,,,,,,,,left.png,,w,left,61095ad583e96c3096df5b0b,2021-10-27_11h10.34.063,arrow_simon_punish,2021.1.2,Win32,59.98440405,,,,,,,,,,,,,,w,1,1.3509,1.853180233,1,1,4,3,19,2,1,,,,,,,,,,,,,,
,,,,,,,,,,,right.png,,p,left,61095ad583e96c3096df5b0b,2021-10-27_11h10.34.063,arrow_simon_punish,2021.1.2,Win32,59.98440405,,,,,,,,,,,,,,w,0,1.5758,2.263247705,1,1,5,0,20,0,1,,,,,,,,,,,,,,
,,,,,,,,,,,right.png,,p,right,61095ad583e96c3096df5b0b,2021-10-27_11h10.34.063,arrow_simon_punish,2021.1.2,Win32,59.98440405,,,,,,,,,,,,,,p,1,1.5918,2.100451528,0,1,5,1,21,1,1,,,,,,,,,,,,,,
,,,,,,,,,,,left.png,,w,right,61095ad583e96c3096df5b0b,2021-10-27_11h10.34.063,arrow_simon_punish,2021.1.2,Win32,59.98440405,,,,,,,,,,,,,,w,1,1.3594,1.778312573,1,1,5,2,22,3,1,,,,,,,,,,,,,,
,,,,,,,,,,,left.png,,w,right,61095ad583e96c3096df5b0b,2021-10-27_11h10.34.063,arrow_simon_punish,2021.1.2,Win32,59.98440405,,,,,,,,,,,,,,w,1,1.5521,2.022573789,0,1,5,3,23,3,1,,,,,,,,,,,,,,
,,,,,,,,,,,left.png,,w,left,61095ad583e96c3096df5b0b,2021-10-27_11h10.34.063,arrow_simon_punish,2021.1.2,Win32,59.98440405,,,,,,,,,,,,,,w,1,1.2721,1.825619603,1,1,6,0,24,2,1,,,,,,,,,,,,,,
,,,,,,,,,,,left.png,,w,right,61095ad583e96c3096df5b0b,2021-10-27_11h10.34.063,arrow_simon_punish,2021.1.2,Win32,59.98440405,,,,,,,,,,,,,,w,1,1.2005,1.757077022,1,1,6,1,25,3,1,,,,,,,,,,,,,,
,,,,,,,,,,,right.png,,p,right,61095ad583e96c3096df5b0b,2021-10-27_11h10.34.063,arrow_simon_punish,2021.1.2,Win32,59.98440405,,,,,,,,,,,,,,p,1,1.4276,1.89762413,0,1,6,2,26,1,1,,,,,,,,,,,,,,
,,,,,,,,,,,left.png,,w,left,61095ad583e96c3096df5b0b,2021-10-27_11h10.34.063,arrow_simon_punish,2021.1.2,Win32,59.98440405,,,,,,,,,,,,,,w,1,1.3546,1.984802813,1,1,6,3,27,2,1,,,,,,,,,,,,,,
,,,,,,,,,,,left.png,,w,right,61095ad583e96c3096df5b0b,2021-10-27_11h10.34.063,arrow_simon_punish,2021.1.2,Win32,59.98440405,,,,,,,,,,,,,,w,1,1.7055,2.208425954,1,1,7,0,28,3,1,,,,,,,,,,,,,,
,,,,,,,,,,,right.png,,p,right,61095ad583e96c3096df5b0b,2021-10-27_11h10.34.063,arrow_simon_punish,2021.1.2,Win32,59.98440405,,,,,,,,,,,,,,p,1,1.0606,1.583241887,1,1,7,1,29,1,1,,,,,,,,,,,,,,
,,,,,,,,,,,left.png,,w,right,61095ad583e96c3096df5b0b,2021-10-27_11h10.34.063,arrow_simon_punish,2021.1.2,Win32,59.98440405,,,,,,,,,,,,,,p,0,1.5645,2.254148611,1,1,7,2,30,3,1,,,,,,,,,,,,,,
,,,,,,,,,,,left.png,,w,right,61095ad583e96c3096df5b0b,2021-10-27_11h10.34.063,arrow_simon_punish,2021.1.2,Win32,59.98440405,,,,,,,,,,,,,,p,0,1.0842,1.663503295,1,1,7,3,31,3,1,,,,,,,,,,,,,,
,,,,,,,,,,,right.png,,p,left,61095ad583e96c3096df5b0b,2021-10-27_11h10.34.063,arrow_simon_punish,2021.1.2,Win32,59.98440405,,,,,,,,,,,,,,p,1,1.4689,1.917052743,0,1,8,0,32,0,1,,,,,,,,,,,,,,
,,,,,,,,,,,left.png,,w,right,61095ad583e96c3096df5b0b,2021-10-27_11h10.34.063,arrow_simon_punish,2021.1.2,Win32,59.98440405,,,,,,,,,,,,,,w,1,1.7535,2.170980914,1,1,8,1,33,3,1,,,,,,,,,,,,,,
,,,,,,,,,,,left.png,,w,left,61095ad583e96c3096df5b0b,2021-10-27_11h10.34.063,arrow_simon_punish,2021.1.2,Win32,59.98440405,,,,,,,,,,,,,,w,1,1.5157,1.507364357,0,1,8,2,34,2,1,,,,,,,,,,,,,,
,,,,,,,,,,,left.png,,w,right,61095ad583e96c3096df5b0b,2021-10-27_11h10.34.063,arrow_simon_punish,2021.1.2,Win32,59.98440405,,,,,,,,,,,,,,w,1,1.6771,1.848407671,1,1,8,3,35,3,1,,,,,,,,,,,,,,
,,,,,,,,,,,left.png,,w,left,61095ad583e96c3096df5b0b,2021-10-27_11h10.34.063,arrow_simon_punish,2021.1.2,Win32,59.98440405,,,,,,,,,,,,,,w,1,1.9445,2.354788786,1,1,9,0,36,2,1,,,,,,,,,,,,,,
,,,,,,,,,,,right.png,,p,left,61095ad583e96c3096df5b0b,2021-10-27_11h10.34.063,arrow_simon_punish,2021.1.2,Win32,59.98440405,,,,,,,,,,,,,,p,1,1.1622,1.67658768,1,1,9,1,37,0,1,,,,,,,,,,,,,,
,,,,,,,,,,,right.png,,p,left,61095ad583e96c3096df5b0b,2021-10-27_11h10.34.063,arrow_simon_punish,2021.1.2,Win32,59.98440405,,,,,,,,,,,,,,p,1,1.9897,1.941505212,1,1,9,2,38,0,1,,,,,,,,,,,,,,
,,,,,,,,,,,right.png,,p,right,61095ad583e96c3096df5b0b,2021-10-27_11h10.34.063,arrow_simon_punish,2021.1.2,Win32,59.98440405,,,,,,,,,,,,,,p,1,1.0709,1.512485417,1,1,9,3,39,1,1,,,,,,,,,,,,,,
,,,,,,,,,,,left.png,,w,left,61095ad583e96c3096df5b0b,2021-10-27_11h10.34.063,arrow_simon_punish,2021.1.2,Win32,59.98440405,,,,,,,,,,,,,,w,1,1.4062,2.023711079,0,1,10,0,40,2,1,,,,,,,,,,,,,,
,,,,,,,,,,,right.png,,p,right,61095ad583e96c3096df5b0b,2021-10-27_11h10.34.063,arrow_simon_punish,2021.1.2,Win32,59.98440405,,,,,,,,,,,,,,p,1,1.7079,2.403298436,1,1,10,1,41,1,1,,,,,,,,,,,,,,
,,,,,,,,,,,right.png,,p,right,61095ad583e96c3096df5b0b,2021-10-27_11h10.34.063,arrow_simon_punish,2021.1.2,Win32,59.98440405,,,,,,,,,,,,,,p,1,1.3683,1.671815075,1,1,10,2,42,1,1,,,,,,,,,,,,,,
,,,,,,,,,,,left.png,,w,right,61095ad583e96c3096df5b0b,2021-10-27_11h10.34.063,arrow_simon_punish,2021.1.2,Win32,59.98440405,,,,,,,,,,,,,,w,1,1.3755,1.85658377,1,1,10,3,43,3,1,,,,,,,,,,,,,,
,,,,,,,,,,,right.png,,p,right,61095ad583e96c3096df5b0b,2021-10-27_11h10.34.063,arrow_simon_punish,2021.1.2,Win32,59.98440405,,,,,,,,,,,,,,p,1,1.551,2.145542487,0,1,11,0,44,1,1,,,,,,,,,,,,,,
,,,,,,,,,,,left.png,,w,left,61095ad583e96c3096df5b0b,2021-10-27_11h10.34.063,arrow_simon_punish,2021.1.2,Win32,59.98440405,,,,,,,,,,,,,,w,1,1.6175,2.04230717,1,1,11,1,45,2,1,,,,,,,,,,,,,,
,,,,,,,,,,,left.png,,w,left,61095ad583e96c3096df5b0b,2021-10-27_11h10.34.063,arrow_simon_punish,2021.1.2,Win32,59.98440405,,,,,,,,,,,,,,w,1,1.534,2.185181823,0,1,11,2,46,2,1,,,,,,,,,,,,,,
,,,,,,,,,,,right.png,,p,right,61095ad583e96c3096df5b0b,2021-10-27_11h10.34.063,arrow_simon_punish,2021.1.2,Win32,59.98440405,,,,,,,,,,,,,,p,1,1.5275,2.479648829,0,1,11,3,47,1,1,,,,,,,,,,,,,,
,,,,,,,,,,,right.png,,p,right,61095ad583e96c3096df5b0b,2021-10-27_11h10.34.063,arrow_simon_punish,2021.1.2,Win32,59.98440405,,,,,,,,,,,,,,p,1,1.1935,1.815880715,1,1,12,0,48,1,1,,,,,,,,,,,,,,
,,,,,,,,,,,right.png,,p,left,61095ad583e96c3096df5b0b,2021-10-27_11h10.34.063,arrow_simon_punish,2021.1.2,Win32,59.98440405,,,,,,,,,,,,,,p,1,1.6087,2.130579945,1,1,12,1,49,0,1,,,,,,,,,,,,,,
,,,,,,,,,,,right.png,,p,right,61095ad583e96c3096df5b0b,2021-10-27_11h10.34.063,arrow_simon_punish,2021.1.2,Win32,59.98440405,,,,,,,,,,,,,,p,1,1.3274,1.981618695,1,1,12,2,50,1,1,,,,,,,,,,,,,,
,,,,,,,,,,,right.png,,p,right,61095ad583e96c3096df5b0b,2021-10-27_11h10.34.063,arrow_simon_punish,2021.1.2,Win32,59.98440405,,,,,,,,,,,,,,p,1,1.2348,1.817468499,1,1,12,3,51,1,1,,,,,,,,,,,,,,
,,,,,,,,,,,right.png,,p,left,61095ad583e96c3096df5b0b,2021-10-27_11h10.34.063,arrow_simon_punish,2021.1.2,Win32,59.98440405,,,,,,,,,,,,,,p,1,1.8343,1.966583087,1,1,13,0,52,0,1,,,,,,,,,,,,,,
,,,,,,,,,,,right.png,,p,left,61095ad583e96c3096df5b0b,2021-10-27_11h10.34.063,arrow_simon_punish,2021.1.2,Win32,59.98440405,,,,,,,,,,,,,,p,1,1.1837,1.970453643,1,1,13,1,53,0,1,,,,,,,,,,,,,,
,,,,,,,,,,,left.png,,w,left,61095ad583e96c3096df5b0b,2021-10-27_11h10.34.063,arrow_simon_punish,2021.1.2,Win32,59.98440405,,,,,,,,,,,,,,p,0,1.7094,2.455566088,1,1,13,2,54,2,1,,,,,,,,,,,,,,
,,,,,,,,,,,right.png,,p,right,61095ad583e96c3096df5b0b,2021-10-27_11h10.34.063,arrow_simon_punish,2021.1.2,Win32,59.98440405,,,,,,,,,,,,,,p,1,1.8554,2.366582332,1,1,13,3,55,1,1,,,,,,,,,,,,,,
,,,,,,,,,,,left.png,,w,left,61095ad583e96c3096df5b0b,2021-10-27_11h10.34.063,arrow_simon_punish,2021.1.2,Win32,59.98440405,,,,,,,,,,,,,,w,1,1.4421,1.963634701,0,1,14,0,56,2,1,,,,,,,,,,,,,,
,,,,,,,,,,,right.png,,p,left,61095ad583e96c3096df5b0b,2021-10-27_11h10.34.063,arrow_simon_punish,2021.1.2,Win32,59.98440405,,,,,,,,,,,,,,p,1,1.5606,1.957402237,0,1,14,1,57,0,1,,,,,,,,,,,,,,
,,,,,,,,,,,left.png,,w,right,61095ad583e96c3096df5b0b,2021-10-27_11h10.34.063,arrow_simon_punish,2021.1.2,Win32,59.98440405,,,,,,,,,,,,,,p,0,1.3383,2.023239808,1,1,14,2,58,3,1,,,,,,,,,,,,,,
,,,,,,,,,,,right.png,,p,right,61095ad583e96c3096df5b0b,2021-10-27_11h10.34.063,arrow_simon_punish,2021.1.2,Win32,59.98440405,,,,,,,,,,,,,,p,1,1.3167,1.949810397,1,1,14,3,59,1,1,,,,,,,,,,,,,,
,,,,,,,,,,,,,,,61095ad583e96c3096df5b0b,2021-10-27_11h10.34.063,arrow_simon_punish,2021.1.2,Win32,59.98440405,,,,,,,,,,,,,,,,,,,,,,,,,space,19.5224,4,1,0,2,0,1,1,,,,,
,,,,,,,,,,,right.png,,p,right,61095ad583e96c3096df5b0b,2021-10-27_11h10.34.063,arrow_simon_punish,2021.1.2,Win32,59.98440405,,,,,,,,,,,,,,p,1,1.1835,1.584809631,1,5,0,0,0,1,1,,,,,,,,,,,,,,
,,,,,,,,,,,left.png,,w,right,61095ad583e96c3096df5b0b,2021-10-27_11h10.34.063,arrow_simon_punish,2021.1.2,Win32,59.98440405,,,,,,,,,,,,,,p,0,0.1181,1.548845791,1,5,0,1,1,3,1,,,,,,,,,,,,,,
,,,,,,,,,,,right.png,,p,right,61095ad583e96c3096df5b0b,2021-10-27_11h10.34.063,arrow_simon_punish,2021.1.2,Win32,59.98440405,,,,,,,,,,,,,,p,1,1.0396,1.680755218,1,5,0,2,2,1,1,,,,,,,,,,,,,,
,,,,,,,,,,,right.png,,p,left,61095ad583e96c3096df5b0b,2021-10-27_11h10.34.063,arrow_simon_punish,2021.1.2,Win32,59.98440405,,,,,,,,,,,,,,p,1,1.7021,1.514838557,1,5,0,3,3,0,1,,,,,,,,,,,,,,
,,,,,,,,,,,right.png,,p,right,61095ad583e96c3096df5b0b,2021-10-27_11h10.34.063,arrow_simon_punish,2021.1.2,Win32,59.98440405,,,,,,,,,,,,,,p,1,1.3116,1.881908082,1,5,1,0,4,1,1,,,,,,,,,,,,,,
,,,,,,,,,,,left.png,,w,left,61095ad583e96c3096df5b0b,2021-10-27_11h10.34.063,arrow_simon_punish,2021.1.2,Win32,59.98440405,,,,,,,,,,,,,,w,1,1.5385,2.102884791,0,5,1,1,5,2,1,,,,,,,,,,,,,,
,,,,,,,,,,,right.png,,p,left,61095ad583e96c3096df5b0b,2021-10-27_11h10.34.063,arrow_simon_punish,2021.1.2,Win32,59.98440405,,,,,,,,,,,,,,p,1,1.3404,2.306255612,1,5,1,2,6,0,1,,,,,,,,,,,,,,
,,,,,,,,,,,left.png,,w,right,61095ad583e96c3096df5b0b,2021-10-27_11h10.34.063,arrow_simon_punish,2021.1.2,Win32,59.98440405,,,,,,,,,,,,,,w,1,1.6295,2.132585871,1,5,1,3,7,3,1,,,,,,,,,,,,,,
,,,,,,,,,,,right.png,,p,left,61095ad583e96c3096df5b0b,2021-10-27_11h10.34.063,arrow_simon_punish,2021.1.2,Win32,59.98440405,,,,,,,,,,,,,,p,1,2.7343,2.418794127,1,5,2,0,8,0,1,,,,,,,,,,,,,,
,,,,,,,,,,,left.png,,w,right,61095ad583e96c3096df5b0b,2021-10-27_11h10.34.063,arrow_simon_punish,2021.1.2,Win32,59.98440405,,,,,,,,,,,,,,w,1,2.0849,1.757358144,1,5,2,1,9,3,1,,,,,,,,,,,,,,
,,,,,,,,,,,left.png,,w,left,61095ad583e96c3096df5b0b,2021-10-27_11h10.34.063,arrow_simon_punish,2021.1.2,Win32,59.98440405,,,,,,,,,,,,,,w,1,2.2338,2.269039905,1,5,2,2,10,2,1,,,,,,,,,,,,,,
,,,,,,,,,,,left.png,,w,right,61095ad583e96c3096df5b0b,2021-10-27_11h10.34.063,arrow_simon_punish,2021.1.2,Win32,59.98440405,,,,,,,,,,,,,,w,1,1.6776,1.72264176,1,5,2,3,11,3,1,,,,,,,,,,,,,,
,,,,,,,,,,,right.png,,p,right,61095ad583e96c3096df5b0b,2021-10-27_11h10.34.063,arrow_simon_punish,2021.1.2,Win32,59.98440405,,,,,,,,,,,,,,p,1,1.667,1.642889895,1,5,3,0,12,1,1,,,,,,,,,,,,,,
,,,,,,,,,,,right.png,,p,right,61095ad583e96c3096df5b0b,2021-10-27_11h10.34.063,arrow_simon_punish,2021.1.2,Win32,59.98440405,,,,,,,,,,,,,,p,1,1.3251,1.776647705,1,5,3,1,13,1,1,,,,,,,,,,,,,,
,,,,,,,,,,,left.png,,w,left,61095ad583e96c3096df5b0b,2021-10-27_11h10.34.063,arrow_simon_punish,2021.1.2,Win32,59.98440405,,,,,,,,,,,,,,w,1,1.3114,1.888323036,1,5,3,2,14,2,1,,,,,,,,,,,,,,
,,,,,,,,,,,right.png,,p,left,61095ad583e96c3096df5b0b,2021-10-27_11h10.34.063,arrow_simon_punish,2021.1.2,Win32,59.98440405,,,,,,,,,,,,,,p,1,1.3335,1.618072501,1,5,3,3,15,0,1,,,,,,,,,,,,,,
,,,,,,,,,,,right.png,,p,left,61095ad583e96c3096df5b0b,2021-10-27_11h10.34.063,arrow_simon_punish,2021.1.2,Win32,59.98440405,,,,,,,,,,,,,,p,1,1.7228,2.461520128,1,5,4,0,16,0,1,,,,,,,,,,,,,,
,,,,,,,,,,,right.png,,p,left,61095ad583e96c3096df5b0b,2021-10-27_11h10.34.063,arrow_simon_punish,2021.1.2,Win32,59.98440405,,,,,,,,,,,,,,w,0,2.1891,2.390839768,1,5,4,1,17,0,1,,,,,,,,,,,,,,
,,,,,,,,,,,left.png,,w,left,61095ad583e96c3096df5b0b,2021-10-27_11h10.34.063,arrow_simon_punish,2021.1.2,Win32,59.98440405,,,,,,,,,,,,,,w,1,1.9839,2.414652854,1,5,4,2,18,2,1,,,,,,,,,,,,,,
,,,,,,,,,,,right.png,,p,right,61095ad583e96c3096df5b0b,2021-10-27_11h10.34.063,arrow_simon_punish,2021.1.2,Win32,59.98440405,,,,,,,,,,,,,,p,1,1.5004,2.011846506,0,5,4,3,19,1,1,,,,,,,,,,,,,,
,,,,,,,,,,,left.png,,w,left,61095ad583e96c3096df5b0b,2021-10-27_11h10.34.063,arrow_simon_punish,2021.1.2,Win32,59.98440405,,,,,,,,,,,,,,w,1,1.4787,2.177911386,0,5,5,0,20,2,1,,,,,,,,,,,,,,
,,,,,,,,,,,left.png,,w,right,61095ad583e96c3096df5b0b,2021-10-27_11h10.34.063,arrow_simon_punish,2021.1.2,Win32,59.98440405,,,,,,,,,,,,,,p,0,1.7001,2.336621326,1,5,5,1,21,3,1,,,,,,,,,,,,,,
,,,,,,,,,,,right.png,,p,right,61095ad583e96c3096df5b0b,2021-10-27_11h10.34.063,arrow_simon_punish,2021.1.2,Win32,59.98440405,,,,,,,,,,,,,,p,1,1.8933,2.418288035,1,5,5,2,22,1,1,,,,,,,,,,,,,,
,,,,,,,,,,,left.png,,w,left,61095ad583e96c3096df5b0b,2021-10-27_11h10.34.063,arrow_simon_punish,2021.1.2,Win32,59.98440405,,,,,,,,,,,,,,w,1,1.4172,1.730885227,0,5,5,3,23,2,1,,,,,,,,,,,,,,
,,,,,,,,,,,right.png,,p,right,61095ad583e96c3096df5b0b,2021-10-27_11h10.34.063,arrow_simon_punish,2021.1.2,Win32,59.98440405,,,,,,,,,,,,,,p,1,1.3675,1.61208017,1,5,6,0,24,1,1,,,,,,,,,,,,,,
,,,,,,,,,,,left.png,,w,left,61095ad583e96c3096df5b0b,2021-10-27_11h10.34.063,arrow_simon_punish,2021.1.2,Win32,59.98440405,,,,,,,,,,,,,,w,1,1.3186,2.005437384,1,5,6,1,25,2,1,,,,,,,,,,,,,,
,,,,,,,,,,,right.png,,p,right,61095ad583e96c3096df5b0b,2021-10-27_11h10.34.063,arrow_simon_punish,2021.1.2,Win32,59.98440405,,,,,,,,,,,,,,w,0,1.9928,2.399315077,1,5,6,2,26,1,1,,,,,,,,,,,,,,
,,,,,,,,,,,right.png,,p,left,61095ad583e96c3096df5b0b,2021-10-27_11h10.34.063,arrow_simon_punish,2021.1.2,Win32,59.98440405,,,,,,,,,,,,,,p,1,1.5841,2.119129362,0,5,6,3,27,0,1,,,,,,,,,,,,,,
,,,,,,,,,,,left.png,,w,left,61095ad583e96c3096df5b0b,2021-10-27_11h10.34.063,arrow_simon_punish,2021.1.2,Win32,59.98440405,,,,,,,,,,,,,,p,0,1.359,2.247384031,1,5,7,0,28,2,1,,,,,,,,,,,,,,
,,,,,,,,,,,left.png,,w,right,61095ad583e96c3096df5b0b,2021-10-27_11h10.34.063,arrow_simon_punish,2021.1.2,Win32,59.98440405,,,,,,,,,,,,,,p,0,1.0241,1.731000038,1,5,7,1,29,3,1,,,,,,,,,,,,,,
,,,,,,,,,,,left.png,,w,right,61095ad583e96c3096df5b0b,2021-10-27_11h10.34.063,arrow_simon_punish,2021.1.2,Win32,59.98440405,,,,,,,,,,,,,,p,0,1.8341,1.875915884,1,5,7,2,30,3,1,,,,,,,,,,,,,,
,,,,,,,,,,,left.png,,w,left,61095ad583e96c3096df5b0b,2021-10-27_11h10.34.063,arrow_simon_punish,2021.1.2,Win32,59.98440405,,,,,,,,,,,,,,p,0,1.7554,2.115270162,1,5,7,3,31,2,1,,,,,,,,,,,,,,
,,,,,,,,,,,right.png,,p,right,61095ad583e96c3096df5b0b,2021-10-27_11h10.34.063,arrow_simon_punish,2021.1.2,Win32,59.98440405,,,,,,,,,,,,,,p,1,1.6679,2.185507258,1,5,8,0,32,1,1,,,,,,,,,,,,,,
,,,,,,,,,,,left.png,,w,right,61095ad583e96c3096df5b0b,2021-10-27_11h10.34.063,arrow_simon_punish,2021.1.2,Win32,59.98440405,,,,,,,,,,,,,,w,1,2.2018,1.839811844,1,5,8,1,33,3,1,,,,,,,,,,,,,,
,,,,,,,,,,,left.png,,w,right,61095ad583e96c3096df5b0b,2021-10-27_11h10.34.063,arrow_simon_punish,2021.1.2,Win32,59.98440405,,,,,,,,,,,,,,w,1,1.817,1.656066757,1,5,8,2,34,3,1,,,,,,,,,,,,,,
,,,,,,,,,,,left.png,,w,left,61095ad583e96c3096df5b0b,2021-10-27_11h10.34.063,arrow_simon_punish,2021.1.2,Win32,59.98440405,,,,,,,,,,,,,,w,1,1.5336,1.616275532,0,5,8,3,35,2,1,,,,,,,,,,,,,,
,,,,,,,,,,,left.png,,w,right,61095ad583e96c3096df5b0b,2021-10-27_11h10.34.063,arrow_simon_punish,2021.1.2,Win32,59.98440405,,,,,,,,,,,,,,w,1,1.6702,2.12970297,1,5,9,0,36,3,1,,,,,,,,,,,,,,
,,,,,,,,,,,right.png,,p,right,61095ad583e96c3096df5b0b,2021-10-27_11h10.34.063,arrow_simon_punish,2021.1.2,Win32,59.98440405,,,,,,,,,,,,,,p,1,2.3503,2.144862894,1,5,9,1,37,1,1,,,,,,,,,,,,,,
,,,,,,,,,,,left.png,,w,left,61095ad583e96c3096df5b0b,2021-10-27_11h10.34.063,arrow_simon_punish,2021.1.2,Win32,59.98440405,,,,,,,,,,,,,,w,1,1.0182,1.511735674,1,5,9,2,38,2,1,,,,,,,,,,,,,,
,,,,,,,,,,,left.png,,w,right,61095ad583e96c3096df5b0b,2021-10-27_11h10.34.063,arrow_simon_punish,2021.1.2,Win32,59.98440405,,,,,,,,,,,,,,w,1,1.5449,1.932631393,0,5,9,3,39,3,1,,,,,,,,,,,,,,
,,,,,,,,,,,left.png,,w,left,61095ad583e96c3096df5b0b,2021-10-27_11h10.34.063,arrow_simon_punish,2021.1.2,Win32,59.98440405,,,,,,,,,,,,,,w,1,1.4506,1.902840342,0,5,10,0,40,2,1,,,,,,,,,,,,,,
,,,,,,,,,,,left.png,,w,left,61095ad583e96c3096df5b0b,2021-10-27_11h10.34.063,arrow_simon_punish,2021.1.2,Win32,59.98440405,,,,,,,,,,,,,,w,1,1.8172,2.438258969,1,5,10,1,41,2,1,,,,,,,,,,,,,,
,,,,,,,,,,,right.png,,p,left,61095ad583e96c3096df5b0b,2021-10-27_11h10.34.063,arrow_simon_punish,2021.1.2,Win32,59.98440405,,,,,,,,,,,,,,p,1,2.8451,2.386740776,1,5,10,2,42,0,1,,,,,,,,,,,,,,
,,,,,,,,,,,right.png,,p,left,61095ad583e96c3096df5b0b,2021-10-27_11h10.34.063,arrow_simon_punish,2021.1.2,Win32,59.98440405,,,,,,,,,,,,,,p,1,2.5341,1.860631527,1,5,10,3,43,0,1,,,,,,,,,,,,,,
,,,,,,,,,,,right.png,,p,left,61095ad583e96c3096df5b0b,2021-10-27_11h10.34.063,arrow_simon_punish,2021.1.2,Win32,59.98440405,,,,,,,,,,,,,,p,1,1.3674,1.850272566,1,5,11,0,44,0,1,,,,,,,,,,,,,,
,,,,,,,,,,,right.png,,p,left,61095ad583e96c3096df5b0b,2021-10-27_11h10.34.063,arrow_simon_punish,2021.1.2,Win32,59.98440405,,,,,,,,,,,,,,p,1,1.284,1.529845736,1,5,11,1,45,0,1,,,,,,,,,,,,,,
,,,,,,,,,,,right.png,,p,left,61095ad583e96c3096df5b0b,2021-10-27_11h10.34.063,arrow_simon_punish,2021.1.2,Win32,59.98440405,,,,,,,,,,,,,,p,1,1.8164,1.895550897,1,5,11,2,46,0,1,,,,,,,,,,,,,,
,,,,,,,,,,,right.png,,p,left,61095ad583e96c3096df5b0b,2021-10-27_11h10.34.063,arrow_simon_punish,2021.1.2,Win32,59.98440405,,,,,,,,,,,,,,p,1,1.5506,1.834395694,0,5,11,3,47,0,1,,,,,,,,,,,,,,
,,,,,,,,,,,right.png,,p,right,61095ad583e96c3096df5b0b,2021-10-27_11h10.34.063,arrow_simon_punish,2021.1.2,Win32,59.98440405,,,,,,,,,,,,,,p,1,1.8376,2.446512993,1,5,12,0,48,1,1,,,,,,,,,,,,,,
,,,,,,,,,,,left.png,,w,right,61095ad583e96c3096df5b0b,2021-10-27_11h10.34.063,arrow_simon_punish,2021.1.2,Win32,59.98440405,,,,,,,,,,,,,,p,0,3.004,2.348037938,1,5,12,1,49,3,1,,,,,,,,,,,,,,
,,,,,,,,,,,right.png,,p,right,61095ad583e96c3096df5b0b,2021-10-27_11h10.34.063,arrow_simon_punish,2021.1.2,Win32,59.98440405,,,,,,,,,,,,,,p,1,1.8892,1.987920172,1,5,12,2,50,1,1,,,,,,,,,,,,,,
,,,,,,,,,,,right.png,,p,right,61095ad583e96c3096df5b0b,2021-10-27_11h10.34.063,arrow_simon_punish,2021.1.2,Win32,59.98440405,,,,,,,,,,,,,,p,1,1.8773,2.422392934,1,5,12,3,51,1,1,,,,,,,,,,,,,,
,,,,,,,,,,,left.png,,w,right,61095ad583e96c3096df5b0b,2021-10-27_11h10.34.063,arrow_simon_punish,2021.1.2,Win32,59.98440405,,,,,,,,,,,,,,w,1,1.9602,1.707378259,1,5,13,0,52,3,1,,,,,,,,,,,,,,
,,,,,,,,,,,right.png,,p,right,61095ad583e96c3096df5b0b,2021-10-27_11h10.34.063,arrow_simon_punish,2021.1.2,Win32,59.98440405,,,,,,,,,,,,,,p,1,2.3528,2.108817913,1,5,13,1,53,1,1,,,,,,,,,,,,,,
,,,,,,,,,,,left.png,,w,left,61095ad583e96c3096df5b0b,2021-10-27_11h10.34.063,arrow_simon_punish,2021.1.2,Win32,59.98440405,,,,,,,,,,,,,,p,0,2.6743,1.963354843,1,5,13,2,54,2,1,,,,,,,,,,,,,,
,,,,,,,,,,,left.png,,w,right,61095ad583e96c3096df5b0b,2021-10-27_11h10.34.063,arrow_simon_punish,2021.1.2,Win32,59.98440405,,,,,,,,,,,,,,p,0,3.2781,1.733768238,1,5,13,3,55,3,1,,,,,,,,,,,,,,
,,,,,,,,,,,left.png,,w,right,61095ad583e96c3096df5b0b,2021-10-27_11h10.34.063,arrow_simon_punish,2021.1.2,Win32,59.98440405,,,,,,,,,,,,,,p,0,4.2102,2.111983196,1,5,14,0,56,3,1,,,,,,,,,,,,,,
,,,,,,,,,,,left.png,,w,left,61095ad583e96c3096df5b0b,2021-10-27_11h10.34.063,arrow_simon_punish,2021.1.2,Win32,59.98440405,,,,,,,,,,,,,,p,0,3.3006,2.362861524,1,5,14,1,57,2,1,,,,,,,,,,,,,,
,,,,,,,,,,,right.png,,p,left,61095ad583e96c3096df5b0b,2021-10-27_11h10.34.063,arrow_simon_punish,2021.1.2,Win32,59.98440405,,,,,,,,,,,,,,p,1,3.0119,2.06321006,1,5,14,2,58,0,1,,,,,,,,,,,,,,
,,,,,,,,,,,right.png,,p,left,61095ad583e96c3096df5b0b,2021-10-27_11h10.34.063,arrow_simon_punish,2021.1.2,Win32,59.98440405,,,,,,,,,,,,,,p,1,1.1937,1.823180824,1,5,14,3,59,0,1,,,,,,,,,,,,,,
,,,,,,,,,,,,,,,61095ad583e96c3096df5b0b,2021-10-27_11h10.34.063,arrow_simon_punish,2021.1.2,Win32,59.98440405,,,,,,,,,,,,,,,,,,,,,,,,,space,14.9463,5,1,1,3,1,1,5,,,,,
,,,,,,,,,,,left.png,,w,left,61095ad583e96c3096df5b0b,2021-10-27_11h10.34.063,arrow_simon_punish,2021.1.2,Win32,59.98440405,,,,,,,,,,,,,,w,1,1.3705,1.70177323,1,1,0,0,0,2,1,,,,,,,,,,,,,,
,,,,,,,,,,,right.png,,p,right,61095ad583e96c3096df5b0b,2021-10-27_11h10.34.063,arrow_simon_punish,2021.1.2,Win32,59.98440405,,,,,,,,,,,,,,p,1,1.4032,2.100069675,0,1,0,1,1,1,1,,,,,,,,,,,,,,
,,,,,,,,,,,right.png,,p,right,61095ad583e96c3096df5b0b,2021-10-27_11h10.34.063,arrow_simon_punish,2021.1.2,Win32,59.98440405,,,,,,,,,,,,,,p,1,1.3449,1.966283037,1,1,0,2,2,1,1,,,,,,,,,,,,,,
,,,,,,,,,,,left.png,,w,right,61095ad583e96c3096df5b0b,2021-10-27_11h10.34.063,arrow_simon_punish,2021.1.2,Win32,59.98440405,,,,,,,,,,,,,,p,0,1.1507,1.809180449,1,1,0,3,3,3,1,,,,,,,,,,,,,,
,,,,,,,,,,,right.png,,p,right,61095ad583e96c3096df5b0b,2021-10-27_11h10.34.063,arrow_simon_punish,2021.1.2,Win32,59.98440405,,,,,,,,,,,,,,p,1,1.8594,2.3378296,1,1,1,0,4,1,1,,,,,,,,,,,,,,
,,,,,,,,,,,right.png,,p,left,61095ad583e96c3096df5b0b,2021-10-27_11h10.34.063,arrow_simon_punish,2021.1.2,Win32,59.98440405,,,,,,,,,,,,,,p,1,1.4721,1.840756029,0,1,1,1,5,0,1,,,,,,,,,,,,,,
,,,,,,,,,,,left.png,,w,right,61095ad583e96c3096df5b0b,2021-10-27_11h10.34.063,arrow_simon_punish,2021.1.2,Win32,59.98440405,,,,,,,,,,,,,,w,1,1.4283,1.880342283,0,1,1,2,6,3,1,,,,,,,,,,,,,,
,,,,,,,,,,,right.png,,p,left,61095ad583e96c3096df5b0b,2021-10-27_11h10.34.063,arrow_simon_punish,2021.1.2,Win32,59.98440405,,,,,,,,,,,,,,p,1,1.8016,2.428539037,1,1,1,3,7,0,1,,,,,,,,,,,,,,
,,,,,,,,,,,left.png,,w,left,61095ad583e96c3096df5b0b,2021-10-27_11h10.34.063,arrow_simon_punish,2021.1.2,Win32,59.98440405,,,,,,,,,,,,,,w,1,1.4083,1.934963529,0,1,2,0,8,2,1,,,,,,,,,,,,,,
,,,,,,,,,,,left.png,,w,left,61095ad583e96c3096df5b0b,2021-10-27_11h10.34.063,arrow_simon_punish,2021.1.2,Win32,59.98440405,,,,,,,,,,,,,,w,1,1.4887,1.878200143,0,1,2,1,9,2,1,,,,,,,,,,,,,,
,,,,,,,,,,,right.png,,p,right,61095ad583e96c3096df5b0b,2021-10-27_11h10.34.063,arrow_simon_punish,2021.1.2,Win32,59.98440405,,,,,,,,,,,,,,p,1,1.1872,1.894789887,1,1,2,2,10,1,1,,,,,,,,,,,,,,
,,,,,,,,,,,left.png,,w,right,61095ad583e96c3096df5b0b,2021-10-27_11h10.34.063,arrow_simon_punish,2021.1.2,Win32,59.98440405,,,,,,,,,,,,,,p,0,1.258,1.687309492,1,1,2,3,11,3,1,,,,,,,,,,,,,,
,,,,,,,,,,,right.png,,p,right,61095ad583e96c3096df5b0b,2021-10-27_11h10.34.063,arrow_simon_punish,2021.1.2,Win32,59.98440405,,,,,,,,,,,,,,p,1,1.8,2.345372437,1,1,3,0,12,1,1,,,,,,,,,,,,,,
,,,,,,,,,,,left.png,,w,right,61095ad583e96c3096df5b0b,2021-10-27_11h10.34.063,arrow_simon_punish,2021.1.2,Win32,59.98440405,,,,,,,,,,,,,,w,1,1.5411,1.971254227,0,1,3,1,13,3,1,,,,,,,,,,,,,,
,,,,,,,,,,,left.png,,w,right,61095ad583e96c3096df5b0b,2021-10-27_11h10.34.063,arrow_simon_punish,2021.1.2,Win32,59.98440405,,,,,,,,,,,,,,w,1,2.4505,2.294634444,1,1,3,2,14,3,1,,,,,,,,,,,,,,
,,,,,,,,,,,right.png,,p,right,61095ad583e96c3096df5b0b,2021-10-27_11h10.34.063,arrow_simon_punish,2021.1.2,Win32,59.98440405,,,,,,,,,,,,,,p,1,1.9334,2.384479409,1,1,3,3,15,1,1,,,,,,,,,,,,,,
,,,,,,,,,,,right.png,,p,right,61095ad583e96c3096df5b0b,2021-10-27_11h10.34.063,arrow_simon_punish,2021.1.2,Win32,59.98440405,,,,,,,,,,,,,,p,1,1.757,2.270944245,1,1,4,0,16,1,1,,,,,,,,,,,,,,
,,,,,,,,,,,left.png,,w,left,61095ad583e96c3096df5b0b,2021-10-27_11h10.34.063,arrow_simon_punish,2021.1.2,Win32,59.98440405,,,,,,,,,,,,,,w,1,2.0209,2.427597294,1,1,4,1,17,2,1,,,,,,,,,,,,,,
,,,,,,,,,,,left.png,,w,left,61095ad583e96c3096df5b0b,2021-10-27_11h10.34.063,arrow_simon_punish,2021.1.2,Win32,59.98440405,,,,,,,,,,,,,,w,1,1.3397,2.011605905,1,1,4,2,18,2,1,,,,,,,,,,,,,,
,,,,,,,,,,,right.png,,p,left,61095ad583e96c3096df5b0b,2021-10-27_11h10.34.063,arrow_simon_punish,2021.1.2,Win32,59.98440405,,,,,,,,,,,,,,p,1,1.7885,2.240637189,1,1,4,3,19,0,1,,,,,,,,,,,,,,
,,,,,,,,,,,right.png,,p,left,61095ad583e96c3096df5b0b,2021-10-27_11h10.34.063,arrow_simon_punish,2021.1.2,Win32,59.98440405,,,,,,,,,,,,,,p,1,1.5502,2.228680309,0,1,5,0,20,0,1,,,,,,,,,,,,,,
,,,,,,,,,,,left.png,,w,right,61095ad583e96c3096df5b0b,2021-10-27_11h10.34.063,arrow_simon_punish,2021.1.2,Win32,59.98440405,,,,,,,,,,,,,,p,0,1.1093,1.727140398,1,1,5,1,21,3,1,,,,,,,,,,,,,,
,,,,,,,,,,,right.png,,p,right,61095ad583e96c3096df5b0b,2021-10-27_11h10.34.063,arrow_simon_punish,2021.1.2,Win32,59.98440405,,,,,,,,,,,,,,p,1,2.0002,2.472365656,1,1,5,2,22,1,1,,,,,,,,,,,,,,
,,,,,,,,,,,right.png,,p,right,61095ad583e96c3096df5b0b,2021-10-27_11h10.34.063,arrow_simon_punish,2021.1.2,Win32,59.98440405,,,,,,,,,,,,,,p,1,0.9184,1.552451997,1,1,5,3,23,1,1,,,,,,,,,,,,,,
,,,,,,,,,,,left.png,,w,right,61095ad583e96c3096df5b0b,2021-10-27_11h10.34.063,arrow_simon_punish,2021.1.2,Win32,59.98440405,,,,,,,,,,,,,,w,1,1.1843,1.633070584,1,1,6,0,24,3,1,,,,,,,,,,,,,,
,,,,,,,,,,,left.png,,w,right,61095ad583e96c3096df5b0b,2021-10-27_11h10.34.063,arrow_simon_punish,2021.1.2,Win32,59.98440405,,,,,,,,,,,,,,p,0,0.8954,1.590709745,1,1,6,1,25,3,1,,,,,,,,,,,,,,
,,,,,,,,,,,left.png,,w,left,61095ad583e96c3096df5b0b,2021-10-27_11h10.34.063,arrow_simon_punish,2021.1.2,Win32,59.98440405,,,,,,,,,,,,,,w,1,1.3945,1.917525223,1,1,6,2,26,2,1,,,,,,,,,,,,,,
,,,,,,,,,,,right.png,,p,left,61095ad583e96c3096df5b0b,2021-10-27_11h10.34.063,arrow_simon_punish,2021.1.2,Win32,59.98440405,,,,,,,,,,,,,,p,1,1.4841,2.03361547,0,1,6,3,27,0,1,,,,,,,,,,,,,,
,,,,,,,,,,,left.png,,w,right,61095ad583e96c3096df5b0b,2021-10-27_11h10.34.063,arrow_simon_punish,2021.1.2,Win32,59.98440405,,,,,,,,,,,,,,p,0,1.375,2.08269012,1,1,7,0,28,3,1,,,,,,,,,,,,,,
,,,,,,,,,,,right.png,,p,right,61095ad583e96c3096df5b0b,2021-10-27_11h10.34.063,arrow_simon_punish,2021.1.2,Win32,59.98440405,,,,,,,,,,,,,,p,1,0.9095,1.500353848,1,1,7,1,29,1,1,,,,,,,,,,,,,,
,,,,,,,,,,,right.png,,p,left,61095ad583e96c3096df5b0b,2021-10-27_11h10.34.063,arrow_simon_punish,2021.1.2,Win32,59.98440405,,,,,,,,,,,,,,p,1,2.0501,2.4574731,1,1,7,2,30,0,1,,,,,,,,,,,,,,
,,,,,,,,,,,right.png,,p,right,61095ad583e96c3096df5b0b,2021-10-27_11h10.34.063,arrow_simon_punish,2021.1.2,Win32,59.98440405,,,,,,,,,,,,,,p,1,1.0369,1.666989256,1,1,7,3,31,1,1,,,,,,,,,,,,,,
,,,,,,,,,,,left.png,,w,left,61095ad583e96c3096df5b0b,2021-10-27_11h10.34.063,arrow_simon_punish,2021.1.2,Win32,59.98440405,,,,,,,,,,,,,,w,1,1.5953,2.085292264,0,1,8,0,32,2,1,,,,,,,,,,,,,,
,,,,,,,,,,,left.png,,w,left,61095ad583e96c3096df5b0b,2021-10-27_11h10.34.063,arrow_simon_punish,2021.1.2,Win32,59.98440405,,,,,,,,,,,,,,w,1,1.2418,1.582427276,1,1,8,1,33,2,1,,,,,,,,,,,,,,
,,,,,,,,,,,right.png,,p,right,61095ad583e96c3096df5b0b,2021-10-27_11h10.34.063,arrow_simon_punish,2021.1.2,Win32,59.98440405,,,,,,,,,,,,,,p,1,1.1189,1.856492451,1,1,8,2,34,1,1,,,,,,,,,,,,,,
,,,,,,,,,,,right.png,,p,left,61095ad583e96c3096df5b0b,2021-10-27_11h10.34.063,arrow_simon_punish,2021.1.2,Win32,59.98440405,,,,,,,,,,,,,,w,0,0.9931,1.648420961,1,1,8,3,35,0,1,,,,,,,,,,,,,,
,,,,,,,,,,,right.png,,p,left,61095ad583e96c3096df5b0b,2021-10-27_11h10.34.063,arrow_simon_punish,2021.1.2,Win32,59.98440405,,,,,,,,,,,,,,w,0,1.192,1.692069599,1,1,9,0,36,0,1,,,,,,,,,,,,,,
,,,,,,,,,,,right.png,,p,left,61095ad583e96c3096df5b0b,2021-10-27_11h10.34.063,arrow_simon_punish,2021.1.2,Win32,59.98440405,,,,,,,,,,,,,,p,1,1.617,2.034876629,1,1,9,1,37,0,1,,,,,,,,,,,,,,
,,,,,,,,,,,left.png,,w,left,61095ad583e96c3096df5b0b,2021-10-27_11h10.34.063,arrow_simon_punish,2021.1.2,Win32,59.98440405,,,,,,,,,,,,,,p,0,1.1833,2.097593618,1,1,9,2,38,2,1,,,,,,,,,,,,,,
,,,,,,,,,,,left.png,,w,left,61095ad583e96c3096df5b0b,2021-10-27_11h10.34.063,arrow_simon_punish,2021.1.2,Win32,59.98440405,,,,,,,,,,,,,,p,0,1.901,2.372974585,1,1,9,3,39,2,1,,,,,,,,,,,,,,
,,,,,,,,,,,left.png,,w,left,61095ad583e96c3096df5b0b,2021-10-27_11h10.34.063,arrow_simon_punish,2021.1.2,Win32,59.98440405,,,,,,,,,,,,,,p,0,0.9458,1.610087487,1,1,10,0,40,2,1,,,,,,,,,,,,,,
,,,,,,,,,,,right.png,,p,left,61095ad583e96c3096df5b0b,2021-10-27_11h10.34.063,arrow_simon_punish,2021.1.2,Win32,59.98440405,,,,,,,,,,,,,,p,1,1.7929,2.29793371,1,1,10,1,41,0,1,,,,,,,,,,,,,,
,,,,,,,,,,,left.png,,w,left,61095ad583e96c3096df5b0b,2021-10-27_11h10.34.063,arrow_simon_punish,2021.1.2,Win32,59.98440405,,,,,,,,,,,,,,p,0,1.3838,1.85064717,1,1,10,2,42,2,1,,,,,,,,,,,,,,
,,,,,,,,,,,right.png,,p,right,61095ad583e96c3096df5b0b,2021-10-27_11h10.34.063,arrow_simon_punish,2021.1.2,Win32,59.98440405,,,,,,,,,,,,,,p,1,1.943,2.369486311,1,1,10,3,43,1,1,,,,,,,,,,,,,,
,,,,,,,,,,,right.png,,p,right,61095ad583e96c3096df5b0b,2021-10-27_11h10.34.063,arrow_simon_punish,2021.1.2,Win32,59.98440405,,,,,,,,,,,,,,p,1,1.2504,2.20562733,1,1,11,0,44,1,1,,,,,,,,,,,,,,
,,,,,,,,,,,left.png,,w,right,61095ad583e96c3096df5b0b,2021-10-27_11h10.34.063,arrow_simon_punish,2021.1.2,Win32,59.98440405,,,,,,,,,,,,,,p,0,1.6774,2.100662813,1,1,11,1,45,3,1,,,,,,,,,,,,,,
,,,,,,,,,,,left.png,,w,right,61095ad583e96c3096df5b0b,2021-10-27_11h10.34.063,arrow_simon_punish,2021.1.2,Win32,59.98440405,,,,,,,,,,,,,,p,0,1.1373,2.036390672,1,1,11,2,46,3,1,,,,,,,,,,,,,,
,,,,,,,,,,,right.png,,p,left,61095ad583e96c3096df5b0b,2021-10-27_11h10.34.063,arrow_simon_punish,2021.1.2,Win32,59.98440405,,,,,,,,,,,,,,p,1,0.8025,1.952594063,1,1,11,3,47,0,1,,,,,,,,,,,,,,
,,,,,,,,,,,left.png,,w,left,61095ad583e96c3096df5b0b,2021-10-27_11h10.34.063,arrow_simon_punish,2021.1.2,Win32,59.98440405,,,,,,,,,,,,,,p,0,0.6255,2.455744736,1,1,12,0,48,2,1,,,,,,,,,,,,,,
,,,,,,,,,,,left.png,,w,right,61095ad583e96c3096df5b0b,2021-10-27_11h10.34.063,arrow_simon_punish,2021.1.2,Win32,59.98440405,,,,,,,,,,,,,,p,0,1.1273,1.585604149,1,1,12,1,49,3,1,,,,,,,,,,,,,,
,,,,,,,,,,,right.png,,p,left,61095ad583e96c3096df5b0b,2021-10-27_11h10.34.063,arrow_simon_punish,2021.1.2,Win32,59.98440405,,,,,,,,,,,,,,p,1,0.8502,2.097810422,1,1,12,2,50,0,1,,,,,,,,,,,,,,
,,,,,,,,,,,left.png,,w,left,61095ad583e96c3096df5b0b,2021-10-27_11h10.34.063,arrow_simon_punish,2021.1.2,Win32,59.98440405,,,,,,,,,,,,,,p,0,1.5177,2.169474878,1,1,12,3,51,2,1,,,,,,,,,,,,,,
,,,,,,,,,,,left.png,,w,right,61095ad583e96c3096df5b0b,2021-10-27_11h10.34.063,arrow_simon_punish,2021.1.2,Win32,59.98440405,,,,,,,,,,,,,,p,0,0.0079,1.998387104,1,1,13,0,52,3,1,,,,,,,,,,,,,,
,,,,,,,,,,,left.png,,w,right,61095ad583e96c3096df5b0b,2021-10-27_11h10.34.063,arrow_simon_punish,2021.1.2,Win32,59.98440405,,,,,,,,,,,,,,p,0,0.886,1.560999756,1,1,13,1,53,3,1,,,,,,,,,,,,,,
,,,,,,,,,,,right.png,,p,right,61095ad583e96c3096df5b0b,2021-10-27_11h10.34.063,arrow_simon_punish,2021.1.2,Win32,59.98440405,,,,,,,,,,,,,,p,1,0.3937,1.746423825,1,1,13,2,54,1,1,,,,,,,,,,,,,,
,,,,,,,,,,,right.png,,p,left,61095ad583e96c3096df5b0b,2021-10-27_11h10.34.063,arrow_simon_punish,2021.1.2,Win32,59.98440405,,,,,,,,,,,,,,p,1,1.394,1.991331038,1,1,13,3,55,0,1,,,,,,,,,,,,,,
,,,,,,,,,,,right.png,,p,left,61095ad583e96c3096df5b0b,2021-10-27_11h10.34.063,arrow_simon_punish,2021.1.2,Win32,59.98440405,,,,,,,,,,,,,,p,1,1.1448,1.810267992,1,1,14,0,56,0,1,,,,,,,,,,,,,,
,,,,,,,,,,,right.png,,p,left,61095ad583e96c3096df5b0b,2021-10-27_11h10.34.063,arrow_simon_punish,2021.1.2,Win32,59.98440405,,,,,,,,,,,,,,p,1,1.5941,1.579555801,0,1,14,1,57,0,1,,,,,,,,,,,,,,
,,,,,,,,,,,left.png,,w,left,61095ad583e96c3096df5b0b,2021-10-27_11h10.34.063,arrow_simon_punish,2021.1.2,Win32,59.98440405,,,,,,,,,,,,,,w,1,1.7005,1.703951871,1,1,14,2,58,2,1,,,,,,,,,,,,,,
,,,,,,,,,,,left.png,,w,right,61095ad583e96c3096df5b0b,2021-10-27_11h10.34.063,arrow_simon_punish,2021.1.2,Win32,59.98440405,,,,,,,,,,,,,,p,0,2.0763,1.912673229,1,1,14,3,59,3,1,,,,,,,,,,,,,,
,,,,,,,,,,,,,,,61095ad583e96c3096df5b0b,2021-10-27_11h10.34.063,arrow_simon_punish,2021.1.2,Win32,59.98440405,,,,,,,,,,,,,,,,,,,,,,,,,space,15.1576,6,2,0,4,0,1,1,,,,,
,,,,,,,,,,,left.png,,w,left,61095ad583e96c3096df5b0b,2021-10-27_11h10.34.063,arrow_simon_punish,2021.1.2,Win32,59.98440405,,,,,,,,,,,,,,w,1,1.3056,1.808024452,1,5,0,0,0,2,1,,,,,,,,,,,,,,
,,,,,,,,,,,left.png,,w,left,61095ad583e96c3096df5b0b,2021-10-27_11h10.34.063,arrow_simon_punish,2021.1.2,Win32,59.98440405,,,,,,,,,,,,,,p,0,1.437,2.197329571,1,5,0,1,1,2,1,,,,,,,,,,,,,,
,,,,,,,,,,,left.png,,w,right,61095ad583e96c3096df5b0b,2021-10-27_11h10.34.063,arrow_simon_punish,2021.1.2,Win32,59.98440405,,,,,,,,,,,,,,w,1,1.1856,1.634314393,1,5,0,2,2,3,1,,,,,,,,,,,,,,
,,,,,,,,,,,right.png,,p,right,61095ad583e96c3096df5b0b,2021-10-27_11h10.34.063,arrow_simon_punish,2021.1.2,Win32,59.98440405,,,,,,,,,,,,,,p,1,1.0509,2.307672989,1,5,0,3,3,1,1,,,,,,,,,,,,,,
,,,,,,,,,,,left.png,,w,left,61095ad583e96c3096df5b0b,2021-10-27_11h10.34.063,arrow_simon_punish,2021.1.2,Win32,59.98440405,,,,,,,,,,,,,,p,0,1.4177,1.779656962,1,5,1,0,4,2,1,,,,,,,,,,,,,,
,,,,,,,,,,,right.png,,p,left,61095ad583e96c3096df5b0b,2021-10-27_11h10.34.063,arrow_simon_punish,2021.1.2,Win32,59.98440405,,,,,,,,,,,,,,p,1,1.1838,1.754007678,1,5,1,1,5,0,1,,,,,,,,,,,,,,
,,,,,,,,,,,right.png,,p,right,61095ad583e96c3096df5b0b,2021-10-27_11h10.34.063,arrow_simon_punish,2021.1.2,Win32,59.98440405,,,,,,,,,,,,,,p,1,1.2354,1.836096338,1,5,1,2,6,1,1,,,,,,,,,,,,,,
,,,,,,,,,,,left.png,,w,left,61095ad583e96c3096df5b0b,2021-10-27_11h10.34.063,arrow_simon_punish,2021.1.2,Win32,59.98440405,,,,,,,,,,,,,,p,0,1.2674,2.303796115,1,5,1,3,7,2,1,,,,,,,,,,,,,,
,,,,,,,,,,,right.png,,p,right,61095ad583e96c3096df5b0b,2021-10-27_11h10.34.063,arrow_simon_punish,2021.1.2,Win32,59.98440405,,,,,,,,,,,,,,p,1,1.9005,2.442628328,1,5,2,0,8,1,1,,,,,,,,,,,,,,
,,,,,,,,,,,left.png,,w,right,61095ad583e96c3096df5b0b,2021-10-27_11h10.34.063,arrow_simon_punish,2021.1.2,Win32,59.98440405,,,,,,,,,,,,,,p,0,0.6509,2.03189589,1,5,2,1,9,3,1,,,,,,,,,,,,,,
,,,,,,,,,,,left.png,,w,left,61095ad583e96c3096df5b0b,2021-10-27_11h10.34.063,arrow_simon_punish,2021.1.2,Win32,59.98440405,,,,,,,,,,,,,,p,0,0.0513,1.973577672,1,5,2,2,10,2,1,,,,,,,,,,,,,,
,,,,,,,,,,,left.png,,w,right,61095ad583e96c3096df5b0b,2021-10-27_11h10.34.063,arrow_simon_punish,2021.1.2,Win32,59.98440405,,,,,,,,,,,,,,p,0,1.496,2.419125721,1,5,2,3,11,3,1,,,,,,,,,,,,,,
,,,,,,,,,,,left.png,,w,right,61095ad583e96c3096df5b0b,2021-10-27_11h10.34.063,arrow_simon_punish,2021.1.2,Win32,59.98440405,,,,,,,,,,,,,,w,1,1.3675,2.00206468,1,5,3,0,12,3,1,,,,,,,,,,,,,,
,,,,,,,,,,,left.png,,w,right,61095ad583e96c3096df5b0b,2021-10-27_11h10.34.063,arrow_simon_punish,2021.1.2,Win32,59.98440405,,,,,,,,,,,,,,p,0,1.4036,2.095219123,1,5,3,1,13,3,1,,,,,,,,,,,,,,
,,,,,,,,,,,right.png,,p,left,61095ad583e96c3096df5b0b,2021-10-27_11h10.34.063,arrow_simon_punish,2021.1.2,Win32,59.98440405,,,,,,,,,,,,,,w,0,1.1221,1.72278652,1,5,3,2,14,0,1,,,,,,,,,,,,,,
,,,,,,,,,,,right.png,,p,left,61095ad583e96c3096df5b0b,2021-10-27_11h10.34.063,arrow_simon_punish,2021.1.2,Win32,59.98440405,,,,,,,,,,,,,,w,0,1.2002,1.79520838,1,5,3,3,15,0,1,,,,,,,,,,,,,,
,,,,,,,,,,,left.png,,w,right,61095ad583e96c3096df5b0b,2021-10-27_11h10.34.063,arrow_simon_punish,2021.1.2,Win32,59.98440405,,,,,,,,,,,,,,w,1,1.8835,2.18927921,1,5,4,0,16,3,1,,,,,,,,,,,,,,
,,,,,,,,,,,right.png,,p,left,61095ad583e96c3096df5b0b,2021-10-27_11h10.34.063,arrow_simon_punish,2021.1.2,Win32,59.98440405,,,,,,,,,,,,,,p,1,1.2376,1.80876708,1,5,4,1,17,0,1,,,,,,,,,,,,,,
,,,,,,,,,,,left.png,,w,right,61095ad583e96c3096df5b0b,2021-10-27_11h10.34.063,arrow_simon_punish,2021.1.2,Win32,59.98440405,,,,,,,,,,,,,,p,0,1.5714,2.228354246,1,5,4,2,18,3,1,,,,,,,,,,,,,,
,,,,,,,,,,,right.png,,p,right,61095ad583e96c3096df5b0b,2021-10-27_11h10.34.063,arrow_simon_punish,2021.1.2,Win32,59.98440405,,,,,,,,,,,,,,p,1,2.004,2.458143294,1,5,4,3,19,1,1,,,,,,,,,,,,,,
,,,,,,,,,,,right.png,,p,right,61095ad583e96c3096df5b0b,2021-10-27_11h10.34.063,arrow_simon_punish,2021.1.2,Win32,59.98440405,,,,,,,,,,,,,,p,1,1.5172,1.838550552,0,5,5,0,20,1,1,,,,,,,,,,,,,,
,,,,,,,,,,,left.png,,w,left,61095ad583e96c3096df5b0b,2021-10-27_11h10.34.063,arrow_simon_punish,2021.1.2,Win32,59.98440405,,,,,,,,,,,,,,w,1,1.6599,2.000408112,1,5,5,1,21,2,1,,,,,,,,,,,,,,
,,,,,,,,,,,right.png,,p,right,61095ad583e96c3096df5b0b,2021-10-27_11h10.34.063,arrow_simon_punish,2021.1.2,Win32,59.98440405,,,,,,,,,,,,,,p,1,0.9769,1.620135877,1,5,5,2,22,1,1,,,,,,,,,,,,,,
,,,,,,,,,,,right.png,,p,left,61095ad583e96c3096df5b0b,2021-10-27_11h10.34.063,arrow_simon_punish,2021.1.2,Win32,59.98440405,,,,,,,,,,,,,,w,0,1.6177,2.228224459,1,5,5,3,23,0,1,,,,,,,,,,,,,,
,,,,,,,,,,,left.png,,w,right,61095ad583e96c3096df5b0b,2021-10-27_11h10.34.063,arrow_simon_punish,2021.1.2,Win32,59.98440405,,,,,,,,,,,,,,p,0,1.1503,1.762250611,1,5,6,0,24,3,1,,,,,,,,,,,,,,
,,,,,,,,,,,right.png,,p,right,61095ad583e96c3096df5b0b,2021-10-27_11h10.34.063,arrow_simon_punish,2021.1.2,Win32,59.98440405,,,,,,,,,,,,,,p,1,1.8401,2.341515114,1,5,6,1,25,1,1,,,,,,,,,,,,,,
,,,,,,,,,,,right.png,,p,left,61095ad583e96c3096df5b0b,2021-10-27_11h10.34.063,arrow_simon_punish,2021.1.2,Win32,59.98440405,,,,,,,,,,,,,,p,1,1.9173,2.412408465,1,5,6,2,26,0,1,,,,,,,,,,,,,,
,,,,,,,,,,,left.png,,w,left,61095ad583e96c3096df5b0b,2021-10-27_11h10.34.063,arrow_simon_punish,2021.1.2,Win32,59.98440405,,,,,,,,,,,,,,w,1,2.0946,2.443303663,1,5,6,3,27,2,1,,,,,,,,,,,,,,
,,,,,,,,,,,right.png,,p,right,61095ad583e96c3096df5b0b,2021-10-27_11h10.34.063,arrow_simon_punish,2021.1.2,Win32,59.98440405,,,,,,,,,,,,,,p,1,1.9709,2.249101976,1,5,7,0,28,1,1,,,,,,,,,,,,,,
,,,,,,,,,,,left.png,,w,left,61095ad583e96c3096df5b0b,2021-10-27_11h10.34.063,arrow_simon_punish,2021.1.2,Win32,59.98440405,,,,,,,,,,,,,,w,1,1.9502,2.430754473,1,5,7,1,29,2,1,,,,,,,,,,,,,,
,,,,,,,,,,,right.png,,p,left,61095ad583e96c3096df5b0b,2021-10-27_11h10.34.063,arrow_simon_punish,2021.1.2,Win32,59.98440405,,,,,,,,,,,,,,w,0,1.8841,2.276918292,1,5,7,2,30,0,1,,,,,,,,,,,,,,
,,,,,,,,,,,left.png,,w,right,61095ad583e96c3096df5b0b,2021-10-27_11h10.34.063,arrow_simon_punish,2021.1.2,Win32,59.98440405,,,,,,,,,,,,,,p,0,2.6507,2.1359967,1,5,7,3,31,3,1,,,,,,,,,,,,,,
,,,,,,,,,,,left.png,,w,right,61095ad583e96c3096df5b0b,2021-10-27_11h10.34.063,arrow_simon_punish,2021.1.2,Win32,59.98440405,,,,,,,,,,,,,,p,0,0.2582,1.88907431,1,5,8,0,32,3,1,,,,,,,,,,,,,,
,,,,,,,,,,,right.png,,p,left,61095ad583e96c3096df5b0b,2021-10-27_11h10.34.063,arrow_simon_punish,2021.1.2,Win32,59.98440405,,,,,,,,,,,,,,p,1,1.8872,2.13288133,1,5,8,1,33,0,1,,,,,,,,,,,,,,
,,,,,,,,,,,right.png,,p,right,61095ad583e96c3096df5b0b,2021-10-27_11h10.34.063,arrow_simon_punish,2021.1.2,Win32,59.98440405,,,,,,,,,,,,,,p,1,0.5944,2.404983135,1,5,8,2,34,1,1,,,,,,,,,,,,,,
,,,,,,,,,,,left.png,,w,left,61095ad583e96c3096df5b0b,2021-10-27_11h10.34.063,arrow_simon_punish,2021.1.2,Win32,59.98440405,,,,,,,,,,,,,,p,0,1.1386,1.899057893,1,5,8,3,35,2,1,,,,,,,,,,,,,,
,,,,,,,,,,,right.png,,p,left,61095ad583e96c3096df5b0b,2021-10-27_11h10.34.063,arrow_simon_punish,2021.1.2,Win32,59.98440405,,,,,,,,,,,,,,p,1,1.2843,2.063233353,1,5,9,0,36,0,1,,,,,,,,,,,,,,
,,,,,,,,,,,left.png,,w,left,61095ad583e96c3096df5b0b,2021-10-27_11h10.34.063,arrow_simon_punish,2021.1.2,Win32,59.98440405,,,,,,,,,,,,,,p,0,2.0071,2.419855256,1,5,9,1,37,2,1,,,,,,,,,,,,,,
,,,,,,,,,,,left.png,,w,right,61095ad583e96c3096df5b0b,2021-10-27_11h10.34.063,arrow_simon_punish,2021.1.2,Win32,59.98440405,,,,,,,,,,,,,,p,0,1.0543,2.453412752,1,5,9,2,38,3,1,,,,,,,,,,,,,,
,,,,,,,,,,,right.png,,p,left,61095ad583e96c3096df5b0b,2021-10-27_11h10.34.063,arrow_simon_punish,2021.1.2,Win32,59.98440405,,,,,,,,,,,,,,p,1,0.8185,2.347265153,1,5,9,3,39,0,1,,,,,,,,,,,,,,
,,,,,,,,,,,left.png,,w,right,61095ad583e96c3096df5b0b,2021-10-27_11h10.34.063,arrow_simon_punish,2021.1.2,Win32,59.98440405,,,,,,,,,,,,,,p,0,2.4241,2.006629418,1,5,10,0,40,3,1,,,,,,,,,,,,,,
,,,,,,,,,,,left.png,,w,left,61095ad583e96c3096df5b0b,2021-10-27_11h10.34.063,arrow_simon_punish,2021.1.2,Win32,59.98440405,,,,,,,,,,,,,,p,0,1.8869,2.385710678,1,5,10,1,41,2,1,,,,,,,,,,,,,,
,,,,,,,,,,,left.png,,w,left,61095ad583e96c3096df5b0b,2021-10-27_11h10.34.063,arrow_simon_punish,2021.1.2,Win32,59.98440405,,,,,,,,,,,,,,w,1,2.0734,2.254555189,1,5,10,2,42,2,1,,,,,,,,,,,,,,
,,,,,,,,,,,right.png,,p,right,61095ad583e96c3096df5b0b,2021-10-27_11h10.34.063,arrow_simon_punish,2021.1.2,Win32,59.98440405,,,,,,,,,,,,,,p,1,1.8001,2.294279,1,5,10,3,43,1,1,,,,,,,,,,,,,,
,,,,,,,,,,,left.png,,w,left,61095ad583e96c3096df5b0b,2021-10-27_11h10.34.063,arrow_simon_punish,2021.1.2,Win32,59.98440405,,,,,,,,,,,,,,p,0,0.3812,2.487677247,1,5,11,0,44,2,1,,,,,,,,,,,,,,
,,,,,,,,,,,right.png,,p,left,61095ad583e96c3096df5b0b,2021-10-27_11h10.34.063,arrow_simon_punish,2021.1.2,Win32,59.98440405,,,,,,,,,,,,,,p,1,1.0283,2.073712057,1,5,11,1,45,0,1,,,,,,,,,,,,,,
,,,,,,,,,,,right.png,,p,left,61095ad583e96c3096df5b0b,2021-10-27_11h10.34.063,arrow_simon_punish,2021.1.2,Win32,59.98440405,,,,,,,,,,,,,,p,1,1.6833,2.147640195,1,5,11,2,46,0,1,,,,,,,,,,,,,,
,,,,,,,,,,,left.png,,w,left,61095ad583e96c3096df5b0b,2021-10-27_11h10.34.063,arrow_simon_punish,2021.1.2,Win32,59.98440405,,,,,,,,,,,,,,w,1,1.4536,1.847369201,0,5,11,3,47,2,1,,,,,,,,,,,,,,
,,,,,,,,,,,right.png,,p,right,61095ad583e96c3096df5b0b,2021-10-27_11h10.34.063,arrow_simon_punish,2021.1.2,Win32,59.98440405,,,,,,,,,,,,,,p,1,1.2502,2.371327666,1,5,12,0,48,1,1,,,,,,,,,,,,,,
,,,,,,,,,,,right.png,,p,right,61095ad583e96c3096df5b0b,2021-10-27_11h10.34.063,arrow_simon_punish,2021.1.2,Win32,59.98440405,,,,,,,,,,,,,,p,1,1.3687,2.298039132,1,5,12,1,49,1,1,,,,,,,,,,,,,,
,,,,,,,,,,,right.png,,p,left,61095ad583e96c3096df5b0b,2021-10-27_11h10.34.063,arrow_simon_punish,2021.1.2,Win32,59.98440405,,,,,,,,,,,,,,p,1,1.2862,2.321564579,1,5,12,2,50,0,1,,,,,,,,,,,,,,
,,,,,,,,,,,right.png,,p,right,61095ad583e96c3096df5b0b,2021-10-27_11h10.34.063,arrow_simon_punish,2021.1.2,Win32,59.98440405,,,,,,,,,,,,,,p,1,1.9234,2.477819251,1,5,12,3,51,1,1,,,,,,,,,,,,,,
,,,,,,,,,,,left.png,,w,right,61095ad583e96c3096df5b0b,2021-10-27_11h10.34.063,arrow_simon_punish,2021.1.2,Win32,59.98440405,,,,,,,,,,,,,,w,1,1.0606,1.747556685,1,5,13,0,52,3,1,,,,,,,,,,,,,,
,,,,,,,,,,,left.png,,w,right,61095ad583e96c3096df5b0b,2021-10-27_11h10.34.063,arrow_simon_punish,2021.1.2,Win32,59.98440405,,,,,,,,,,,,,,w,1,1.338,2.219217729,1,5,13,1,53,3,1,,,,,,,,,,,,,,
,,,,,,,,,,,right.png,,p,left,61095ad583e96c3096df5b0b,2021-10-27_11h10.34.063,arrow_simon_punish,2021.1.2,Win32,59.98440405,,,,,,,,,,,,,,w,0,1.2202,2.409586281,1,5,13,2,54,0,1,,,,,,,,,,,,,,
,,,,,,,,,,,right.png,,p,right,61095ad583e96c3096df5b0b,2021-10-27_11h10.34.063,arrow_simon_punish,2021.1.2,Win32,59.98440405,,,,,,,,,,,,,,w,0,1.5853,2.173544414,1,5,13,3,55,1,1,,,,,,,,,,,,,,
,,,,,,,,,,,left.png,,w,right,61095ad583e96c3096df5b0b,2021-10-27_11h10.34.063,arrow_simon_punish,2021.1.2,Win32,59.98440405,,,,,,,,,,,,,,w,1,0.1764,1.772240046,1,5,14,0,56,3,1,,,,,,,,,,,,,,
,,,,,,,,,,,left.png,,w,left,61095ad583e96c3096df5b0b,2021-10-27_11h10.34.063,arrow_simon_punish,2021.1.2,Win32,59.98440405,,,,,,,,,,,,,,p,0,1.7288,2.39270753,1,5,14,1,57,2,1,,,,,,,,,,,,,,
,,,,,,,,,,,right.png,,p,right,61095ad583e96c3096df5b0b,2021-10-27_11h10.34.063,arrow_simon_punish,2021.1.2,Win32,59.98440405,,,,,,,,,,,,,,p,1,1.0738,2.308926207,1,5,14,2,58,1,1,,,,,,,,,,,,,,
,,,,,,,,,,,right.png,,p,left,61095ad583e96c3096df5b0b,2021-10-27_11h10.34.063,arrow_simon_punish,2021.1.2,Win32,59.98440405,,,,,,,,,,,,,,p,1,2.2669,1.986634193,1,5,14,3,59,0,1,,,,,,,,,,,,,,
,,,,,,,,,,,,,,,61095ad583e96c3096df5b0b,2021-10-27_11h10.34.063,arrow_simon_punish,2021.1.2,Win32,59.98440405,,,,,,,,,,,,,,,,,,,,,,,,,space,3.2311,7,2,1,5,1,1,5,,,,,
,,,,,,,,,,,right.png,,p,left,61095ad583e96c3096df5b0b,2021-10-27_11h10.34.063,arrow_simon_punish,2021.1.2,Win32,59.98440405,,,,,,,,,,,,,,p,1,1.1284,1.699742483,1,1,0,0,0,0,1,,,,,,,,,,,,,,
,,,,,,,,,,,left.png,,w,right,61095ad583e96c3096df5b0b,2021-10-27_11h10.34.063,arrow_simon_punish,2021.1.2,Win32,59.98440405,,,,,,,,,,,,,,p,0,1.1215,1.816911465,1,1,0,1,1,3,1,,,,,,,,,,,,,,
,,,,,,,,,,,left.png,,w,right,61095ad583e96c3096df5b0b,2021-10-27_11h10.34.063,arrow_simon_punish,2021.1.2,Win32,59.98440405,,,,,,,,,,,,,,p,0,1.0928,1.771226454,1,1,0,2,2,3,1,,,,,,,,,,,,,,
,,,,,,,,,,,left.png,,w,right,61095ad583e96c3096df5b0b,2021-10-27_11h10.34.063,arrow_simon_punish,2021.1.2,Win32,59.98440405,,,,,,,,,,,,,,p,0,2.0502,2.171300619,1,1,0,3,3,3,1,,,,,,,,,,,,,,
,,,,,,,,,,,left.png,,w,right,61095ad583e96c3096df5b0b,2021-10-27_11h10.34.063,arrow_simon_punish,2021.1.2,Win32,59.98440405,,,,,,,,,,,,,,p,0,2.941,2.060592323,1,1,1,0,4,3,1,,,,,,,,,,,,,,
,,,,,,,,,,,right.png,,p,right,61095ad583e96c3096df5b0b,2021-10-27_11h10.34.063,arrow_simon_punish,2021.1.2,Win32,59.98440405,,,,,,,,,,,,,,p,1,0.4779,1.560671777,1,1,1,1,5,1,1,,,,,,,,,,,,,,
,,,,,,,,,,,left.png,,w,right,61095ad583e96c3096df5b0b,2021-10-27_11h10.34.063,arrow_simon_punish,2021.1.2,Win32,59.98440405,,,,,,,,,,,,,,p,0,3.4008,2.471707284,1,1,1,2,6,3,1,,,,,,,,,,,,,,
,,,,,,,,,,,left.png,,w,left,61095ad583e96c3096df5b0b,2021-10-27_11h10.34.063,arrow_simon_punish,2021.1.2,Win32,59.98440405,,,,,,,,,,,,,,p,0,0.6828,1.736688241,1,1,1,3,7,2,1,,,,,,,,,,,,,,
,,,,,,,,,,,right.png,,p,left,61095ad583e96c3096df5b0b,2021-10-27_11h10.34.063,arrow_simon_punish,2021.1.2,Win32,59.98440405,,,,,,,,,,,,,,p,1,1.6285,2.410686497,1,1,2,0,8,0,1,,,,,,,,,,,,,,
,,,,,,,,,,,left.png,,w,left,61095ad583e96c3096df5b0b,2021-10-27_11h10.34.063,arrow_simon_punish,2021.1.2,Win32,59.98440405,,,,,,,,,,,,,,p,0,1.317,1.572973999,1,1,2,1,9,2,1,,,,,,,,,,,,,,
,,,,,,,,,,,right.png,,p,right,61095ad583e96c3096df5b0b,2021-10-27_11h10.34.063,arrow_simon_punish,2021.1.2,Win32,59.98440405,,,,,,,,,,,,,,p,1,0.7084,2.482651359,1,1,2,2,10,1,1,,,,,,,,,,,,,,
,,,,,,,,,,,right.png,,p,left,61095ad583e96c3096df5b0b,2021-10-27_11h10.34.063,arrow_simon_punish,2021.1.2,Win32,59.98440405,,,,,,,,,,,,,,p,1,0.7577,2.249377089,1,1,2,3,11,0,1,,,,,,,,,,,,,,
,,,,,,,,,,,left.png,,w,left,61095ad583e96c3096df5b0b,2021-10-27_11h10.34.063,arrow_simon_punish,2021.1.2,Win32,59.98440405,,,,,,,,,,,,,,p,0,1.3909,1.592741428,1,1,3,0,12,2,1,,,,,,,,,,,,,,
,,,,,,,,,,,left.png,,w,left,61095ad583e96c3096df5b0b,2021-10-27_11h10.34.063,arrow_simon_punish,2021.1.2,Win32,59.98440405,,,,,,,,,,,,,,p,0,2.6779,2.425506501,1,1,3,1,13,2,1,,,,,,,,,,,,,,
,,,,,,,,,,,right.png,,p,right,61095ad583e96c3096df5b0b,2021-10-27_11h10.34.063,arrow_simon_punish,2021.1.2,Win32,59.98440405,,,,,,,,,,,,,,p,1,1.3621,1.651342415,1,1,3,2,14,1,1,,,,,,,,,,,,,,
,,,,,,,,,,,right.png,,p,left,61095ad583e96c3096df5b0b,2021-10-27_11h10.34.063,arrow_simon_punish,2021.1.2,Win32,59.98440405,,,,,,,,,,,,,,p,1,1.3004,2.078935609,1,1,3,3,15,0,1,,,,,,,,,,,,,,
,,,,,,,,,,,left.png,,w,left,61095ad583e96c3096df5b0b,2021-10-27_11h10.34.063,arrow_simon_punish,2021.1.2,Win32,59.98440405,,,,,,,,,,,,,,p,0,0.4211,2.000261386,1,1,4,0,16,2,1,,,,,,,,,,,,,,
,,,,,,,,,,,left.png,,w,left,61095ad583e96c3096df5b0b,2021-10-27_11h10.34.063,arrow_simon_punish,2021.1.2,Win32,59.98440405,,,,,,,,,,,,,,p,0,5.2368,1.967253756,1,1,4,1,17,2,1,,,,,,,,,,,,,,
,,,,,,,,,,,left.png,,w,left,61095ad583e96c3096df5b0b,2021-10-27_11h10.34.063,arrow_simon_punish,2021.1.2,Win32,59.98440405,,,,,,,,,,,,,,p,0,1.5847,2.360594241,1,1,4,2,18,2,1,,,,,,,,,,,,,,
,,,,,,,,,,,right.png,,p,right,61095ad583e96c3096df5b0b,2021-10-27_11h10.34.063,arrow_simon_punish,2021.1.2,Win32,59.98440405,,,,,,,,,,,,,,p,1,4.872,1.619059252,1,1,4,3,19,1,1,,,,,,,,,,,,,,
,,,,,,,,,,,left.png,,w,right,61095ad583e96c3096df5b0b,2021-10-27_11h10.34.063,arrow_simon_punish,2021.1.2,Win32,59.98440405,,,,,,,,,,,,,,p,0,3.2602,2.390235949,1,1,5,0,20,3,1,,,,,,,,,,,,,,
,,,,,,,,,,,right.png,,p,right,61095ad583e96c3096df5b0b,2021-10-27_11h10.34.063,arrow_simon_punish,2021.1.2,Win32,59.98440405,,,,,,,,,,,,,,p,1,4.3925,1.677237569,1,1,5,1,21,1,1,,,,,,,,,,,,,,
,,,,,,,,,,,right.png,,p,right,61095ad583e96c3096df5b0b,2021-10-27_11h10.34.063,arrow_simon_punish,2021.1.2,Win32,59.98440405,,,,,,,,,,,,,,p,1,3.201,1.770080459,1,1,5,2,22,1,1,,,,,,,,,,,,,,
,,,,,,,,,,,right.png,,p,left,61095ad583e96c3096df5b0b,2021-10-27_11h10.34.063,arrow_simon_punish,2021.1.2,Win32,59.98440405,,,,,,,,,,,,,,p,1,1.1194,1.839322381,1,1,5,3,23,0,1,,,,,,,,,,,,,,
,,,,,,,,,,,right.png,,p,right,61095ad583e96c3096df5b0b,2021-10-27_11h10.34.063,arrow_simon_punish,2021.1.2,Win32,59.98440405,,,,,,,,,,,,,,p,1,2.177,1.674944362,1,1,6,0,24,1,1,,,,,,,,,,,,,,
,,,,,,,,,,,left.png,,w,left,61095ad583e96c3096df5b0b,2021-10-27_11h10.34.063,arrow_simon_punish,2021.1.2,Win32,59.98440405,,,,,,,,,,,,,,p,0,0.217,1.708053151,1,1,6,1,25,2,1,,,,,,,,,,,,,,
,,,,,,,,,,,right.png,,p,left,61095ad583e96c3096df5b0b,2021-10-27_11h10.34.063,arrow_simon_punish,2021.1.2,Win32,59.98440405,,,,,,,,,,,,,,p,1,0.8164,1.811962425,1,1,6,2,26,0,1,,,,,,,,,,,,,,
,,,,,,,,,,,left.png,,w,left,61095ad583e96c3096df5b0b,2021-10-27_11h10.34.063,arrow_simon_punish,2021.1.2,Win32,59.98440405,,,,,,,,,,,,,,p,0,0.0775,1.824550656,1,1,6,3,27,2,1,,,,,,,,,,,,,,
,,,,,,,,,,,right.png,,p,right,61095ad583e96c3096df5b0b,2021-10-27_11h10.34.063,arrow_simon_punish,2021.1.2,Win32,59.98440405,,,,,,,,,,,,,,p,1,3.0508,2.355280896,1,1,7,0,28,1,1,,,,,,,,,,,,,,
,,,,,,,,,,,right.png,,p,right,61095ad583e96c3096df5b0b,2021-10-27_11h10.34.063,arrow_simon_punish,2021.1.2,Win32,59.98440405,,,,,,,,,,,,,,p,1,1.15,2.437201909,1,1,7,1,29,1,1,,,,,,,,,,,,,,
,,,,,,,,,,,right.png,,p,left,61095ad583e96c3096df5b0b,2021-10-27_11h10.34.063,arrow_simon_punish,2021.1.2,Win32,59.98440405,,,,,,,,,,,,,,p,1,1.4705,1.757825011,0,1,7,2,30,0,1,,,,,,,,,,,,,,
,,,,,,,,,,,right.png,,p,left,61095ad583e96c3096df5b0b,2021-10-27_11h10.34.063,arrow_simon_punish,2021.1.2,Win32,59.98440405,,,,,,,,,,,,,,p,1,0.8019,1.979450786,1,1,7,3,31,0,1,,,,,,,,,,,,,,
,,,,,,,,,,,left.png,,w,right,61095ad583e96c3096df5b0b,2021-10-27_11h10.34.063,arrow_simon_punish,2021.1.2,Win32,59.98440405,,,,,,,,,,,,,,p,0,1.1853,2.099873839,1,1,8,0,32,3,1,,,,,,,,,,,,,,
,,,,,,,,,,,left.png,,w,right,61095ad583e96c3096df5b0b,2021-10-27_11h10.34.063,arrow_simon_punish,2021.1.2,Win32,59.98440405,,,,,,,,,,,,,,p,0,0.7854,1.517572291,1,1,8,1,33,3,1,,,,,,,,,,,,,,
,,,,,,,,,,,right.png,,p,right,61095ad583e96c3096df5b0b,2021-10-27_11h10.34.063,arrow_simon_punish,2021.1.2,Win32,59.98440405,,,,,,,,,,,,,,p,1,0.6004,1.954950183,1,1,8,2,34,1,1,,,,,,,,,,,,,,
,,,,,,,,,,,left.png,,w,right,61095ad583e96c3096df5b0b,2021-10-27_11h10.34.063,arrow_simon_punish,2021.1.2,Win32,59.98440405,,,,,,,,,,,,,,p,0,1.4544,1.645731544,1,1,8,3,35,3,1,,,,,,,,,,,,,,
,,,,,,,,,,,left.png,,w,left,61095ad583e96c3096df5b0b,2021-10-27_11h10.34.063,arrow_simon_punish,2021.1.2,Win32,59.98440405,,,,,,,,,,,,,,p,0,3.323,2.000223372,1,1,9,0,36,2,1,,,,,,,,,,,,,,
,,,,,,,,,,,left.png,,w,right,61095ad583e96c3096df5b0b,2021-10-27_11h10.34.063,arrow_simon_punish,2021.1.2,Win32,59.98440405,,,,,,,,,,,,,,p,0,2.0049,1.762266412,1,1,9,1,37,3,1,,,,,,,,,,,,,,
,,,,,,,,,,,right.png,,p,right,61095ad583e96c3096df5b0b,2021-10-27_11h10.34.063,arrow_simon_punish,2021.1.2,Win32,59.98440405,,,,,,,,,,,,,,p,1,0.9399,1.583657465,1,1,9,2,38,1,1,,,,,,,,,,,,,,
,,,,,,,,,,,left.png,,w,left,61095ad583e96c3096df5b0b,2021-10-27_11h10.34.063,arrow_simon_punish,2021.1.2,Win32,59.98440405,,,,,,,,,,,,,,p,0,1.5502,1.670002134,1,1,9,3,39,2,1,,,,,,,,,,,,,,
,,,,,,,,,,,right.png,,p,right,61095ad583e96c3096df5b0b,2021-10-27_11h10.34.063,arrow_simon_punish,2021.1.2,Win32,59.98440405,,,,,,,,,,,,,,p,1,0.9012,1.562411548,1,1,10,0,40,1,1,,,,,,,,,,,,,,
,,,,,,,,,,,right.png,,p,left,61095ad583e96c3096df5b0b,2021-10-27_11h10.34.063,arrow_simon_punish,2021.1.2,Win32,59.98440405,,,,,,,,,,,,,,p,1,0.6672,1.992380216,1,1,10,1,41,0,1,,,,,,,,,,,,,,
,,,,,,,,,,,left.png,,w,right,61095ad583e96c3096df5b0b,2021-10-27_11h10.34.063,arrow_simon_punish,2021.1.2,Win32,59.98440405,,,,,,,,,,,,,,p,0,1.8283,2.459551181,1,1,10,2,42,3,1,,,,,,,,,,,,,,
,,,,,,,,,,,right.png,,p,left,61095ad583e96c3096df5b0b,2021-10-27_11h10.34.063,arrow_simon_punish,2021.1.2,Win32,59.98440405,,,,,,,,,,,,,,p,1,0.3383,1.572710595,1,1,10,3,43,0,1,,,,,,,,,,,,,,
,,,,,,,,,,,left.png,,w,right,61095ad583e96c3096df5b0b,2021-10-27_11h10.34.063,arrow_simon_punish,2021.1.2,Win32,59.98440405,,,,,,,,,,,,,,p,0,1.4033,1.814078205,1,1,11,0,44,3,1,,,,,,,,,,,,,,
,,,,,,,,,,,left.png,,w,right,61095ad583e96c3096df5b0b,2021-10-27_11h10.34.063,arrow_simon_punish,2021.1.2,Win32,59.98440405,,,,,,,,,,,,,,p,0,0.9309,2.102363065,1,1,11,1,45,3,1,,,,,,,,,,,,,,
,,,,,,,,,,,left.png,,w,left,61095ad583e96c3096df5b0b,2021-10-27_11h10.34.063,arrow_simon_punish,2021.1.2,Win32,59.98440405,,,,,,,,,,,,,,p,0,1.1666,1.903581025,1,1,11,2,46,2,1,,,,,,,,,,,,,,
,,,,,,,,,,,left.png,,w,left,61095ad583e96c3096df5b0b,2021-10-27_11h10.34.063,arrow_simon_punish,2021.1.2,Win32,59.98440405,,,,,,,,,,,,,,p,0,0.7568,2.455184597,1,1,11,3,47,2,1,,,,,,,,,,,,,,
,,,,,,,,,,,right.png,,p,left,61095ad583e96c3096df5b0b,2021-10-27_11h10.34.063,arrow_simon_punish,2021.1.2,Win32,59.98440405,,,,,,,,,,,,,,p,1,3.6286,1.530587856,1,1,12,0,48,0,1,,,,,,,,,,,,,,
,,,,,,,,,,,right.png,,p,right,61095ad583e96c3096df5b0b,2021-10-27_11h10.34.063,arrow_simon_punish,2021.1.2,Win32,59.98440405,,,,,,,,,,,,,,p,1,1.0348,2.219661828,1,1,12,1,49,1,1,,,,,,,,,,,,,,
,,,,,,,,,,,right.png,,p,left,61095ad583e96c3096df5b0b,2021-10-27_11h10.34.063,arrow_simon_punish,2021.1.2,Win32,59.98440405,,,,,,,,,,,,,,p,1,0.4084,2.427616256,1,1,12,2,50,0,1,,,,,,,,,,,,,,
,,,,,,,,,,,right.png,,p,right,61095ad583e96c3096df5b0b,2021-10-27_11h10.34.063,arrow_simon_punish,2021.1.2,Win32,59.98440405,,,,,,,,,,,,,,p,1,0.8337,1.569894569,1,1,12,3,51,1,1,,,,,,,,,,,,,,
,,,,,,,,,,,right.png,,p,left,61095ad583e96c3096df5b0b,2021-10-27_11h10.34.063,arrow_simon_punish,2021.1.2,Win32,59.98440405,,,,,,,,,,,,,,p,1,0.9228,1.842845465,1,1,13,0,52,0,1,,,,,,,,,,,,,,
,,,,,,,,,,,left.png,,w,left,61095ad583e96c3096df5b0b,2021-10-27_11h10.34.063,arrow_simon_punish,2021.1.2,Win32,59.98440405,,,,,,,,,,,,,,p,0,0.6045,1.918356762,1,1,13,1,53,2,1,,,,,,,,,,,,,,
,,,,,,,,,,,left.png,,w,right,61095ad583e96c3096df5b0b,2021-10-27_11h10.34.063,arrow_simon_punish,2021.1.2,Win32,59.98440405,,,,,,,,,,,,,,p,0,1.1443,1.652676811,1,1,13,2,54,3,1,,,,,,,,,,,,,,
,,,,,,,,,,,right.png,,p,left,61095ad583e96c3096df5b0b,2021-10-27_11h10.34.063,arrow_simon_punish,2021.1.2,Win32,59.98440405,,,,,,,,,,,,,,p,1,0.6387,2.10012246,1,1,13,3,55,0,1,,,,,,,,,,,,,,
,,,,,,,,,,,left.png,,w,right,61095ad583e96c3096df5b0b,2021-10-27_11h10.34.063,arrow_simon_punish,2021.1.2,Win32,59.98440405,,,,,,,,,,,,,,p,0,0.3339,2.314275686,1,1,14,0,56,3,1,,,,,,,,,,,,,,
,,,,,,,,,,,right.png,,p,left,61095ad583e96c3096df5b0b,2021-10-27_11h10.34.063,arrow_simon_punish,2021.1.2,Win32,59.98440405,,,,,,,,,,,,,,p,1,1.5836,1.652023305,0,1,14,1,57,0,1,,,,,,,,,,,,,,
,,,,,,,,,,,right.png,,p,right,61095ad583e96c3096df5b0b,2021-10-27_11h10.34.063,arrow_simon_punish,2021.1.2,Win32,59.98440405,,,,,,,,,,,,,,p,1,0.7063,2.093891338,1,1,14,2,58,1,1,,,,,,,,,,,,,,
,,,,,,,,,,,left.png,,w,left,61095ad583e96c3096df5b0b,2021-10-27_11h10.34.063,arrow_simon_punish,2021.1.2,Win32,59.98440405,,,,,,,,,,,,,,p,0,0.2673,1.731785997,1,1,14,3,59,2,1,,,,,,,,,,,,,,
,,,,,,,,,,,,,,,61095ad583e96c3096df5b0b,2021-10-27_11h10.34.063,arrow_simon_punish,2021.1.2,Win32,59.98440405,,,,,,,,,,,,,,,,,,,,,,,,,space,3.1508,8,3,0,6,0,1,1,,,,,
,,,,,,,,,,,left.png,,w,left,61095ad583e96c3096df5b0b,2021-10-27_11h10.34.063,arrow_simon_punish,2021.1.2,Win32,59.98440405,,,,,,,,,,,,,,p,0,0.861,1.511126488,1,5,0,0,0,2,1,,,,,,,,,,,,,,
,,,,,,,,,,,right.png,,p,left,61095ad583e96c3096df5b0b,2021-10-27_11h10.34.063,arrow_simon_punish,2021.1.2,Win32,59.98440405,,,,,,,,,,,,,,p,1,0.9061,2.100946074,1,5,0,1,1,0,1,,,,,,,,,,,,,,
,,,,,,,,,,,left.png,,w,right,61095ad583e96c3096df5b0b,2021-10-27_11h10.34.063,arrow_simon_punish,2021.1.2,Win32,59.98440405,,,,,,,,,,,,,,p,0,0.8119,2.225166414,1,5,0,2,2,3,1,,,,,,,,,,,,,,
,,,,,,,,,,,right.png,,p,right,61095ad583e96c3096df5b0b,2021-10-27_11h10.34.063,arrow_simon_punish,2021.1.2,Win32,59.98440405,,,,,,,,,,,,,,p,1,1.6421,1.642553807,1,5,0,3,3,1,1,,,,,,,,,,,,,,
,,,,,,,,,,,right.png,,p,left,61095ad583e96c3096df5b0b,2021-10-27_11h10.34.063,arrow_simon_punish,2021.1.2,Win32,59.98440405,,,,,,,,,,,,,,p,1,2.7536,2.495752765,1,5,1,0,4,0,1,,,,,,,,,,,,,,
,,,,,,,,,,,right.png,,p,left,61095ad583e96c3096df5b0b,2021-10-27_11h10.34.063,arrow_simon_punish,2021.1.2,Win32,59.98440405,,,,,,,,,,,,,,p,1,0.7051,1.906743586,1,5,1,1,5,0,1,,,,,,,,,,,,,,
,,,,,,,,,,,left.png,,w,left,61095ad583e96c3096df5b0b,2021-10-27_11h10.34.063,arrow_simon_punish,2021.1.2,Win32,59.98440405,,,,,,,,,,,,,,p,0,1.7235,2.341238835,1,5,1,2,6,2,1,,,,,,,,,,,,,,
,,,,,,,,,,,right.png,,p,right,61095ad583e96c3096df5b0b,2021-10-27_11h10.34.063,arrow_simon_punish,2021.1.2,Win32,59.98440405,,,,,,,,,,,,,,w,0,0.7575,2.218885942,1,5,1,3,7,1,1,,,,,,,,,,,,,,
,,,,,,,,,,,left.png,,w,left,61095ad583e96c3096df5b0b,2021-10-27_11h10.34.063,arrow_simon_punish,2021.1.2,Win32,59.98440405,,,,,,,,,,,,,,w,1,2.207,1.56780242,1,5,2,0,8,2,1,,,,,,,,,,,,,,
