instruct_resp_simon.keys,instruct_resp_simon.corr,instruct_resp_simon.rt,trial_resp_simon.keys,trial_resp_simon.corr,trial_resp_simon.rt,trials_train_simon.thisRepN,trials_train_simon.thisTrialN,trials_train_simon.thisN,trials_train_simon.thisIndex,trials_train_simon.ran,target_file,target_pos,target_resp,target_side,participant,date,expName,psychopyVersion,OS,frameRate,instruct_resp_timing.keys,instruct_resp_timing.corr,instruct_resp_timing.rt,trial_resp_timing.keys,trial_resp_timing.rt,trials_train_timing.thisRepN,trials_train_timing.thisTrialN,trials_train_timing.thisN,trials_train_timing.thisIndex,trials_train_timing.ran,instruct_resp.keys,instruct_resp.corr,instruct_resp.rt,trial_resp.keys,trial_resp.corr,trial_resp.rt,target_onset,err,pun,trials.thisRepN,trials.thisTrialN,trials.thisN,trials.thisIndex,trials.ran,block_note_resp.keys,block_note_resp.rt,block_num,blocks.thisRepN,blocks.thisTrialN,blocks.thisN,blocks.thisIndex,blocks.ran,punish,complete_resp.keys,complete_resp.rt,raffle_trial,raffle_err,raffle_rew
space,0,28.8503,p,1,1.5459,0,0,0,1,1,right.png,,p,right,610caddd4cac0d49d4261368,2021-10-27_10h53.57.810,arrow_simon_punish,2021.1.2,Win32,60.18295619,,,,,,,,,,,,,,,,,,,,,,,,,,,,,,,,,,,,,,
,,,w,1,1.6596,0,1,1,3,1,left.png,,w,right,610caddd4cac0d49d4261368,2021-10-27_10h53.57.810,arrow_simon_punish,2021.1.2,Win32,60.18295619,,,,,,,,,,,,,,,,,,,,,,,,,,,,,,,,,,,,,,
,,,p,1,1.2314,0,2,2,0,1,right.png,,p,left,610caddd4cac0d49d4261368,2021-10-27_10h53.57.810,arrow_simon_punish,2021.1.2,Win32,60.18295619,,,,,,,,,,,,,,,,,,,,,,,,,,,,,,,,,,,,,,
,,,w,1,1.1149,0,3,3,2,1,left.png,,w,left,610caddd4cac0d49d4261368,2021-10-27_10h53.57.810,arrow_simon_punish,2021.1.2,Win32,60.18295619,,,,,,,,,,,,,,,,,,,,,,,,,,,,,,,,,,,,,,
,,,p,1,1.6832,1,0,4,0,1,right.png,,p,left,610caddd4cac0d49d4261368,2021-10-27_10h53.57.810,arrow_simon_punish,2021.1.2,Win32,60.18295619,,,,,,,,,,,,,,,,,,,,,,,,,,,,,,,,,,,,,,
,,,w,1,1.4624,1,1,5,3,1,left.png,,w,right,610caddd4cac0d49d4261368,2021-10-27_10h53.57.810,arrow_simon_punish,2021.1.2,Win32,60.18295619,,,,,,,,,,,,,,,,,,,,,,,,,,,,,,,,,,,,,,
,,,p,1,1.2467,1,2,6,1,1,right.png,,p,right,610caddd4cac0d49d4261368,2021-10-27_10h53.57.810,arrow_simon_punish,2021.1.2,Win32,60.18295619,,,,,,,,,,,,,,,,,,,,,,,,,,,,,,,,,,,,,,
,,,w,1,1.2976,1,3,7,2,1,left.png,,w,left,610caddd4cac0d49d4261368,2021-10-27_10h53.57.810,arrow_simon_punish,2021.1.2,Win32,60.18295619,,,,,,,,,,,,,,,,,,,,,,,,,,,,,,,,,,,,,,
,,,p,1,0.9827,2,0,8,0,1,right.png,,p,left,610caddd4cac0d49d4261368,2021-10-27_10h53.57.810,arrow_simon_punish,2021.1.2,Win32,60.18295619,,,,,,,,,,,,,,,,,,,,,,,,,,,,,,,,,,,,,,
,,,w,1,1.1646,2,1,9,2,1,left.png,,w,left,610caddd4cac0d49d4261368,2021-10-27_10h53.57.810,arrow_simon_punish,2021.1.2,Win32,60.18295619,,,,,,,,,,,,,,,,,,,,,,,,,,,,,,,,,,,,,,
,,,p,1,0.7937,2,2,10,1,1,right.png,,p,right,610caddd4cac0d49d4261368,2021-10-27_10h53.57.810,arrow_simon_punish,2021.1.2,Win32,60.18295619,,,,,,,,,,,,,,,,,,,,,,,,,,,,,,,,,,,,,,
,,,w,1,0.7365,2,3,11,3,1,left.png,,w,right,610caddd4cac0d49d4261368,2021-10-27_10h53.57.810,arrow_simon_punish,2021.1.2,Win32,60.18295619,,,,,,,,,,,,,,,,,,,,,,,,,,,,,,,,,,,,,,
,,,w,1,1.0858,3,0,12,2,1,left.png,,w,left,610caddd4cac0d49d4261368,2021-10-27_10h53.57.810,arrow_simon_punish,2021.1.2,Win32,60.18295619,,,,,,,,,,,,,,,,,,,,,,,,,,,,,,,,,,,,,,
,,,p,1,0.9815,3,1,13,1,1,right.png,,p,right,610caddd4cac0d49d4261368,2021-10-27_10h53.57.810,arrow_simon_punish,2021.1.2,Win32,60.18295619,,,,,,,,,,,,,,,,,,,,,,,,,,,,,,,,,,,,,,
,,,p,1,1.55,3,2,14,0,1,right.png,,p,left,610caddd4cac0d49d4261368,2021-10-27_10h53.57.810,arrow_simon_punish,2021.1.2,Win32,60.18295619,,,,,,,,,,,,,,,,,,,,,,,,,,,,,,,,,,,,,,
,,,w,1,1.7599,3,3,15,3,1,left.png,,w,right,610caddd4cac0d49d4261368,2021-10-27_10h53.57.810,arrow_simon_punish,2021.1.2,Win32,60.18295619,,,,,,,,,,,,,,,,,,,,,,,,,,,,,,,,,,,,,,
,,,w,1,1.0319,4,0,16,3,1,left.png,,w,right,610caddd4cac0d49d4261368,2021-10-27_10h53.57.810,arrow_simon_punish,2021.1.2,Win32,60.18295619,,,,,,,,,,,,,,,,,,,,,,,,,,,,,,,,,,,,,,
,,,p,1,1.2626,4,1,17,0,1,right.png,,p,left,610caddd4cac0d49d4261368,2021-10-27_10h53.57.810,arrow_simon_punish,2021.1.2,Win32,60.18295619,,,,,,,,,,,,,,,,,,,,,,,,,,,,,,,,,,,,,,
,,,p,1,1.1164,4,2,18,1,1,right.png,,p,right,610caddd4cac0d49d4261368,2021-10-27_10h53.57.810,arrow_simon_punish,2021.1.2,Win32,60.18295619,,,,,,,,,,,,,,,,,,,,,,,,,,,,,,,,,,,,,,
,,,w,1,1.3174,4,3,19,2,1,left.png,,w,left,610caddd4cac0d49d4261368,2021-10-27_10h53.57.810,arrow_simon_punish,2021.1.2,Win32,60.18295619,,,,,,,,,,,,,,,,,,,,,,,,,,,,,,,,,,,,,,
,,,w,1,1.0839,5,0,20,2,1,left.png,,w,left,610caddd4cac0d49d4261368,2021-10-27_10h53.57.810,arrow_simon_punish,2021.1.2,Win32,60.18295619,,,,,,,,,,,,,,,,,,,,,,,,,,,,,,,,,,,,,,
,,,w,1,0.9644,5,1,21,3,1,left.png,,w,right,610caddd4cac0d49d4261368,2021-10-27_10h53.57.810,arrow_simon_punish,2021.1.2,Win32,60.18295619,,,,,,,,,,,,,,,,,,,,,,,,,,,,,,,,,,,,,,
,,,p,1,1.1618,5,2,22,1,1,right.png,,p,right,610caddd4cac0d49d4261368,2021-10-27_10h53.57.810,arrow_simon_punish,2021.1.2,Win32,60.18295619,,,,,,,,,,,,,,,,,,,,,,,,,,,,,,,,,,,,,,
,,,p,1,1.4527,5,3,23,0,1,right.png,,p,left,610caddd4cac0d49d4261368,2021-10-27_10h53.57.810,arrow_simon_punish,2021.1.2,Win32,60.18295619,,,,,,,,,,,,,,,,,,,,,,,,,,,,,,,,,,,,,,
,,,w,1,1.2795,6,0,24,2,1,left.png,,w,left,610caddd4cac0d49d4261368,2021-10-27_10h53.57.810,arrow_simon_punish,2021.1.2,Win32,60.18295619,,,,,,,,,,,,,,,,,,,,,,,,,,,,,,,,,,,,,,
,,,w,1,0.8533,6,1,25,3,1,left.png,,w,right,610caddd4cac0d49d4261368,2021-10-27_10h53.57.810,arrow_simon_punish,2021.1.2,Win32,60.18295619,,,,,,,,,,,,,,,,,,,,,,,,,,,,,,,,,,,,,,
,,,p,1,1.5336,6,2,26,1,1,right.png,,p,right,610caddd4cac0d49d4261368,2021-10-27_10h53.57.810,arrow_simon_punish,2021.1.2,Win32,60.18295619,,,,,,,,,,,,,,,,,,,,,,,,,,,,,,,,,,,,,,
,,,p,1,1.6249,6,3,27,0,1,right.png,,p,left,610caddd4cac0d49d4261368,2021-10-27_10h53.57.810,arrow_simon_punish,2021.1.2,Win32,60.18295619,,,,,,,,,,,,,,,,,,,,,,,,,,,,,,,,,,,,,,
,,,p,1,1.2318,7,0,28,0,1,right.png,,p,left,610caddd4cac0d49d4261368,2021-10-27_10h53.57.810,arrow_simon_punish,2021.1.2,Win32,60.18295619,,,,,,,,,,,,,,,,,,,,,,,,,,,,,,,,,,,,,,
,,,w,1,1.0497,7,1,29,2,1,left.png,,w,left,610caddd4cac0d49d4261368,2021-10-27_10h53.57.810,arrow_simon_punish,2021.1.2,Win32,60.18295619,,,,,,,,,,,,,,,,,,,,,,,,,,,,,,,,,,,,,,
,,,p,1,0.9816,7,2,30,1,1,right.png,,p,right,610caddd4cac0d49d4261368,2021-10-27_10h53.57.810,arrow_simon_punish,2021.1.2,Win32,60.18295619,,,,,,,,,,,,,,,,,,,,,,,,,,,,,,,,,,,,,,
,,,w,1,1.3032,7,3,31,3,1,left.png,,w,right,610caddd4cac0d49d4261368,2021-10-27_10h53.57.810,arrow_simon_punish,2021.1.2,Win32,60.18295619,,,,,,,,,,,,,,,,,,,,,,,,,,,,,,,,,,,,,,
,,,p,1,1.5015,8,0,32,0,1,right.png,,p,left,610caddd4cac0d49d4261368,2021-10-27_10h53.57.810,arrow_simon_punish,2021.1.2,Win32,60.18295619,,,,,,,,,,,,,,,,,,,,,,,,,,,,,,,,,,,,,,
,,,p,0,1.2481,8,1,33,3,1,left.png,,w,right,610caddd4cac0d49d4261368,2021-10-27_10h53.57.810,arrow_simon_punish,2021.1.2,Win32,60.18295619,,,,,,,,,,,,,,,,,,,,,,,,,,,,,,,,,,,,,,
,,,p,1,0.8959,8,2,34,1,1,right.png,,p,right,610caddd4cac0d49d4261368,2021-10-27_10h53.57.810,arrow_simon_punish,2021.1.2,Win32,60.18295619,,,,,,,,,,,,,,,,,,,,,,,,,,,,,,,,,,,,,,
,,,w,1,1.3108,8,3,35,2,1,left.png,,w,left,610caddd4cac0d49d4261368,2021-10-27_10h53.57.810,arrow_simon_punish,2021.1.2,Win32,60.18295619,,,,,,,,,,,,,,,,,,,,,,,,,,,,,,,,,,,,,,
,,,p,1,1.316,9,0,36,1,1,right.png,,p,right,610caddd4cac0d49d4261368,2021-10-27_10h53.57.810,arrow_simon_punish,2021.1.2,Win32,60.18295619,,,,,,,,,,,,,,,,,,,,,,,,,,,,,,,,,,,,,,
,,,p,1,1.0485,9,1,37,0,1,right.png,,p,left,610caddd4cac0d49d4261368,2021-10-27_10h53.57.810,arrow_simon_punish,2021.1.2,Win32,60.18295619,,,,,,,,,,,,,,,,,,,,,,,,,,,,,,,,,,,,,,
,,,w,1,1.0151,9,2,38,3,1,left.png,,w,right,610caddd4cac0d49d4261368,2021-10-27_10h53.57.810,arrow_simon_punish,2021.1.2,Win32,60.18295619,,,,,,,,,,,,,,,,,,,,,,,,,,,,,,,,,,,,,,
,,,w,1,0.8151,9,3,39,2,1,left.png,,w,left,610caddd4cac0d49d4261368,2021-10-27_10h53.57.810,arrow_simon_punish,2021.1.2,Win32,60.18295619,,,,,,,,,,,,,,,,,,,,,,,,,,,,,,,,,,,,,,
,,,,,,,,,,,,,,,610caddd4cac0d49d4261368,2021-10-27_10h53.57.810,arrow_simon_punish,2021.1.2,Win32,60.18295619,space,0,228.3656,p,2.8762,0,0,0,0,1,,,,,,,,,,,,,,,,,,,,,,,,,,,,
,,,,,,,,,,,,,,,610caddd4cac0d49d4261368,2021-10-27_10h53.57.810,arrow_simon_punish,2021.1.2,Win32,60.18295619,,,,p,2.8079,1,0,1,0,1,,,,,,,,,,,,,,,,,,,,,,,,,,,,
,,,,,,,,,,,,,,,610caddd4cac0d49d4261368,2021-10-27_10h53.57.810,arrow_simon_punish,2021.1.2,Win32,60.18295619,,,,p,2.4445,2,0,2,0,1,,,,,,,,,,,,,,,,,,,,,,,,,,,,
,,,,,,,,,,,,,,,610caddd4cac0d49d4261368,2021-10-27_10h53.57.810,arrow_simon_punish,2021.1.2,Win32,60.18295619,,,,w,2.4281,3,0,3,0,1,,,,,,,,,,,,,,,,,,,,,,,,,,,,
,,,,,,,,,,,,,,,610caddd4cac0d49d4261368,2021-10-27_10h53.57.810,arrow_simon_punish,2021.1.2,Win32,60.18295619,,,,p,2.3562,4,0,4,0,1,,,,,,,,,,,,,,,,,,,,,,,,,,,,
,,,,,,,,,,,,,,,610caddd4cac0d49d4261368,2021-10-27_10h53.57.810,arrow_simon_punish,2021.1.2,Win32,60.18295619,,,,p,2.4787,5,0,5,0,1,,,,,,,,,,,,,,,,,,,,,,,,,,,,
,,,,,,,,,,,,,,,610caddd4cac0d49d4261368,2021-10-27_10h53.57.810,arrow_simon_punish,2021.1.2,Win32,60.18295619,,,,w,2.5444,6,0,6,0,1,,,,,,,,,,,,,,,,,,,,,,,,,,,,
,,,,,,,,,,,,,,,610caddd4cac0d49d4261368,2021-10-27_10h53.57.810,arrow_simon_punish,2021.1.2,Win32,60.18295619,,,,w,2.4902,7,0,7,0,1,,,,,,,,,,,,,,,,,,,,,,,,,,,,
,,,,,,,,,,,,,,,610caddd4cac0d49d4261368,2021-10-27_10h53.57.810,arrow_simon_punish,2021.1.2,Win32,60.18295619,,,,p,2.5497,8,0,8,0,1,,,,,,,,,,,,,,,,,,,,,,,,,,,,
,,,,,,,,,,,,,,,610caddd4cac0d49d4261368,2021-10-27_10h53.57.810,arrow_simon_punish,2021.1.2,Win32,60.18295619,,,,w,2.488,9,0,9,0,1,,,,,,,,,,,,,,,,,,,,,,,,,,,,
,,,,,,,,,,,,,,,610caddd4cac0d49d4261368,2021-10-27_10h53.57.810,arrow_simon_punish,2021.1.2,Win32,60.18295619,,,,p,2.589,10,0,10,0,1,,,,,,,,,,,,,,,,,,,,,,,,,,,,
,,,,,,,,,,,,,,,610caddd4cac0d49d4261368,2021-10-27_10h53.57.810,arrow_simon_punish,2021.1.2,Win32,60.18295619,,,,w,2.5476,11,0,11,0,1,,,,,,,,,,,,,,,,,,,,,,,,,,,,
,,,,,,,,,,,,,,,610caddd4cac0d49d4261368,2021-10-27_10h53.57.810,arrow_simon_punish,2021.1.2,Win32,60.18295619,,,,p,2.4935,12,0,12,0,1,,,,,,,,,,,,,,,,,,,,,,,,,,,,
,,,,,,,,,,,,,,,610caddd4cac0d49d4261368,2021-10-27_10h53.57.810,arrow_simon_punish,2021.1.2,Win32,60.18295619,,,,w,2.5448,13,0,13,0,1,,,,,,,,,,,,,,,,,,,,,,,,,,,,
,,,,,,,,,,,,,,,610caddd4cac0d49d4261368,2021-10-27_10h53.57.810,arrow_simon_punish,2021.1.2,Win32,60.18295619,,,,p,2.3726,14,0,14,0,1,,,,,,,,,,,,,,,,,,,,,,,,,,,,
,,,,,,,,,,,,,,,610caddd4cac0d49d4261368,2021-10-27_10h53.57.810,arrow_simon_punish,2021.1.2,Win32,60.18295619,,,,w,2.6108,15,0,15,0,1,,,,,,,,,,,,,,,,,,,,,,,,,,,,
,,,,,,,,,,,,,,,610caddd4cac0d49d4261368,2021-10-27_10h53.57.810,arrow_simon_punish,2021.1.2,Win32,60.18295619,,,,p,2.589,16,0,16,0,1,,,,,,,,,,,,,,,,,,,,,,,,,,,,
,,,,,,,,,,,,,,,610caddd4cac0d49d4261368,2021-10-27_10h53.57.810,arrow_simon_punish,2021.1.2,Win32,60.18295619,,,,w,2.0986,17,0,17,0,1,,,,,,,,,,,,,,,,,,,,,,,,,,,,
,,,,,,,,,,,,,,,610caddd4cac0d49d4261368,2021-10-27_10h53.57.810,arrow_simon_punish,2021.1.2,Win32,60.18295619,,,,p,2.5327,18,0,18,0,1,,,,,,,,,,,,,,,,,,,,,,,,,,,,
,,,,,,,,,,,,,,,610caddd4cac0d49d4261368,2021-10-27_10h53.57.810,arrow_simon_punish,2021.1.2,Win32,60.18295619,,,,w,2.5066,19,0,19,0,1,,,,,,,,,,,,,,,,,,,,,,,,,,,,
,,,,,,,,,,,,,,,610caddd4cac0d49d4261368,2021-10-27_10h53.57.810,arrow_simon_punish,2021.1.2,Win32,60.18295619,,,,w,2.5885,20,0,20,0,1,,,,,,,,,,,,,,,,,,,,,,,,,,,,
,,,,,,,,,,,,,,,610caddd4cac0d49d4261368,2021-10-27_10h53.57.810,arrow_simon_punish,2021.1.2,Win32,60.18295619,,,,p,2.5465,21,0,21,0,1,,,,,,,,,,,,,,,,,,,,,,,,,,,,
,,,,,,,,,,,,,,,610caddd4cac0d49d4261368,2021-10-27_10h53.57.810,arrow_simon_punish,2021.1.2,Win32,60.18295619,,,,w,2.5094,22,0,22,0,1,,,,,,,,,,,,,,,,,,,,,,,,,,,,
,,,,,,,,,,,,,,,610caddd4cac0d49d4261368,2021-10-27_10h53.57.810,arrow_simon_punish,2021.1.2,Win32,60.18295619,,,,p,2.4481,23,0,23,0,1,,,,,,,,,,,,,,,,,,,,,,,,,,,,
,,,,,,,,,,,,,,,610caddd4cac0d49d4261368,2021-10-27_10h53.57.810,arrow_simon_punish,2021.1.2,Win32,60.18295619,,,,p,2.4589,24,0,24,0,1,,,,,,,,,,,,,,,,,,,,,,,,,,,,
,,,,,,,,,,,,,,,610caddd4cac0d49d4261368,2021-10-27_10h53.57.810,arrow_simon_punish,2021.1.2,Win32,60.18295619,,,,w,2.4591,25,0,25,0,1,,,,,,,,,,,,,,,,,,,,,,,,,,,,
,,,,,,,,,,,,,,,610caddd4cac0d49d4261368,2021-10-27_10h53.57.810,arrow_simon_punish,2021.1.2,Win32,60.18295619,,,,w,2.4802,26,0,26,0,1,,,,,,,,,,,,,,,,,,,,,,,,,,,,
,,,,,,,,,,,,,,,610caddd4cac0d49d4261368,2021-10-27_10h53.57.810,arrow_simon_punish,2021.1.2,Win32,60.18295619,,,,w,2.4776,27,0,27,0,1,,,,,,,,,,,,,,,,,,,,,,,,,,,,
,,,,,,,,,,,,,,,610caddd4cac0d49d4261368,2021-10-27_10h53.57.810,arrow_simon_punish,2021.1.2,Win32,60.18295619,,,,p,2.4965,28,0,28,0,1,,,,,,,,,,,,,,,,,,,,,,,,,,,,
,,,,,,,,,,,,,,,610caddd4cac0d49d4261368,2021-10-27_10h53.57.810,arrow_simon_punish,2021.1.2,Win32,60.18295619,,,,w,2.5489,29,0,29,0,1,,,,,,,,,,,,,,,,,,,,,,,,,,,,
,,,,,,,,,,,,,,,610caddd4cac0d49d4261368,2021-10-27_10h53.57.810,arrow_simon_punish,2021.1.2,Win32,60.18295619,,,,p,2.4945,30,0,30,0,1,,,,,,,,,,,,,,,,,,,,,,,,,,,,
,,,,,,,,,,,,,,,610caddd4cac0d49d4261368,2021-10-27_10h53.57.810,arrow_simon_punish,2021.1.2,Win32,60.18295619,,,,w,2.5069,31,0,31,0,1,,,,,,,,,,,,,,,,,,,,,,,,,,,,
,,,,,,,,,,,,,,,610caddd4cac0d49d4261368,2021-10-27_10h53.57.810,arrow_simon_punish,2021.1.2,Win32,60.18295619,,,,w,2.5279,32,0,32,0,1,,,,,,,,,,,,,,,,,,,,,,,,,,,,
,,,,,,,,,,,,,,,610caddd4cac0d49d4261368,2021-10-27_10h53.57.810,arrow_simon_punish,2021.1.2,Win32,60.18295619,,,,w,2.4858,33,0,33,0,1,,,,,,,,,,,,,,,,,,,,,,,,,,,,
,,,,,,,,,,,,,,,610caddd4cac0d49d4261368,2021-10-27_10h53.57.810,arrow_simon_punish,2021.1.2,Win32,60.18295619,,,,p,1.8871,34,0,34,0,1,,,,,,,,,,,,,,,,,,,,,,,,,,,,
,,,,,,,,,,,,,,,610caddd4cac0d49d4261368,2021-10-27_10h53.57.810,arrow_simon_punish,2021.1.2,Win32,60.18295619,,,,p,2.5447,35,0,35,0,1,,,,,,,,,,,,,,,,,,,,,,,,,,,,
,,,,,,,,,,,,,,,610caddd4cac0d49d4261368,2021-10-27_10h53.57.810,arrow_simon_punish,2021.1.2,Win32,60.18295619,,,,p,2.4489,36,0,36,0,1,,,,,,,,,,,,,,,,,,,,,,,,,,,,
,,,,,,,,,,,,,,,610caddd4cac0d49d4261368,2021-10-27_10h53.57.810,arrow_simon_punish,2021.1.2,Win32,60.18295619,,,,w,2.4871,37,0,37,0,1,,,,,,,,,,,,,,,,,,,,,,,,,,,,
,,,,,,,,,,,,,,,610caddd4cac0d49d4261368,2021-10-27_10h53.57.810,arrow_simon_punish,2021.1.2,Win32,60.18295619,,,,w,2.5454,38,0,38,0,1,,,,,,,,,,,,,,,,,,,,,,,,,,,,
,,,,,,,,,,,,,,,610caddd4cac0d49d4261368,2021-10-27_10h53.57.810,arrow_simon_punish,2021.1.2,Win32,60.18295619,,,,p,2.51,39,0,39,0,1,,,,,,,,,,,,,,,,,,,,,,,,,,,,
,,,,,,,,,,,,,,,610caddd4cac0d49d4261368,2021-10-27_10h53.57.810,arrow_simon_punish,2021.1.2,Win32,60.18295619,,,,p,2.457,40,0,40,0,1,,,,,,,,,,,,,,,,,,,,,,,,,,,,
,,,,,,,,,,,,,,,610caddd4cac0d49d4261368,2021-10-27_10h53.57.810,arrow_simon_punish,2021.1.2,Win32,60.18295619,,,,w,2.4272,41,0,41,0,1,,,,,,,,,,,,,,,,,,,,,,,,,,,,
,,,,,,,,,,,,,,,610caddd4cac0d49d4261368,2021-10-27_10h53.57.810,arrow_simon_punish,2021.1.2,Win32,60.18295619,,,,p,2.4279,42,0,42,0,1,,,,,,,,,,,,,,,,,,,,,,,,,,,,
,,,,,,,,,,,,,,,610caddd4cac0d49d4261368,2021-10-27_10h53.57.810,arrow_simon_punish,2021.1.2,Win32,60.18295619,,,,w,2.4097,43,0,43,0,1,,,,,,,,,,,,,,,,,,,,,,,,,,,,
,,,,,,,,,,,,,,,610caddd4cac0d49d4261368,2021-10-27_10h53.57.810,arrow_simon_punish,2021.1.2,Win32,60.18295619,,,,p,2.4475,44,0,44,0,1,,,,,,,,,,,,,,,,,,,,,,,,,,,,
,,,,,,,,,,,,,,,610caddd4cac0d49d4261368,2021-10-27_10h53.57.810,arrow_simon_punish,2021.1.2,Win32,60.18295619,,,,w,2.4338,45,0,45,0,1,,,,,,,,,,,,,,,,,,,,,,,,,,,,
,,,,,,,,,,,,,,,610caddd4cac0d49d4261368,2021-10-27_10h53.57.810,arrow_simon_punish,2021.1.2,Win32,60.18295619,,,,p,2.4223,46,0,46,0,1,,,,,,,,,,,,,,,,,,,,,,,,,,,,
,,,,,,,,,,,,,,,610caddd4cac0d49d4261368,2021-10-27_10h53.57.810,arrow_simon_punish,2021.1.2,Win32,60.18295619,,,,p,2.4063,47,0,47,0,1,,,,,,,,,,,,,,,,,,,,,,,,,,,,
,,,,,,,,,,,,,,,610caddd4cac0d49d4261368,2021-10-27_10h53.57.810,arrow_simon_punish,2021.1.2,Win32,60.18295619,,,,p,2.4111,48,0,48,0,1,,,,,,,,,,,,,,,,,,,,,,,,,,,,
,,,,,,,,,,,,,,,610caddd4cac0d49d4261368,2021-10-27_10h53.57.810,arrow_simon_punish,2021.1.2,Win32,60.18295619,,,,w,2.2314,49,0,49,0,1,,,,,,,,,,,,,,,,,,,,,,,,,,,,
,,,,,,,,,,,,,,,610caddd4cac0d49d4261368,2021-10-27_10h53.57.810,arrow_simon_punish,2021.1.2,Win32,60.18295619,,,,w,2.4296,50,0,50,0,1,,,,,,,,,,,,,,,,,,,,,,,,,,,,
,,,,,,,,,,,,,,,610caddd4cac0d49d4261368,2021-10-27_10h53.57.810,arrow_simon_punish,2021.1.2,Win32,60.18295619,,,,w,2.4287,51,0,51,0,1,,,,,,,,,,,,,,,,,,,,,,,,,,,,
,,,,,,,,,,,,,,,610caddd4cac0d49d4261368,2021-10-27_10h53.57.810,arrow_simon_punish,2021.1.2,Win32,60.18295619,,,,w,1.218,52,0,52,0,1,,,,,,,,,,,,,,,,,,,,,,,,,,,,
,,,,,,,,,,,,,,,610caddd4cac0d49d4261368,2021-10-27_10h53.57.810,arrow_simon_punish,2021.1.2,Win32,60.18295619,,,,w,2.3819,53,0,53,0,1,,,,,,,,,,,,,,,,,,,,,,,,,,,,
,,,,,,,,,,,,,,,610caddd4cac0d49d4261368,2021-10-27_10h53.57.810,arrow_simon_punish,2021.1.2,Win32,60.18295619,,,,w,2.4893,54,0,54,0,1,,,,,,,,,,,,,,,,,,,,,,,,,,,,
,,,,,,,,,,,,,,,610caddd4cac0d49d4261368,2021-10-27_10h53.57.810,arrow_simon_punish,2021.1.2,Win32,60.18295619,,,,w,2.4601,55,0,55,0,1,,,,,,,,,,,,,,,,,,,,,,,,,,,,
,,,,,,,,,,,,,,,610caddd4cac0d49d4261368,2021-10-27_10h53.57.810,arrow_simon_punish,2021.1.2,Win32,60.18295619,,,,w,2.4474,56,0,56,0,1,,,,,,,,,,,,,,,,,,,,,,,,,,,,
,,,,,,,,,,,,,,,610caddd4cac0d49d4261368,2021-10-27_10h53.57.810,arrow_simon_punish,2021.1.2,Win32,60.18295619,,,,w,2.4451,57,0,57,0,1,,,,,,,,,,,,,,,,,,,,,,,,,,,,
,,,,,,,,,,,,,,,610caddd4cac0d49d4261368,2021-10-27_10h53.57.810,arrow_simon_punish,2021.1.2,Win32,60.18295619,,,,w,2.4283,58,0,58,0,1,,,,,,,,,,,,,,,,,,,,,,,,,,,,
,,,,,,,,,,,,,,,610caddd4cac0d49d4261368,2021-10-27_10h53.57.810,arrow_simon_punish,2021.1.2,Win32,60.18295619,,,,p,2.4588,59,0,59,0,1,,,,,,,,,,,,,,,,,,,,,,,,,,,,
,,,,,,,,,,,right.png,,p,left,610caddd4cac0d49d4261368,2021-10-27_10h53.57.810,arrow_simon_punish,2021.1.2,Win32,60.18295619,,,,,,,,,,,space,0,725.9208,w,0,2.0099,1.990461286,1,1,0,0,0,0,1,,,,,,,,,,,,,,
,,,,,,,,,,,left.png,,w,right,610caddd4cac0d49d4261368,2021-10-27_10h53.57.810,arrow_simon_punish,2021.1.2,Win32,60.18295619,,,,,,,,,,,,,,w,1,1.7851,1.73766331,1,1,0,1,1,3,1,,,,,,,,,,,,,,
,,,,,,,,,,,left.png,,w,left,610caddd4cac0d49d4261368,2021-10-27_10h53.57.810,arrow_simon_punish,2021.1.2,Win32,60.18295619,,,,,,,,,,,,,,w,1,1.538,1.533245652,0,1,0,2,2,2,1,,,,,,,,,,,,,,
,,,,,,,,,,,right.png,,p,right,610caddd4cac0d49d4261368,2021-10-27_10h53.57.810,arrow_simon_punish,2021.1.2,Win32,60.18295619,,,,,,,,,,,,,,w,0,1.5971,1.733654312,1,1,0,3,3,1,1,,,,,,,,,,,,,,
,,,,,,,,,,,right.png,,p,right,610caddd4cac0d49d4261368,2021-10-27_10h53.57.810,arrow_simon_punish,2021.1.2,Win32,60.18295619,,,,,,,,,,,,,,p,1,1.6632,2.30603813,1,1,1,0,4,1,1,,,,,,,,,,,,,,
,,,,,,,,,,,right.png,,p,left,610caddd4cac0d49d4261368,2021-10-27_10h53.57.810,arrow_simon_punish,2021.1.2,Win32,60.18295619,,,,,,,,,,,,,,p,1,1.4919,1.6124038,0,1,1,1,5,0,1,,,,,,,,,,,,,,
,,,,,,,,,,,left.png,,w,right,610caddd4cac0d49d4261368,2021-10-27_10h53.57.810,arrow_simon_punish,2021.1.2,Win32,60.18295619,,,,,,,,,,,,,,w,1,1.5537,1.85264365,0,1,1,2,6,3,1,,,,,,,,,,,,,,
,,,,,,,,,,,right.png,,p,left,610caddd4cac0d49d4261368,2021-10-27_10h53.57.810,arrow_simon_punish,2021.1.2,Win32,60.18295619,,,,,,,,,,,,,,w,0,1.6132,2.308139062,1,1,1,3,7,0,1,,,,,,,,,,,,,,
,,,,,,,,,,,left.png,,w,left,610caddd4cac0d49d4261368,2021-10-27_10h53.57.810,arrow_simon_punish,2021.1.2,Win32,60.18295619,,,,,,,,,,,,,,w,1,1.3974,1.890311945,1,1,2,0,8,2,1,,,,,,,,,,,,,,
,,,,,,,,,,,left.png,,w,left,610caddd4cac0d49d4261368,2021-10-27_10h53.57.810,arrow_simon_punish,2021.1.2,Win32,60.18295619,,,,,,,,,,,,,,w,1,1.6018,2.092372695,1,1,2,1,9,2,1,,,,,,,,,,,,,,
,,,,,,,,,,,left.png,,w,left,610caddd4cac0d49d4261368,2021-10-27_10h53.57.810,arrow_simon_punish,2021.1.2,Win32,60.18295619,,,,,,,,,,,,,,w,1,1.5528,2.000993296,0,1,2,2,10,2,1,,,,,,,,,,,,,,
,,,,,,,,,,,left.png,,w,right,610caddd4cac0d49d4261368,2021-10-27_10h53.57.810,arrow_simon_punish,2021.1.2,Win32,60.18295619,,,,,,,,,,,,,,p,0,1.5853,2.206461782,1,1,2,3,11,3,1,,,,,,,,,,,,,,
,,,,,,,,,,,left.png,,w,left,610caddd4cac0d49d4261368,2021-10-27_10h53.57.810,arrow_simon_punish,2021.1.2,Win32,60.18295619,,,,,,,,,,,,,,w,1,1.5213,1.70708579,0,1,3,0,12,2,1,,,,,,,,,,,,,,
,,,,,,,,,,,left.png,,w,left,610caddd4cac0d49d4261368,2021-10-27_10h53.57.810,arrow_simon_punish,2021.1.2,Win32,60.18295619,,,,,,,,,,,,,,w,1,1.5712,2.219869703,0,1,3,1,13,2,1,,,,,,,,,,,,,,
,,,,,,,,,,,right.png,,p,left,610caddd4cac0d49d4261368,2021-10-27_10h53.57.810,arrow_simon_punish,2021.1.2,Win32,60.18295619,,,,,,,,,,,,,,p,1,1.5719,1.60213789,0,1,3,2,14,0,1,,,,,,,,,,,,,,
,,,,,,,,,,,left.png,,w,right,610caddd4cac0d49d4261368,2021-10-27_10h53.57.810,arrow_simon_punish,2021.1.2,Win32,60.18295619,,,,,,,,,,,,,,w,1,1.6682,1.931055738,1,1,3,3,15,3,1,,,,,,,,,,,,,,
,,,,,,,,,,,left.png,,w,left,610caddd4cac0d49d4261368,2021-10-27_10h53.57.810,arrow_simon_punish,2021.1.2,Win32,60.18295619,,,,,,,,,,,,,,w,1,1.4733,1.83878456,0,1,4,0,16,2,1,,,,,,,,,,,,,,
,,,,,,,,,,,right.png,,p,right,610caddd4cac0d49d4261368,2021-10-27_10h53.57.810,arrow_simon_punish,2021.1.2,Win32,60.18295619,,,,,,,,,,,,,,w,0,1.0806,2.453047745,1,1,4,1,17,1,1,,,,,,,,,,,,,,
,,,,,,,,,,,right.png,,p,right,610caddd4cac0d49d4261368,2021-10-27_10h53.57.810,arrow_simon_punish,2021.1.2,Win32,60.18295619,,,,,,,,,,,,,,p,1,3.6588,2.369620077,1,1,4,2,18,1,1,,,,,,,,,,,,,,
,,,,,,,,,,,right.png,,p,left,610caddd4cac0d49d4261368,2021-10-27_10h53.57.810,arrow_simon_punish,2021.1.2,Win32,60.18295619,,,,,,,,,,,,,,p,1,1.6142,2.15631026,1,1,4,3,19,0,1,,,,,,,,,,,,,,
,,,,,,,,,,,right.png,,p,left,610caddd4cac0d49d4261368,2021-10-27_10h53.57.810,arrow_simon_punish,2021.1.2,Win32,60.18295619,,,,,,,,,,,,,,p,1,1.4288,1.914626847,0,1,5,0,20,0,1,,,,,,,,,,,,,,
,,,,,,,,,,,left.png,,w,right,610caddd4cac0d49d4261368,2021-10-27_10h53.57.810,arrow_simon_punish,2021.1.2,Win32,60.18295619,,,,,,,,,,,,,,w,1,1.5036,2.016961411,0,1,5,1,21,3,1,,,,,,,,,,,,,,
,,,,,,,,,,,left.png,,w,left,610caddd4cac0d49d4261368,2021-10-27_10h53.57.810,arrow_simon_punish,2021.1.2,Win32,60.18295619,,,,,,,,,,,,,,w,1,1.6597,2.336250495,1,1,5,2,22,2,1,,,,,,,,,,,,,,
,,,,,,,,,,,left.png,,w,right,610caddd4cac0d49d4261368,2021-10-27_10h53.57.810,arrow_simon_punish,2021.1.2,Win32,60.18295619,,,,,,,,,,,,,,w,1,1.4812,1.705518678,0,1,5,3,23,3,1,,,,,,,,,,,,,,
,,,,,,,,,,,right.png,,p,left,610caddd4cac0d49d4261368,2021-10-27_10h53.57.810,arrow_simon_punish,2021.1.2,Win32,60.18295619,,,,,,,,,,,,,,w,0,1.6521,2.369775424,1,1,6,0,24,0,1,,,,,,,,,,,,,,
,,,,,,,,,,,right.png,,p,right,610caddd4cac0d49d4261368,2021-10-27_10h53.57.810,arrow_simon_punish,2021.1.2,Win32,60.18295619,,,,,,,,,,,,,,p,1,1.3853,1.58323462,1,1,6,1,25,1,1,,,,,,,,,,,,,,
,,,,,,,,,,,right.png,,p,left,610caddd4cac0d49d4261368,2021-10-27_10h53.57.810,arrow_simon_punish,2021.1.2,Win32,60.18295619,,,,,,,,,,,,,,w,0,1.4761,2.167729753,1,1,6,2,26,0,1,,,,,,,,,,,,,,
,,,,,,,,,,,left.png,,w,right,610caddd4cac0d49d4261368,2021-10-27_10h53.57.810,arrow_simon_punish,2021.1.2,Win32,60.18295619,,,,,,,,,,,,,,w,1,1.2966,1.879322377,1,1,6,3,27,3,1,,,,,,,,,,,,,,
,,,,,,,,,,,right.png,,p,right,610caddd4cac0d49d4261368,2021-10-27_10h53.57.810,arrow_simon_punish,2021.1.2,Win32,60.18295619,,,,,,,,,,,,,,p,1,1.7851,2.47393264,1,1,7,0,28,1,1,,,,,,,,,,,,,,
,,,,,,,,,,,right.png,,p,left,610caddd4cac0d49d4261368,2021-10-27_10h53.57.810,arrow_simon_punish,2021.1.2,Win32,60.18295619,,,,,,,,,,,,,,p,1,1.3862,1.878652577,1,1,7,1,29,0,1,,,,,,,,,,,,,,
,,,,,,,,,,,left.png,,w,left,610caddd4cac0d49d4261368,2021-10-27_10h53.57.810,arrow_simon_punish,2021.1.2,Win32,60.18295619,,,,,,,,,,,,,,w,1,1.4398,2.059981279,0,1,7,2,30,2,1,,,,,,,,,,,,,,
,,,,,,,,,,,right.png,,p,right,610caddd4cac0d49d4261368,2021-10-27_10h53.57.810,arrow_simon_punish,2021.1.2,Win32,60.18295619,,,,,,,,,,,,,,p,1,1.4312,1.93458786,0,1,7,3,31,1,1,,,,,,,,,,,,,,
,,,,,,,,,,,right.png,,p,right,610caddd4cac0d49d4261368,2021-10-27_10h53.57.810,arrow_simon_punish,2021.1.2,Win32,60.18295619,,,,,,,,,,,,,,w,0,1.5474,2.39313202,1,1,8,0,32,1,1,,,,,,,,,,,,,,
,,,,,,,,,,,left.png,,w,right,610caddd4cac0d49d4261368,2021-10-27_10h53.57.810,arrow_simon_punish,2021.1.2,Win32,60.18295619,,,,,,,,,,,,,,w,1,1.5188,2.05038097,0,1,8,1,33,3,1,,,,,,,,,,,,,,
,,,,,,,,,,,left.png,,w,left,610caddd4cac0d49d4261368,2021-10-27_10h53.57.810,arrow_simon_punish,2021.1.2,Win32,60.18295619,,,,,,,,,,,,,,w,1,1.4922,1.511608353,0,1,8,2,34,2,1,,,,,,,,,,,,,,
,,,,,,,,,,,left.png,,w,right,610caddd4cac0d49d4261368,2021-10-27_10h53.57.810,arrow_simon_punish,2021.1.2,Win32,60.18295619,,,,,,,,,,,,,,w,1,1.9056,2.466611375,1,1,8,3,35,3,1,,,,,,,,,,,,,,
,,,,,,,,,,,left.png,,w,right,610caddd4cac0d49d4261368,2021-10-27_10h53.57.810,arrow_simon_punish,2021.1.2,Win32,60.18295619,,,,,,,,,,,,,,w,1,1.546,2.207994481,0,1,9,0,36,3,1,,,,,,,,,,,,,,
,,,,,,,,,,,left.png,,w,right,610caddd4cac0d49d4261368,2021-10-27_10h53.57.810,arrow_simon_punish,2021.1.2,Win32,60.18295619,,,,,,,,,,,,,,w,1,1.6164,2.460689043,1,1,9,1,37,3,1,,,,,,,,,,,,,,
,,,,,,,,,,,left.png,,w,right,610caddd4cac0d49d4261368,2021-10-27_10h53.57.810,arrow_simon_punish,2021.1.2,Win32,60.18295619,,,,,,,,,,,,,,w,1,1.5473,1.975292284,0,1,9,2,38,3,1,,,,,,,,,,,,,,
,,,,,,,,,,,right.png,,p,left,610caddd4cac0d49d4261368,2021-10-27_10h53.57.810,arrow_simon_punish,2021.1.2,Win32,60.18295619,,,,,,,,,,,,,,p,1,1.6187,2.088748218,1,1,9,3,39,0,1,,,,,,,,,,,,,,
,,,,,,,,,,,left.png,,w,left,610caddd4cac0d49d4261368,2021-10-27_10h53.57.810,arrow_simon_punish,2021.1.2,Win32,60.18295619,,,,,,,,,,,,,,w,1,1.3527,1.698490038,1,1,10,0,40,2,1,,,,,,,,,,,,,,
,,,,,,,,,,,right.png,,p,left,610caddd4cac0d49d4261368,2021-10-27_10h53.57.810,arrow_simon_punish,2021.1.2,Win32,60.18295619,,,,,,,,,,,,,,p,1,1.5527,1.739646181,0,1,10,1,41,0,1,,,,,,,,,,,,,,
,,,,,,,,,,,right.png,,p,right,610caddd4cac0d49d4261368,2021-10-27_10h53.57.810,arrow_simon_punish,2021.1.2,Win32,60.18295619,,,,,,,,,,,,,,w,0,1.6411,2.406264923,1,1,10,2,42,1,1,,,,,,,,,,,,,,
,,,,,,,,,,,right.png,,p,left,610caddd4cac0d49d4261368,2021-10-27_10h53.57.810,arrow_simon_punish,2021.1.2,Win32,60.18295619,,,,,,,,,,,,,,p,1,1.2099,1.567984701,1,1,10,3,43,0,1,,,,,,,,,,,,,,
,,,,,,,,,,,right.png,,p,right,610caddd4cac0d49d4261368,2021-10-27_10h53.57.810,arrow_simon_punish,2021.1.2,Win32,60.18295619,,,,,,,,,,,,,,w,0,1.5501,2.414270685,1,1,11,0,44,1,1,,,,,,,,,,,,,,
,,,,,,,,,,,left.png,,w,left,610caddd4cac0d49d4261368,2021-10-27_10h53.57.810,arrow_simon_punish,2021.1.2,Win32,60.18295619,,,,,,,,,,,,,,w,1,1.8297,2.427412204,1,1,11,1,45,2,1,,,,,,,,,,,,,,
,,,,,,,,,,,right.png,,p,right,610caddd4cac0d49d4261368,2021-10-27_10h53.57.810,arrow_simon_punish,2021.1.2,Win32,60.18295619,,,,,,,,,,,,,,p,1,1.8185,2.495375721,1,1,11,2,46,1,1,,,,,,,,,,,,,,
,,,,,,,,,,,left.png,,w,left,610caddd4cac0d49d4261368,2021-10-27_10h53.57.810,arrow_simon_punish,2021.1.2,Win32,60.18295619,,,,,,,,,,,,,,w,1,1.6029,1.663701782,1,1,11,3,47,2,1,,,,,,,,,,,,,,
,,,,,,,,,,,right.png,,p,left,610caddd4cac0d49d4261368,2021-10-27_10h53.57.810,arrow_simon_punish,2021.1.2,Win32,60.18295619,,,,,,,,,,,,,,p,1,1.5471,1.960260778,0,1,12,0,48,0,1,,,,,,,,,,,,,,
,,,,,,,,,,,right.png,,p,left,610caddd4cac0d49d4261368,2021-10-27_10h53.57.810,arrow_simon_punish,2021.1.2,Win32,60.18295619,,,,,,,,,,,,,,p,1,1.3924,1.916654063,1,1,12,1,49,0,1,,,,,,,,,,,,,,
,,,,,,,,,,,left.png,,w,left,610caddd4cac0d49d4261368,2021-10-27_10h53.57.810,arrow_simon_punish,2021.1.2,Win32,60.18295619,,,,,,,,,,,,,,w,1,1.5868,2.142658949,0,1,12,2,50,2,1,,,,,,,,,,,,,,
,,,,,,,,,,,right.png,,p,right,610caddd4cac0d49d4261368,2021-10-27_10h53.57.810,arrow_simon_punish,2021.1.2,Win32,60.18295619,,,,,,,,,,,,,,p,1,1.6685,2.376499384,1,1,12,3,51,1,1,,,,,,,,,,,,,,
,,,,,,,,,,,left.png,,w,right,610caddd4cac0d49d4261368,2021-10-27_10h53.57.810,arrow_simon_punish,2021.1.2,Win32,60.18295619,,,,,,,,,,,,,,w,1,1.4443,1.701778609,0,1,13,0,52,3,1,,,,,,,,,,,,,,
,,,,,,,,,,,left.png,,w,right,610caddd4cac0d49d4261368,2021-10-27_10h53.57.810,arrow_simon_punish,2021.1.2,Win32,60.18295619,,,,,,,,,,,,,,p,0,1.7445,2.454392849,1,1,13,1,53,3,1,,,,,,,,,,,,,,
,,,,,,,,,,,right.png,,p,right,610caddd4cac0d49d4261368,2021-10-27_10h53.57.810,arrow_simon_punish,2021.1.2,Win32,60.18295619,,,,,,,,,,,,,,w,0,0.0507,2.1449794,1,1,13,2,54,1,1,,,,,,,,,,,,,,
,,,,,,,,,,,right.png,,p,right,610caddd4cac0d49d4261368,2021-10-27_10h53.57.810,arrow_simon_punish,2021.1.2,Win32,60.18295619,,,,,,,,,,,,,,p,1,1.1768,1.740745727,1,1,13,3,55,1,1,,,,,,,,,,,,,,
,,,,,,,,,,,left.png,,w,left,610caddd4cac0d49d4261368,2021-10-27_10h53.57.810,arrow_simon_punish,2021.1.2,Win32,60.18295619,,,,,,,,,,,,,,w,1,1.5354,2.047473949,0,1,14,0,56,2,1,,,,,,,,,,,,,,
,,,,,,,,,,,right.png,,p,left,610caddd4cac0d49d4261368,2021-10-27_10h53.57.810,arrow_simon_punish,2021.1.2,Win32,60.18295619,,,,,,,,,,,,,,w,0,1.7521,2.412790997,1,1,14,1,57,0,1,,,,,,,,,,,,,,
,,,,,,,,,,,right.png,,p,right,610caddd4cac0d49d4261368,2021-10-27_10h53.57.810,arrow_simon_punish,2021.1.2,Win32,60.18295619,,,,,,,,,,,,,,p,1,1.5969,1.542653425,0,1,14,2,58,1,1,,,,,,,,,,,,,,
,,,,,,,,,,,left.png,,w,right,610caddd4cac0d49d4261368,2021-10-27_10h53.57.810,arrow_simon_punish,2021.1.2,Win32,60.18295619,,,,,,,,,,,,,,w,1,1.5814,2.446262207,0,1,14,3,59,3,1,,,,,,,,,,,,,,
,,,,,,,,,,,,,,,610caddd4cac0d49d4261368,2021-10-27_10h53.57.810,arrow_simon_punish,2021.1.2,Win32,60.18295619,,,,,,,,,,,,,,,,,,,,,,,,,space,61.3628,2,0,0,0,0,1,1,,,,,
,,,,,,,,,,,left.png,,w,left,610caddd4cac0d49d4261368,2021-10-27_10h53.57.810,arrow_simon_punish,2021.1.2,Win32,60.18295619,,,,,,,,,,,,,,w,1,1.4531,1.949927681,0,5,0,0,0,2,1,,,,,,,,,,,,,,
,,,,,,,,,,,left.png,,w,right,610caddd4cac0d49d4261368,2021-10-27_10h53.57.810,arrow_simon_punish,2021.1.2,Win32,60.18295619,,,,,,,,,,,,,,w,1,1.6966,2.163928212,1,5,0,1,1,3,1,,,,,,,,,,,,,,
,,,,,,,,,,,right.png,,p,right,610caddd4cac0d49d4261368,2021-10-27_10h53.57.810,arrow_simon_punish,2021.1.2,Win32,60.18295619,,,,,,,,,,,,,,p,1,1.5012,1.515350135,0,5,0,2,2,1,1,,,,,,,,,,,,,,
,,,,,,,,,,,left.png,,w,left,610caddd4cac0d49d4261368,2021-10-27_10h53.57.810,arrow_simon_punish,2021.1.2,Win32,60.18295619,,,,,,,,,,,,,,w,1,1.5133,1.574940288,0,5,0,3,3,2,1,,,,,,,,,,,,,,
,,,,,,,,,,,right.png,,p,left,610caddd4cac0d49d4261368,2021-10-27_10h53.57.810,arrow_simon_punish,2021.1.2,Win32,60.18295619,,,,,,,,,,,,,,p,1,1.5304,1.801068133,0,5,1,0,4,0,1,,,,,,,,,,,,,,
,,,,,,,,,,,right.png,,p,right,610caddd4cac0d49d4261368,2021-10-27_10h53.57.810,arrow_simon_punish,2021.1.2,Win32,60.18295619,,,,,,,,,,,,,,p,1,1.6801,2.02435514,1,5,1,1,5,1,1,,,,,,,,,,,,,,
,,,,,,,,,,,right.png,,p,left,610caddd4cac0d49d4261368,2021-10-27_10h53.57.810,arrow_simon_punish,2021.1.2,Win32,60.18295619,,,,,,,,,,,,,,p,1,1.5682,2.04405767,0,5,1,2,6,0,1,,,,,,,,,,,,,,
,,,,,,,,,,,left.png,,w,right,610caddd4cac0d49d4261368,2021-10-27_10h53.57.810,arrow_simon_punish,2021.1.2,Win32,60.18295619,,,,,,,,,,,,,,p,0,1.7615,2.498123926,1,5,1,3,7,3,1,,,,,,,,,,,,,,
,,,,,,,,,,,left.png,,w,left,610caddd4cac0d49d4261368,2021-10-27_10h53.57.810,arrow_simon_punish,2021.1.2,Win32,60.18295619,,,,,,,,,,,,,,p,0,1.0815,2.495281141,1,5,2,0,8,2,1,,,,,,,,,,,,,,
,,,,,,,,,,,left.png,,w,right,610caddd4cac0d49d4261368,2021-10-27_10h53.57.810,arrow_simon_punish,2021.1.2,Win32,60.18295619,,,,,,,,,,,,,,p,0,1.5138,1.521229376,1,5,2,1,9,3,1,,,,,,,,,,,,,,
,,,,,,,,,,,right.png,,p,right,610caddd4cac0d49d4261368,2021-10-27_10h53.57.810,arrow_simon_punish,2021.1.2,Win32,60.18295619,,,,,,,,,,,,,,p,1,1.5519,2.156765156,0,5,2,2,10,1,1,,,,,,,,,,,,,,
,,,,,,,,,,,left.png,,w,right,610caddd4cac0d49d4261368,2021-10-27_10h53.57.810,arrow_simon_punish,2021.1.2,Win32,60.18295619,,,,,,,,,,,,,,w,1,1.5136,2.474306069,0,5,2,3,11,3,1,,,,,,,,,,,,,,
,,,,,,,,,,,right.png,,p,right,610caddd4cac0d49d4261368,2021-10-27_10h53.57.810,arrow_simon_punish,2021.1.2,Win32,60.18295619,,,,,,,,,,,,,,p,1,1.7134,2.129868641,1,5,3,0,12,1,1,,,,,,,,,,,,,,
,,,,,,,,,,,right.png,,p,right,610caddd4cac0d49d4261368,2021-10-27_10h53.57.810,arrow_simon_punish,2021.1.2,Win32,60.18295619,,,,,,,,,,,,,,p,1,1.4828,1.70469556,0,5,3,1,13,1,1,,,,,,,,,,,,,,
,,,,,,,,,,,right.png,,p,left,610caddd4cac0d49d4261368,2021-10-27_10h53.57.810,arrow_simon_punish,2021.1.2,Win32,60.18295619,,,,,,,,,,,,,,p,1,1.5366,1.5189063,0,5,3,2,14,0,1,,,,,,,,,,,,,,
,,,,,,,,,,,left.png,,w,left,610caddd4cac0d49d4261368,2021-10-27_10h53.57.810,arrow_simon_punish,2021.1.2,Win32,60.18295619,,,,,,,,,,,,,,w,1,1.532,2.147927865,0,5,3,3,15,2,1,,,,,,,,,,,,,,
,,,,,,,,,,,left.png,,w,left,610caddd4cac0d49d4261368,2021-10-27_10h53.57.810,arrow_simon_punish,2021.1.2,Win32,60.18295619,,,,,,,,,,,,,,w,1,1.5303,1.59676631,0,5,4,0,16,2,1,,,,,,,,,,,,,,
,,,,,,,,,,,left.png,,w,left,610caddd4cac0d49d4261368,2021-10-27_10h53.57.810,arrow_simon_punish,2021.1.2,Win32,60.18295619,,,,,,,,,,,,,,w,1,1.5357,2.104151207,0,5,4,1,17,2,1,,,,,,,,,,,,,,
,,,,,,,,,,,left.png,,w,right,610caddd4cac0d49d4261368,2021-10-27_10h53.57.810,arrow_simon_punish,2021.1.2,Win32,60.18295619,,,,,,,,,,,,,,w,1,1.6115,1.583010379,1,5,4,2,18,3,1,,,,,,,,,,,,,,
,,,,,,,,,,,right.png,,p,left,610caddd4cac0d49d4261368,2021-10-27_10h53.57.810,arrow_simon_punish,2021.1.2,Win32,60.18295619,,,,,,,,,,,,,,w,0,1.6222,2.317585934,1,5,4,3,19,0,1,,,,,,,,,,,,,,
,,,,,,,,,,,right.png,,p,right,610caddd4cac0d49d4261368,2021-10-27_10h53.57.810,arrow_simon_punish,2021.1.2,Win32,60.18295619,,,,,,,,,,,,,,p,1,1.8968,2.469520004,1,5,5,0,20,1,1,,,,,,,,,,,,,,
,,,,,,,,,,,left.png,,w,left,610caddd4cac0d49d4261368,2021-10-27_10h53.57.810,arrow_simon_punish,2021.1.2,Win32,60.18295619,,,,,,,,,,,,,,w,1,1.5418,2.112539692,0,5,5,1,21,2,1,,,,,,,,,,,,,,
,,,,,,,,,,,right.png,,p,right,610caddd4cac0d49d4261368,2021-10-27_10h53.57.810,arrow_simon_punish,2021.1.2,Win32,60.18295619,,,,,,,,,,,,,,p,1,1.4345,1.814743671,0,5,5,2,22,1,1,,,,,,,,,,,,,,
,,,,,,,,,,,left.png,,w,right,610caddd4cac0d49d4261368,2021-10-27_10h53.57.810,arrow_simon_punish,2021.1.2,Win32,60.18295619,,,,,,,,,,,,,,p,0,1.7528,2.410896121,1,5,5,3,23,3,1,,,,,,,,,,,,,,
,,,,,,,,,,,left.png,,w,left,610caddd4cac0d49d4261368,2021-10-27_10h53.57.810,arrow_simon_punish,2021.1.2,Win32,60.18295619,,,,,,,,,,,,,,w,1,1.5325,1.936020443,0,5,6,0,24,2,1,,,,,,,,,,,,,,
,,,,,,,,,,,right.png,,p,left,610caddd4cac0d49d4261368,2021-10-27_10h53.57.810,arrow_simon_punish,2021.1.2,Win32,60.18295619,,,,,,,,,,,,,,p,1,1.3823,1.850584597,1,5,6,1,25,0,1,,,,,,,,,,,,,,
,,,,,,,,,,,right.png,,p,left,610caddd4cac0d49d4261368,2021-10-27_10h53.57.810,arrow_simon_punish,2021.1.2,Win32,60.18295619,,,,,,,,,,,,,,w,0,1.6304,2.177856752,1,5,6,2,26,0,1,,,,,,,,,,,,,,
,,,,,,,,,,,left.png,,w,left,610caddd4cac0d49d4261368,2021-10-27_10h53.57.810,arrow_simon_punish,2021.1.2,Win32,60.18295619,,,,,,,,,,,,,,w,1,1.4419,1.894951876,0,5,6,3,27,2,1,,,,,,,,,,,,,,
,,,,,,,,,,,right.png,,p,right,610caddd4cac0d49d4261368,2021-10-27_10h53.57.810,arrow_simon_punish,2021.1.2,Win32,60.18295619,,,,,,,,,,,,,,p,1,1.5774,2.223173955,0,5,7,0,28,1,1,,,,,,,,,,,,,,
,,,,,,,,,,,left.png,,w,right,610caddd4cac0d49d4261368,2021-10-27_10h53.57.810,arrow_simon_punish,2021.1.2,Win32,60.18295619,,,,,,,,,,,,,,p,0,1.6315,2.25527239,1,5,7,1,29,3,1,,,,,,,,,,,,,,
,,,,,,,,,,,right.png,,p,left,610caddd4cac0d49d4261368,2021-10-27_10h53.57.810,arrow_simon_punish,2021.1.2,Win32,60.18295619,,,,,,,,,,,,,,p,1,1.3573,1.840658074,1,5,7,2,30,0,1,,,,,,,,,,,,,,
,,,,,,,,,,,left.png,,w,right,610caddd4cac0d49d4261368,2021-10-27_10h53.57.810,arrow_simon_punish,2021.1.2,Win32,60.18295619,,,,,,,,,,,,,,p,0,1.5507,1.634588289,1,5,7,3,31,3,1,,,,,,,,,,,,,,
,,,,,,,,,,,left.png,,w,left,610caddd4cac0d49d4261368,2021-10-27_10h53.57.810,arrow_simon_punish,2021.1.2,Win32,60.18295619,,,,,,,,,,,,,,w,1,1.5151,1.914594685,0,5,8,0,32,2,1,,,,,,,,,,,,,,
,,,,,,,,,,,right.png,,p,left,610caddd4cac0d49d4261368,2021-10-27_10h53.57.810,arrow_simon_punish,2021.1.2,Win32,60.18295619,,,,,,,,,,,,,,p,1,1.3029,1.801119319,1,5,8,1,33,0,1,,,,,,,,,,,,,,
,,,,,,,,,,,left.png,,w,left,610caddd4cac0d49d4261368,2021-10-27_10h53.57.810,arrow_simon_punish,2021.1.2,Win32,60.18295619,,,,,,,,,,,,,,w,1,1.5339,1.939326273,0,5,8,2,34,2,1,,,,,,,,,,,,,,
,,,,,,,,,,,left.png,,w,right,610caddd4cac0d49d4261368,2021-10-27_10h53.57.810,arrow_simon_punish,2021.1.2,Win32,60.18295619,,,,,,,,,,,,,,p,0,1.4659,2.051357063,1,5,8,3,35,3,1,,,,,,,,,,,,,,
,,,,,,,,,,,right.png,,p,left,610caddd4cac0d49d4261368,2021-10-27_10h53.57.810,arrow_simon_punish,2021.1.2,Win32,60.18295619,,,,,,,,,,,,,,w,0,1.469,2.064135511,1,5,9,0,36,0,1,,,,,,,,,,,,,,
,,,,,,,,,,,right.png,,p,right,610caddd4cac0d49d4261368,2021-10-27_10h53.57.810,arrow_simon_punish,2021.1.2,Win32,60.18295619,,,,,,,,,,,,,,p,1,1.7841,2.468464228,1,5,9,1,37,1,1,,,,,,,,,,,,,,
,,,,,,,,,,,left.png,,w,left,610caddd4cac0d49d4261368,2021-10-27_10h53.57.810,arrow_simon_punish,2021.1.2,Win32,60.18295619,,,,,,,,,,,,,,p,0,1.4751,1.717661448,1,5,9,2,38,2,1,,,,,,,,,,,,,,
,,,,,,,,,,,right.png,,p,right,610caddd4cac0d49d4261368,2021-10-27_10h53.57.810,arrow_simon_punish,2021.1.2,Win32,60.18295619,,,,,,,,,,,,,,p,1,1.6972,2.296983684,1,5,9,3,39,1,1,,,,,,,,,,,,,,
,,,,,,,,,,,right.png,,p,left,610caddd4cac0d49d4261368,2021-10-27_10h53.57.810,arrow_simon_punish,2021.1.2,Win32,60.18295619,,,,,,,,,,,,,,p,1,1.4806,1.937320429,0,5,10,0,40,0,1,,,,,,,,,,,,,,
,,,,,,,,,,,right.png,,p,left,610caddd4cac0d49d4261368,2021-10-27_10h53.57.810,arrow_simon_punish,2021.1.2,Win32,60.18295619,,,,,,,,,,,,,,p,1,1.475,1.840769815,0,5,10,1,41,0,1,,,,,,,,,,,,,,
,,,,,,,,,,,left.png,,w,left,610caddd4cac0d49d4261368,2021-10-27_10h53.57.810,arrow_simon_punish,2021.1.2,Win32,60.18295619,,,,,,,,,,,,,,w,1,1.4026,1.802448509,0,5,10,2,42,2,1,,,,,,,,,,,,,,
,,,,,,,,,,,left.png,,w,left,610caddd4cac0d49d4261368,2021-10-27_10h53.57.810,arrow_simon_punish,2021.1.2,Win32,60.18295619,,,,,,,,,,,,,,w,1,1.5139,2.06946751,0,5,10,3,43,2,1,,,,,,,,,,,,,,
,,,,,,,,,,,right.png,,p,right,610caddd4cac0d49d4261368,2021-10-27_10h53.57.810,arrow_simon_punish,2021.1.2,Win32,60.18295619,,,,,,,,,,,,,,p,1,1.523,1.866763705,0,5,11,0,44,1,1,,,,,,,,,,,,,,
,,,,,,,,,,,left.png,,w,right,610caddd4cac0d49d4261368,2021-10-27_10h53.57.810,arrow_simon_punish,2021.1.2,Win32,60.18295619,,,,,,,,,,,,,,w,1,1.5876,2.171642475,0,5,11,1,45,3,1,,,,,,,,,,,,,,
,,,,,,,,,,,left.png,,w,left,610caddd4cac0d49d4261368,2021-10-27_10h53.57.810,arrow_simon_punish,2021.1.2,Win32,60.18295619,,,,,,,,,,,,,,w,1,1.5346,2.116951688,0,5,11,2,46,2,1,,,,,,,,,,,,,,
,,,,,,,,,,,left.png,,w,right,610caddd4cac0d49d4261368,2021-10-27_10h53.57.810,arrow_simon_punish,2021.1.2,Win32,60.18295619,,,,,,,,,,,,,,p,0,1.8705,2.470402544,1,5,11,3,47,3,1,,,,,,,,,,,,,,
,,,,,,,,,,,right.png,,p,left,610caddd4cac0d49d4261368,2021-10-27_10h53.57.810,arrow_simon_punish,2021.1.2,Win32,60.18295619,,,,,,,,,,,,,,w,0,2.246,1.572123608,1,5,12,0,48,0,1,,,,,,,,,,,,,,
,,,,,,,,,,,left.png,,w,right,610caddd4cac0d49d4261368,2021-10-27_10h53.57.810,arrow_simon_punish,2021.1.2,Win32,60.18295619,,,,,,,,,,,,,,w,1,1.838,2.049315679,1,5,12,1,49,3,1,,,,,,,,,,,,,,
,,,,,,,,,,,right.png,,p,right,610caddd4cac0d49d4261368,2021-10-27_10h53.57.810,arrow_simon_punish,2021.1.2,Win32,60.18295619,,,,,,,,,,,,,,p,1,1.4672,1.784267169,0,5,12,2,50,1,1,,,,,,,,,,,,,,
,,,,,,,,,,,right.png,,p,right,610caddd4cac0d49d4261368,2021-10-27_10h53.57.810,arrow_simon_punish,2021.1.2,Win32,60.18295619,,,,,,,,,,,,,,p,1,1.5301,2.076449101,0,5,12,3,51,1,1,,,,,,,,,,,,,,
,,,,,,,,,,,right.png,,p,left,610caddd4cac0d49d4261368,2021-10-27_10h53.57.810,arrow_simon_punish,2021.1.2,Win32,60.18295619,,,,,,,,,,,,,,p,1,1.5523,1.621819143,0,5,13,0,52,0,1,,,,,,,,,,,,,,
,,,,,,,,,,,right.png,,p,left,610caddd4cac0d49d4261368,2021-10-27_10h53.57.810,arrow_simon_punish,2021.1.2,Win32,60.18295619,,,,,,,,,,,,,,w,0,1.6724,2.401990183,1,5,13,1,53,0,1,,,,,,,,,,,,,,
,,,,,,,,,,,right.png,,p,left,610caddd4cac0d49d4261368,2021-10-27_10h53.57.810,arrow_simon_punish,2021.1.2,Win32,60.18295619,,,,,,,,,,,,,,w,0,1.6365,2.324590718,1,5,13,2,54,0,1,,,,,,,,,,,,,,
,,,,,,,,,,,left.png,,w,right,610caddd4cac0d49d4261368,2021-10-27_10h53.57.810,arrow_simon_punish,2021.1.2,Win32,60.18295619,,,,,,,,,,,,,,w,1,1.5169,1.727318689,0,5,13,3,55,3,1,,,,,,,,,,,,,,
,,,,,,,,,,,left.png,,w,right,610caddd4cac0d49d4261368,2021-10-27_10h53.57.810,arrow_simon_punish,2021.1.2,Win32,60.18295619,,,,,,,,,,,,,,w,1,1.4815,1.771456669,0,5,14,0,56,3,1,,,,,,,,,,,,,,
,,,,,,,,,,,right.png,,p,right,610caddd4cac0d49d4261368,2021-10-27_10h53.57.810,arrow_simon_punish,2021.1.2,Win32,60.18295619,,,,,,,,,,,,,,p,1,1.5159,2.076980226,0,5,14,1,57,1,1,,,,,,,,,,,,,,
,,,,,,,,,,,right.png,,p,right,610caddd4cac0d49d4261368,2021-10-27_10h53.57.810,arrow_simon_punish,2021.1.2,Win32,60.18295619,,,,,,,,,,,,,,p,1,1.4309,1.622313023,0,5,14,2,58,1,1,,,,,,,,,,,,,,
,,,,,,,,,,,left.png,,w,right,610caddd4cac0d49d4261368,2021-10-27_10h53.57.810,arrow_simon_punish,2021.1.2,Win32,60.18295619,,,,,,,,,,,,,,w,1,1.6902,2.189458593,1,5,14,3,59,3,1,,,,,,,,,,,,,,
,,,,,,,,,,,,,,,610caddd4cac0d49d4261368,2021-10-27_10h53.57.810,arrow_simon_punish,2021.1.2,Win32,60.18295619,,,,,,,,,,,,,,,,,,,,,,,,,space,241.6432,3,0,1,1,1,1,5,,,,,
,,,,,,,,,,,left.png,,w,left,610caddd4cac0d49d4261368,2021-10-27_10h53.57.810,arrow_simon_punish,2021.1.2,Win32,60.18295619,,,,,,,,,,,,,,w,1,1.7977,1.519407963,1,1,0,0,0,2,1,,,,,,,,,,,,,,
,,,,,,,,,,,left.png,,w,right,610caddd4cac0d49d4261368,2021-10-27_10h53.57.810,arrow_simon_punish,2021.1.2,Win32,60.18295619,,,,,,,,,,,,,,p,0,1.6136,2.087659241,1,1,0,1,1,3,1,,,,,,,,,,,,,,
,,,,,,,,,,,left.png,,w,left,610caddd4cac0d49d4261368,2021-10-27_10h53.57.810,arrow_simon_punish,2021.1.2,Win32,60.18295619,,,,,,,,,,,,,,w,1,1.6853,2.357566994,1,1,0,2,2,2,1,,,,,,,,,,,,,,
,,,,,,,,,,,right.png,,p,left,610caddd4cac0d49d4261368,2021-10-27_10h53.57.810,arrow_simon_punish,2021.1.2,Win32,60.18295619,,,,,,,,,,,,,,p,1,1.5306,1.992893958,0,1,0,3,3,0,1,,,,,,,,,,,,,,
,,,,,,,,,,,left.png,,w,right,610caddd4cac0d49d4261368,2021-10-27_10h53.57.810,arrow_simon_punish,2021.1.2,Win32,60.18295619,,,,,,,,,,,,,,w,1,1.6006,2.464872038,1,1,1,0,4,3,1,,,,,,,,,,,,,,
,,,,,,,,,,,left.png,,w,right,610caddd4cac0d49d4261368,2021-10-27_10h53.57.810,arrow_simon_punish,2021.1.2,Win32,60.18295619,,,,,,,,,,,,,,p,0,1.445,2.114055616,1,1,1,1,5,3,1,,,,,,,,,,,,,,
,,,,,,,,,,,left.png,,w,right,610caddd4cac0d49d4261368,2021-10-27_10h53.57.810,arrow_simon_punish,2021.1.2,Win32,60.18295619,,,,,,,,,,,,,,p,0,1.4475,1.884707067,1,1,1,2,6,3,1,,,,,,,,,,,,,,
,,,,,,,,,,,left.png,,w,left,610caddd4cac0d49d4261368,2021-10-27_10h53.57.810,arrow_simon_punish,2021.1.2,Win32,60.18295619,,,,,,,,,,,,,,w,1,1.5089,2.27529694,0,1,1,3,7,2,1,,,,,,,,,,,,,,
,,,,,,,,,,,left.png,,w,right,610caddd4cac0d49d4261368,2021-10-27_10h53.57.810,arrow_simon_punish,2021.1.2,Win32,60.18295619,,,,,,,,,,,,,,w,1,1.4527,1.993465808,0,1,2,0,8,3,1,,,,,,,,,,,,,,
,,,,,,,,,,,right.png,,p,right,610caddd4cac0d49d4261368,2021-10-27_10h53.57.810,arrow_simon_punish,2021.1.2,Win32,60.18295619,,,,,,,,,,,,,,w,0,1.597,2.382774852,1,1,2,1,9,1,1,,,,,,,,,,,,,,
,,,,,,,,,,,right.png,,p,left,610caddd4cac0d49d4261368,2021-10-27_10h53.57.810,arrow_simon_punish,2021.1.2,Win32,60.18295619,,,,,,,,,,,,,,p,1,1.4991,1.645270247,0,1,2,2,10,0,1,,,,,,,,,,,,,,
,,,,,,,,,,,left.png,,w,right,610caddd4cac0d49d4261368,2021-10-27_10h53.57.810,arrow_simon_punish,2021.1.2,Win32,60.18295619,,,,,,,,,,,,,,p,0,1.5022,1.921603746,1,1,2,3,11,3,1,,,,,,,,,,,,,,
,,,,,,,,,,,right.png,,p,left,610caddd4cac0d49d4261368,2021-10-27_10h53.57.810,arrow_simon_punish,2021.1.2,Win32,60.18295619,,,,,,,,,,,,,,p,1,1.5635,2.383602375,0,1,3,0,12,0,1,,,,,,,,,,,,,,
,,,,,,,,,,,right.png,,p,left,610caddd4cac0d49d4261368,2021-10-27_10h53.57.810,arrow_simon_punish,2021.1.2,Win32,60.18295619,,,,,,,,,,,,,,p,1,1.364,1.834041829,1,1,3,1,13,0,1,,,,,,,,,,,,,,
,,,,,,,,,,,left.png,,w,right,610caddd4cac0d49d4261368,2021-10-27_10h53.57.810,arrow_simon_punish,2021.1.2,Win32,60.18295619,,,,,,,,,,,,,,p,0,1.4359,2.114310711,1,1,3,2,14,3,1,,,,,,,,,,,,,,
,,,,,,,,,,,right.png,,p,left,610caddd4cac0d49d4261368,2021-10-27_10h53.57.810,arrow_simon_punish,2021.1.2,Win32,60.18295619,,,,,,,,,,,,,,p,1,1.3924,1.739297939,1,1,3,3,15,0,1,,,,,,,,,,,,,,
,,,,,,,,,,,right.png,,p,right,610caddd4cac0d49d4261368,2021-10-27_10h53.57.810,arrow_simon_punish,2021.1.2,Win32,60.18295619,,,,,,,,,,,,,,p,1,1.3643,1.533258847,1,1,4,0,16,1,1,,,,,,,,,,,,,,
,,,,,,,,,,,left.png,,w,right,610caddd4cac0d49d4261368,2021-10-27_10h53.57.810,arrow_simon_punish,2021.1.2,Win32,60.18295619,,,,,,,,,,,,,,w,1,1.403,1.85743314,0,1,4,1,17,3,1,,,,,,,,,,,,,,
,,,,,,,,,,,left.png,,w,left,610caddd4cac0d49d4261368,2021-10-27_10h53.57.810,arrow_simon_punish,2021.1.2,Win32,60.18295619,,,,,,,,,,,,,,p,0,1.431,2.142395832,1,1,4,2,18,2,1,,,,,,,,,,,,,,
,,,,,,,,,,,left.png,,w,right,610caddd4cac0d49d4261368,2021-10-27_10h53.57.810,arrow_simon_punish,2021.1.2,Win32,60.18295619,,,,,,,,,,,,,,p,0,1.5022,2.442241975,1,1,4,3,19,3,1,,,,,,,,,,,,,,
,,,,,,,,,,,right.png,,p,right,610caddd4cac0d49d4261368,2021-10-27_10h53.57.810,arrow_simon_punish,2021.1.2,Win32,60.18295619,,,,,,,,,,,,,,p,1,1.534,2.202901663,0,1,5,0,20,1,1,,,,,,,,,,,,,,
,,,,,,,,,,,left.png,,w,right,610caddd4cac0d49d4261368,2021-10-27_10h53.57.810,arrow_simon_punish,2021.1.2,Win32,60.18295619,,,,,,,,,,,,,,p,0,1.601,2.311002461,1,1,5,1,21,3,1,,,,,,,,,,,,,,
,,,,,,,,,,,right.png,,p,left,610caddd4cac0d49d4261368,2021-10-27_10h53.57.810,arrow_simon_punish,2021.1.2,Win32,60.18295619,,,,,,,,,,,,,,w,0,1.4055,2.110516766,1,1,5,2,22,0,1,,,,,,,,,,,,,,
,,,,,,,,,,,right.png,,p,right,610caddd4cac0d49d4261368,2021-10-27_10h53.57.810,arrow_simon_punish,2021.1.2,Win32,60.18295619,,,,,,,,,,,,,,p,1,1.615,2.211790681,1,1,5,3,23,1,1,,,,,,,,,,,,,,
,,,,,,,,,,,right.png,,p,left,610caddd4cac0d49d4261368,2021-10-27_10h53.57.810,arrow_simon_punish,2021.1.2,Win32,60.18295619,,,,,,,,,,,,,,p,1,1.7075,2.185464263,1,1,6,0,24,0,1,,,,,,,,,,,,,,
,,,,,,,,,,,left.png,,w,left,610caddd4cac0d49d4261368,2021-10-27_10h53.57.810,arrow_simon_punish,2021.1.2,Win32,60.18295619,,,,,,,,,,,,,,w,1,1.1954,1.527441823,1,1,6,1,25,2,1,,,,,,,,,,,,,,
,,,,,,,,,,,left.png,,w,right,610caddd4cac0d49d4261368,2021-10-27_10h53.57.810,arrow_simon_punish,2021.1.2,Win32,60.18295619,,,,,,,,,,,,,,p,0,1.7293,2.406063992,1,1,6,2,26,3,1,,,,,,,,,,,,,,
,,,,,,,,,,,right.png,,p,right,610caddd4cac0d49d4261368,2021-10-27_10h53.57.810,arrow_simon_punish,2021.1.2,Win32,60.18295619,,,,,,,,,,,,,,p,1,1.3917,2.00255147,1,1,6,3,27,1,1,,,,,,,,,,,,,,
,,,,,,,,,,,left.png,,w,left,610caddd4cac0d49d4261368,2021-10-27_10h53.57.810,arrow_simon_punish,2021.1.2,Win32,60.18295619,,,,,,,,,,,,,,w,1,1.2861,1.889838372,1,1,7,0,28,2,1,,,,,,,,,,,,,,
,,,,,,,,,,,right.png,,p,left,610caddd4cac0d49d4261368,2021-10-27_10h53.57.810,arrow_simon_punish,2021.1.2,Win32,60.18295619,,,,,,,,,,,,,,p,1,1.2536,1.69718433,1,1,7,1,29,0,1,,,,,,,,,,,,,,
,,,,,,,,,,,left.png,,w,right,610caddd4cac0d49d4261368,2021-10-27_10h53.57.810,arrow_simon_punish,2021.1.2,Win32,60.18295619,,,,,,,,,,,,,,w,1,1.3314,1.548029618,1,1,7,2,30,3,1,,,,,,,,,,,,,,
,,,,,,,,,,,right.png,,p,right,610caddd4cac0d49d4261368,2021-10-27_10h53.57.810,arrow_simon_punish,2021.1.2,Win32,60.18295619,,,,,,,,,,,,,,p,1,1.6568,2.314448902,1,1,7,3,31,1,1,,,,,,,,,,,,,,
,,,,,,,,,,,left.png,,w,left,610caddd4cac0d49d4261368,2021-10-27_10h53.57.810,arrow_simon_punish,2021.1.2,Win32,60.18295619,,,,,,,,,,,,,,w,1,1.5784,2.131255295,0,1,8,0,32,2,1,,,,,,,,,,,,,,
,,,,,,,,,,,left.png,,w,left,610caddd4cac0d49d4261368,2021-10-27_10h53.57.810,arrow_simon_punish,2021.1.2,Win32,60.18295619,,,,,,,,,,,,,,w,1,1.1646,1.697599444,1,1,8,1,33,2,1,,,,,,,,,,,,,,
,,,,,,,,,,,right.png,,p,left,610caddd4cac0d49d4261368,2021-10-27_10h53.57.810,arrow_simon_punish,2021.1.2,Win32,60.18295619,,,,,,,,,,,,,,w,0,1.5966,2.262696061,1,1,8,2,34,0,1,,,,,,,,,,,,,,
,,,,,,,,,,,right.png,,p,left,610caddd4cac0d49d4261368,2021-10-27_10h53.57.810,arrow_simon_punish,2021.1.2,Win32,60.18295619,,,,,,,,,,,,,,p,1,1.4971,1.717642748,0,1,8,3,35,0,1,,,,,,,,,,,,,,
,,,,,,,,,,,right.png,,p,left,610caddd4cac0d49d4261368,2021-10-27_10h53.57.810,arrow_simon_punish,2021.1.2,Win32,60.18295619,,,,,,,,,,,,,,p,1,1.436,1.742199117,0,1,9,0,36,0,1,,,,,,,,,,,,,,
,,,,,,,,,,,right.png,,p,left,610caddd4cac0d49d4261368,2021-10-27_10h53.57.810,arrow_simon_punish,2021.1.2,Win32,60.18295619,,,,,,,,,,,,,,p,1,1.5636,1.600811234,0,1,9,1,37,0,1,,,,,,,,,,,,,,
,,,,,,,,,,,right.png,,p,right,610caddd4cac0d49d4261368,2021-10-27_10h53.57.810,arrow_simon_punish,2021.1.2,Win32,60.18295619,,,,,,,,,,,,,,p,1,1.5023,1.98458398,0,1,9,2,38,1,1,,,,,,,,,,,,,,
,,,,,,,,,,,right.png,,p,right,610caddd4cac0d49d4261368,2021-10-27_10h53.57.810,arrow_simon_punish,2021.1.2,Win32,60.18295619,,,,,,,,,,,,,,p,1,1.9339,1.599022308,1,1,9,3,39,1,1,,,,,,,,,,,,,,
,,,,,,,,,,,right.png,,p,left,610caddd4cac0d49d4261368,2021-10-27_10h53.57.810,arrow_simon_punish,2021.1.2,Win32,60.18295619,,,,,,,,,,,,,,w,0,1.5443,2.254222345,1,1,10,0,40,0,1,,,,,,,,,,,,,,
,,,,,,,,,,,left.png,,w,left,610caddd4cac0d49d4261368,2021-10-27_10h53.57.810,arrow_simon_punish,2021.1.2,Win32,60.18295619,,,,,,,,,,,,,,w,1,1.5302,1.545185315,0,1,10,1,41,2,1,,,,,,,,,,,,,,
,,,,,,,,,,,right.png,,p,right,610caddd4cac0d49d4261368,2021-10-27_10h53.57.810,arrow_simon_punish,2021.1.2,Win32,60.18295619,,,,,,,,,,,,,,p,1,1.4026,1.574193337,0,1,10,2,42,1,1,,,,,,,,,,,,,,
,,,,,,,,,,,left.png,,w,left,610caddd4cac0d49d4261368,2021-10-27_10h53.57.810,arrow_simon_punish,2021.1.2,Win32,60.18295619,,,,,,,,,,,,,,w,1,1.844,2.495864251,1,1,10,3,43,2,1,,,,,,,,,,,,,,
,,,,,,,,,,,left.png,,w,right,610caddd4cac0d49d4261368,2021-10-27_10h53.57.810,arrow_simon_punish,2021.1.2,Win32,60.18295619,,,,,,,,,,,,,,p,0,1.5469,2.304039116,1,1,11,0,44,3,1,,,,,,,,,,,,,,
,,,,,,,,,,,right.png,,p,right,610caddd4cac0d49d4261368,2021-10-27_10h53.57.810,arrow_simon_punish,2021.1.2,Win32,60.18295619,,,,,,,,,,,,,,p,1,1.6766,2.366762315,1,1,11,1,45,1,1,,,,,,,,,,,,,,
,,,,,,,,,,,right.png,,p,left,610caddd4cac0d49d4261368,2021-10-27_10h53.57.810,arrow_simon_punish,2021.1.2,Win32,60.18295619,,,,,,,,,,,,,,p,1,1.5228,1.904631255,0,1,11,2,46,0,1,,,,,,,,,,,,,,
,,,,,,,,,,,right.png,,p,right,610caddd4cac0d49d4261368,2021-10-27_10h53.57.810,arrow_simon_punish,2021.1.2,Win32,60.18295619,,,,,,,,,,,,,,p,1,1.3537,1.958645387,1,1,11,3,47,1,1,,,,,,,,,,,,,,
,,,,,,,,,,,right.png,,p,left,610caddd4cac0d49d4261368,2021-10-27_10h53.57.810,arrow_simon_punish,2021.1.2,Win32,60.18295619,,,,,,,,,,,,,,w,0,1.6643,2.239270901,1,1,12,0,48,0,1,,,,,,,,,,,,,,
,,,,,,,,,,,left.png,,w,left,610caddd4cac0d49d4261368,2021-10-27_10h53.57.810,arrow_simon_punish,2021.1.2,Win32,60.18295619,,,,,,,,,,,,,,w,1,1.4461,2.12199555,0,1,12,1,49,2,1,,,,,,,,,,,,,,
,,,,,,,,,,,right.png,,p,right,610caddd4cac0d49d4261368,2021-10-27_10h53.57.810,arrow_simon_punish,2021.1.2,Win32,60.18295619,,,,,,,,,,,,,,p,1,1.3309,1.885045228,1,1,12,2,50,1,1,,,,,,,,,,,,,,
,,,,,,,,,,,left.png,,w,left,610caddd4cac0d49d4261368,2021-10-27_10h53.57.810,arrow_simon_punish,2021.1.2,Win32,60.18295619,,,,,,,,,,,,,,w,1,1.327,1.758082842,1,1,12,3,51,2,1,,,,,,,,,,,,,,
,,,,,,,,,,,left.png,,w,right,610caddd4cac0d49d4261368,2021-10-27_10h53.57.810,arrow_simon_punish,2021.1.2,Win32,60.18295619,,,,,,,,,,,,,,p,0,1.5463,2.133540266,1,1,13,0,52,3,1,,,,,,,,,,,,,,
,,,,,,,,,,,left.png,,w,right,610caddd4cac0d49d4261368,2021-10-27_10h53.57.810,arrow_simon_punish,2021.1.2,Win32,60.18295619,,,,,,,,,,,,,,w,1,1.4599,1.895395102,0,1,13,1,53,3,1,,,,,,,,,,,,,,
,,,,,,,,,,,left.png,,w,left,610caddd4cac0d49d4261368,2021-10-27_10h53.57.810,arrow_simon_punish,2021.1.2,Win32,60.18295619,,,,,,,,,,,,,,w,1,1.4234,1.525377915,0,1,13,2,54,2,1,,,,,,,,,,,,,,
,,,,,,,,,,,right.png,,p,right,610caddd4cac0d49d4261368,2021-10-27_10h53.57.810,arrow_simon_punish,2021.1.2,Win32,60.18295619,,,,,,,,,,,,,,p,1,1.2662,1.693568958,1,1,13,3,55,1,1,,,,,,,,,,,,,,
,,,,,,,,,,,right.png,,p,right,610caddd4cac0d49d4261368,2021-10-27_10h53.57.810,arrow_simon_punish,2021.1.2,Win32,60.18295619,,,,,,,,,,,,,,p,1,1.5194,2.167051459,0,1,14,0,56,1,1,,,,,,,,,,,,,,
,,,,,,,,,,,left.png,,w,left,610caddd4cac0d49d4261368,2021-10-27_10h53.57.810,arrow_simon_punish,2021.1.2,Win32,60.18295619,,,,,,,,,,,,,,w,1,1.547,1.87247733,0,1,14,1,57,2,1,,,,,,,,,,,,,,
,,,,,,,,,,,left.png,,w,left,610caddd4cac0d49d4261368,2021-10-27_10h53.57.810,arrow_simon_punish,2021.1.2,Win32,60.18295619,,,,,,,,,,,,,,w,1,1.4334,1.830869768,0,1,14,2,58,2,1,,,,,,,,,,,,,,
,,,,,,,,,,,right.png,,p,right,610caddd4cac0d49d4261368,2021-10-27_10h53.57.810,arrow_simon_punish,2021.1.2,Win32,60.18295619,,,,,,,,,,,,,,p,1,1.519,2.026840588,0,1,14,3,59,1,1,,,,,,,,,,,,,,
,,,,,,,,,,,,,,,610caddd4cac0d49d4261368,2021-10-27_10h53.57.810,arrow_simon_punish,2021.1.2,Win32,60.18295619,,,,,,,,,,,,,,,,,,,,,,,,,space,31.1716,4,1,0,2,0,1,1,,,,,
,,,,,,,,,,,left.png,,w,right,610caddd4cac0d49d4261368,2021-10-27_10h53.57.810,arrow_simon_punish,2021.1.2,Win32,60.18295619,,,,,,,,,,,,,,w,1,1.2882,1.748457189,1,5,0,0,0,3,1,,,,,,,,,,,,,,
,,,,,,,,,,,right.png,,p,right,610caddd4cac0d49d4261368,2021-10-27_10h53.57.810,arrow_simon_punish,2021.1.2,Win32,60.18295619,,,,,,,,,,,,,,p,1,1.5026,2.097179405,0,5,0,1,1,1,1,,,,,,,,,,,,,,
,,,,,,,,,,,right.png,,p,left,610caddd4cac0d49d4261368,2021-10-27_10h53.57.810,arrow_simon_punish,2021.1.2,Win32,60.18295619,,,,,,,,,,,,,,w,0,1.569,2.16372522,1,5,0,2,2,0,1,,,,,,,,,,,,,,
,,,,,,,,,,,left.png,,w,right,610caddd4cac0d49d4261368,2021-10-27_10h53.57.810,arrow_simon_punish,2021.1.2,Win32,60.18295619,,,,,,,,,,,,,,w,1,1.504,1.632014548,0,5,0,3,3,3,1,,,,,,,,,,,,,,
,,,,,,,,,,,right.png,,p,left,610caddd4cac0d49d4261368,2021-10-27_10h53.57.810,arrow_simon_punish,2021.1.2,Win32,60.18295619,,,,,,,,,,,,,,w,0,1.5329,2.250483026,1,5,1,0,4,0,1,,,,,,,,,,,,,,
,,,,,,,,,,,right.png,,p,left,610caddd4cac0d49d4261368,2021-10-27_10h53.57.810,arrow_simon_punish,2021.1.2,Win32,60.18295619,,,,,,,,,,,,,,p,1,1.6852,1.791295449,1,5,1,1,5,0,1,,,,,,,,,,,,,,
,,,,,,,,,,,left.png,,w,right,610caddd4cac0d49d4261368,2021-10-27_10h53.57.810,arrow_simon_punish,2021.1.2,Win32,60.18295619,,,,,,,,,,,,,,w,1,1.4625,1.905477399,0,5,1,2,6,3,1,,,,,,,,,,,,,,
,,,,,,,,,,,left.png,,w,left,610caddd4cac0d49d4261368,2021-10-27_10h53.57.810,arrow_simon_punish,2021.1.2,Win32,60.18295619,,,,,,,,,,,,,,w,1,1.3414,1.663259805,1,5,1,3,7,2,1,,,,,,,,,,,,,,
,,,,,,,,,,,right.png,,p,left,610caddd4cac0d49d4261368,2021-10-27_10h53.57.810,arrow_simon_punish,2021.1.2,Win32,60.18295619,,,,,,,,,,,,,,w,0,1.5134,2.269487199,1,5,2,0,8,0,1,,,,,,,,,,,,,,
,,,,,,,,,,,left.png,,w,right,610caddd4cac0d49d4261368,2021-10-27_10h53.57.810,arrow_simon_punish,2021.1.2,Win32,60.18295619,,,,,,,,,,,,,,w,1,1.5057,2.012067751,0,5,2,1,9,3,1,,,,,,,,,,,,,,
,,,,,,,,,,,left.png,,w,right,610caddd4cac0d49d4261368,2021-10-27_10h53.57.810,arrow_simon_punish,2021.1.2,Win32,60.18295619,,,,,,,,,,,,,,w,1,2.8201,2.495637056,1,5,2,2,10,3,1,,,,,,,,,,,,,,
,,,,,,,,,,,right.png,,p,right,610caddd4cac0d49d4261368,2021-10-27_10h53.57.810,arrow_simon_punish,2021.1.2,Win32,60.18295619,,,,,,,,,,,,,,p,1,1.6259,2.148216845,1,5,2,3,11,1,1,,,,,,,,,,,,,,
,,,,,,,,,,,left.png,,w,right,610caddd4cac0d49d4261368,2021-10-27_10h53.57.810,arrow_simon_punish,2021.1.2,Win32,60.18295619,,,,,,,,,,,,,,p,0,1.7201,2.393144253,1,5,3,0,12,3,1,,,,,,,,,,,,,,
,,,,,,,,,,,left.png,,w,left,610caddd4cac0d49d4261368,2021-10-27_10h53.57.810,arrow_simon_punish,2021.1.2,Win32,60.18295619,,,,,,,,,,,,,,w,1,1.1794,1.841226643,1,5,3,1,13,2,1,,,,,,,,,,,,,,
,,,,,,,,,,,right.png,,p,right,610caddd4cac0d49d4261368,2021-10-27_10h53.57.810,arrow_simon_punish,2021.1.2,Win32,60.18295619,,,,,,,,,,,,,,w,0,1.2315,1.889912064,1,5,3,2,14,1,1,,,,,,,,,,,,,,
,,,,,,,,,,,left.png,,w,left,610caddd4cac0d49d4261368,2021-10-27_10h53.57.810,arrow_simon_punish,2021.1.2,Win32,60.18295619,,,,,,,,,,,,,,w,1,1.2803,2.42776953,1,5,3,3,15,2,1,,,,,,,,,,,,,,
,,,,,,,,,,,right.png,,p,right,610caddd4cac0d49d4261368,2021-10-27_10h53.57.810,arrow_simon_punish,2021.1.2,Win32,60.18295619,,,,,,,,,,,,,,p,1,1.6306,1.797167286,1,5,4,0,16,1,1,,,,,,,,,,,,,,
,,,,,,,,,,,left.png,,w,right,610caddd4cac0d49d4261368,2021-10-27_10h53.57.810,arrow_simon_punish,2021.1.2,Win32,60.18295619,,,,,,,,,,,,,,w,1,1.2371,1.6310548,1,5,4,1,17,3,1,,,,,,,,,,,,,,
,,,,,,,,,,,left.png,,w,right,610caddd4cac0d49d4261368,2021-10-27_10h53.57.810,arrow_simon_punish,2021.1.2,Win32,60.18295619,,,,,,,,,,,,,,w,1,1.397,1.915888826,1,5,4,2,18,3,1,,,,,,,,,,,,,,
,,,,,,,,,,,right.png,,p,right,610caddd4cac0d49d4261368,2021-10-27_10h53.57.810,arrow_simon_punish,2021.1.2,Win32,60.18295619,,,,,,,,,,,,,,p,1,1.4135,1.505256608,0,5,4,3,19,1,1,,,,,,,,,,,,,,
,,,,,,,,,,,right.png,,p,right,610caddd4cac0d49d4261368,2021-10-27_10h53.57.810,arrow_simon_punish,2021.1.2,Win32,60.18295619,,,,,,,,,,,,,,p,1,1.5479,2.3073435,0,5,5,0,20,1,1,,,,,,,,,,,,,,
,,,,,,,,,,,right.png,,p,right,610caddd4cac0d49d4261368,2021-10-27_10h53.57.810,arrow_simon_punish,2021.1.2,Win32,60.18295619,,,,,,,,,,,,,,p,1,1.5412,1.573818492,0,5,5,1,21,1,1,,,,,,,,,,,,,,
,,,,,,,,,,,right.png,,p,left,610caddd4cac0d49d4261368,2021-10-27_10h53.57.810,arrow_simon_punish,2021.1.2,Win32,60.18295619,,,,,,,,,,,,,,p,1,1.5024,1.851160118,0,5,5,2,22,0,1,,,,,,,,,,,,,,
,,,,,,,,,,,left.png,,w,left,610caddd4cac0d49d4261368,2021-10-27_10h53.57.810,arrow_simon_punish,2021.1.2,Win32,60.18295619,,,,,,,,,,,,,,w,1,1.6457,2.342563141,1,5,5,3,23,2,1,,,,,,,,,,,,,,
,,,,,,,,,,,right.png,,p,right,610caddd4cac0d49d4261368,2021-10-27_10h53.57.810,arrow_simon_punish,2021.1.2,Win32,60.18295619,,,,,,,,,,,,,,p,1,1.5022,2.281709022,0,5,6,0,24,1,1,,,,,,,,,,,,,,
,,,,,,,,,,,right.png,,p,left,610caddd4cac0d49d4261368,2021-10-27_10h53.57.810,arrow_simon_punish,2021.1.2,Win32,60.18295619,,,,,,,,,,,,,,p,1,1.5356,1.925066573,0,5,6,1,25,0,1,,,,,,,,,,,,,,
,,,,,,,,,,,left.png,,w,right,610caddd4cac0d49d4261368,2021-10-27_10h53.57.810,arrow_simon_punish,2021.1.2,Win32,60.18295619,,,,,,,,,,,,,,p,0,1.5471,2.227758562,1,5,6,2,26,3,1,,,,,,,,,,,,,,
,,,,,,,,,,,left.png,,w,left,610caddd4cac0d49d4261368,2021-10-27_10h53.57.810,arrow_simon_punish,2021.1.2,Win32,60.18295619,,,,,,,,,,,,,,w,1,1.4839,1.814689898,0,5,6,3,27,2,1,,,,,,,,,,,,,,
,,,,,,,,,,,right.png,,p,left,610caddd4cac0d49d4261368,2021-10-27_10h53.57.810,arrow_simon_punish,2021.1.2,Win32,60.18295619,,,,,,,,,,,,,,p,1,1.5357,2.07954683,0,5,7,0,28,0,1,,,,,,,,,,,,,,
,,,,,,,,,,,right.png,,p,right,610caddd4cac0d49d4261368,2021-10-27_10h53.57.810,arrow_simon_punish,2021.1.2,Win32,60.18295619,,,,,,,,,,,,,,p,1,1.4654,1.888887803,0,5,7,1,29,1,1,,,,,,,,,,,,,,
,,,,,,,,,,,right.png,,p,left,610caddd4cac0d49d4261368,2021-10-27_10h53.57.810,arrow_simon_punish,2021.1.2,Win32,60.18295619,,,,,,,,,,,,,,w,0,1.4688,2.137306073,1,5,7,2,30,0,1,,,,,,,,,,,,,,
,,,,,,,,,,,right.png,,p,left,610caddd4cac0d49d4261368,2021-10-27_10h53.57.810,arrow_simon_punish,2021.1.2,Win32,60.18295619,,,,,,,,,,,,,,w,0,1.5202,2.067003206,1,5,7,3,31,0,1,,,,,,,,,,,,,,
,,,,,,,,,,,right.png,,p,left,610caddd4cac0d49d4261368,2021-10-27_10h53.57.810,arrow_simon_punish,2021.1.2,Win32,60.18295619,,,,,,,,,,,,,,p,1,1.5375,2.044842238,0,5,8,0,32,0,1,,,,,,,,,,,,,,
,,,,,,,,,,,left.png,,w,left,610caddd4cac0d49d4261368,2021-10-27_10h53.57.810,arrow_simon_punish,2021.1.2,Win32,60.18295619,,,,,,,,,,,,,,w,1,1.5644,2.181485983,0,5,8,1,33,2,1,,,,,,,,,,,,,,
,,,,,,,,,,,right.png,,p,right,610caddd4cac0d49d4261368,2021-10-27_10h53.57.810,arrow_simon_punish,2021.1.2,Win32,60.18295619,,,,,,,,,,,,,,p,1,1.4814,1.511802149,0,5,8,2,34,1,1,,,,,,,,,,,,,,
,,,,,,,,,,,left.png,,w,left,610caddd4cac0d49d4261368,2021-10-27_10h53.57.810,arrow_simon_punish,2021.1.2,Win32,60.18295619,,,,,,,,,,,,,,w,1,1.585,2.277895118,0,5,8,3,35,2,1,,,,,,,,,,,,,,
,,,,,,,,,,,left.png,,w,left,610caddd4cac0d49d4261368,2021-10-27_10h53.57.810,arrow_simon_punish,2021.1.2,Win32,60.18295619,,,,,,,,,,,,,,w,1,1.5636,2.239726991,0,5,9,0,36,2,1,,,,,,,,,,,,,,
,,,,,,,,,,,left.png,,w,left,610caddd4cac0d49d4261368,2021-10-27_10h53.57.810,arrow_simon_punish,2021.1.2,Win32,60.18295619,,,,,,,,,,,,,,w,1,1.4691,1.507010876,0,5,9,1,37,2,1,,,,,,,,,,,,,,
,,,,,,,,,,,right.png,,p,left,610caddd4cac0d49d4261368,2021-10-27_10h53.57.810,arrow_simon_punish,2021.1.2,Win32,60.18295619,,,,,,,,,,,,,,p,1,1.7796,2.305623458,1,5,9,2,38,0,1,,,,,,,,,,,,,,
,,,,,,,,,,,left.png,,w,right,610caddd4cac0d49d4261368,2021-10-27_10h53.57.810,arrow_simon_punish,2021.1.2,Win32,60.18295619,,,,,,,,,,,,,,p,0,1.5468,2.419848523,1,5,9,3,39,3,1,,,,,,,,,,,,,,
,,,,,,,,,,,left.png,,w,left,610caddd4cac0d49d4261368,2021-10-27_10h53.57.810,arrow_simon_punish,2021.1.2,Win32,60.18295619,,,,,,,,,,,,,,w,1,1.467,1.804178339,0,5,10,0,40,2,1,,,,,,,,,,,,,,
,,,,,,,,,,,left.png,,w,left,610caddd4cac0d49d4261368,2021-10-27_10h53.57.810,arrow_simon_punish,2021.1.2,Win32,60.18295619,,,,,,,,,,,,,,w,1,1.5511,1.797776592,0,5,10,1,41,2,1,,,,,,,,,,,,,,
,,,,,,,,,,,right.png,,p,right,610caddd4cac0d49d4261368,2021-10-27_10h53.57.810,arrow_simon_punish,2021.1.2,Win32,60.18295619,,,,,,,,,,,,,,p,1,2.1513,1.67204629,1,5,10,2,42,1,1,,,,,,,,,,,,,,
,,,,,,,,,,,left.png,,w,left,610caddd4cac0d49d4261368,2021-10-27_10h53.57.810,arrow_simon_punish,2021.1.2,Win32,60.18295619,,,,,,,,,,,,,,w,1,1.5193,1.94834463,0,5,10,3,43,2,1,,,,,,,,,,,,,,
,,,,,,,,,,,left.png,,w,right,610caddd4cac0d49d4261368,2021-10-27_10h53.57.810,arrow_simon_punish,2021.1.2,Win32,60.18295619,,,,,,,,,,,,,,w,1,1.487,1.746852998,0,5,11,0,44,3,1,,,,,,,,,,,,,,
,,,,,,,,,,,left.png,,w,right,610caddd4cac0d49d4261368,2021-10-27_10h53.57.810,arrow_simon_punish,2021.1.2,Win32,60.18295619,,,,,,,,,,,,,,w,1,1.5475,1.969091165,0,5,11,1,45,3,1,,,,,,,,,,,,,,
,,,,,,,,,,,right.png,,p,left,610caddd4cac0d49d4261368,2021-10-27_10h53.57.810,arrow_simon_punish,2021.1.2,Win32,60.18295619,,,,,,,,,,,,,,w,0,1.5198,2.232229582,1,5,11,2,46,0,1,,,,,,,,,,,,,,
,,,,,,,,,,,right.png,,p,left,610caddd4cac0d49d4261368,2021-10-27_10h53.57.810,arrow_simon_punish,2021.1.2,Win32,60.18295619,,,,,,,,,,,,,,p,1,1.485,1.894298189,0,5,11,3,47,0,1,,,,,,,,,,,,,,
,,,,,,,,,,,right.png,,p,left,610caddd4cac0d49d4261368,2021-10-27_10h53.57.810,arrow_simon_punish,2021.1.2,Win32,60.18295619,,,,,,,,,,,,,,w,0,1.5031,2.213380489,1,5,12,0,48,0,1,,,,,,,,,,,,,,
,,,,,,,,,,,right.png,,p,left,610caddd4cac0d49d4261368,2021-10-27_10h53.57.810,arrow_simon_punish,2021.1.2,Win32,60.18295619,,,,,,,,,,,,,,p,1,1.4969,1.538547944,0,5,12,1,49,0,1,,,,,,,,,,,,,,
,,,,,,,,,,,right.png,,p,right,610caddd4cac0d49d4261368,2021-10-27_10h53.57.810,arrow_simon_punish,2021.1.2,Win32,60.18295619,,,,,,,,,,,,,,w,0,1.5196,2.065328548,1,5,12,2,50,1,1,,,,,,,,,,,,,,
,,,,,,,,,,,left.png,,w,left,610caddd4cac0d49d4261368,2021-10-27_10h53.57.810,arrow_simon_punish,2021.1.2,Win32,60.18295619,,,,,,,,,,,,,,w,1,1.4663,1.769204965,0,5,12,3,51,2,1,,,,,,,,,,,,,,
,,,,,,,,,,,right.png,,p,right,610caddd4cac0d49d4261368,2021-10-27_10h53.57.810,arrow_simon_punish,2021.1.2,Win32,60.18295619,,,,,,,,,,,,,,p,1,1.7133,2.370100638,1,5,13,0,52,1,1,,,,,,,,,,,,,,
,,,,,,,,,,,left.png,,w,right,610caddd4cac0d49d4261368,2021-10-27_10h53.57.810,arrow_simon_punish,2021.1.2,Win32,60.18295619,,,,,,,,,,,,,,w,1,1.4491,1.881305386,0,5,13,1,53,3,1,,,,,,,,,,,,,,
,,,,,,,,,,,right.png,,p,right,610caddd4cac0d49d4261368,2021-10-27_10h53.57.810,arrow_simon_punish,2021.1.2,Win32,60.18295619,,,,,,,,,,,,,,p,1,1.5186,2.335120248,0,5,13,2,54,1,1,,,,,,,,,,,,,,
,,,,,,,,,,,right.png,,p,right,610caddd4cac0d49d4261368,2021-10-27_10h53.57.810,arrow_simon_punish,2021.1.2,Win32,60.18295619,,,,,,,,,,,,,,p,1,1.5296,2.200627126,0,5,13,3,55,1,1,,,,,,,,,,,,,,
,,,,,,,,,,,left.png,,w,left,610caddd4cac0d49d4261368,2021-10-27_10h53.57.810,arrow_simon_punish,2021.1.2,Win32,60.18295619,,,,,,,,,,,,,,w,1,1.4477,2.072015591,0,5,14,0,56,2,1,,,,,,,,,,,,,,
,,,,,,,,,,,left.png,,w,right,610caddd4cac0d49d4261368,2021-10-27_10h53.57.810,arrow_simon_punish,2021.1.2,Win32,60.18295619,,,,,,,,,,,,,,p,0,1.5678,2.323561398,1,5,14,1,57,3,1,,,,,,,,,,,,,,
,,,,,,,,,,,left.png,,w,left,610caddd4cac0d49d4261368,2021-10-27_10h53.57.810,arrow_simon_punish,2021.1.2,Win32,60.18295619,,,,,,,,,,,,,,w,1,1.4875,1.791836901,0,5,14,2,58,2,1,,,,,,,,,,,,,,
,,,,,,,,,,,left.png,,w,right,610caddd4cac0d49d4261368,2021-10-27_10h53.57.810,arrow_simon_punish,2021.1.2,Win32,60.18295619,,,,,,,,,,,,,,w,1,2.1619,2.447736975,1,5,14,3,59,3,1,,,,,,,,,,,,,,
,,,,,,,,,,,,,,,610caddd4cac0d49d4261368,2021-10-27_10h53.57.810,arrow_simon_punish,2021.1.2,Win32,60.18295619,,,,,,,,,,,,,,,,,,,,,,,,,space,0.6807,5,1,1,3,1,1,5,,,,,
,,,,,,,,,,,left.png,,w,right,610caddd4cac0d49d4261368,2021-10-27_10h53.57.810,arrow_simon_punish,2021.1.2,Win32,60.18295619,,,,,,,,,,,,,,p,0,1.7644,2.439971311,1,1,0,0,0,3,1,,,,,,,,,,,,,,
,,,,,,,,,,,right.png,,p,right,610caddd4cac0d49d4261368,2021-10-27_10h53.57.810,arrow_simon_punish,2021.1.2,Win32,60.18295619,,,,,,,,,,,,,,p,1,1.4679,1.861558913,0,1,0,1,1,1,1,,,,,,,,,,,,,,
,,,,,,,,,,,left.png,,w,right,610caddd4cac0d49d4261368,2021-10-27_10h53.57.810,arrow_simon_punish,2021.1.2,Win32,60.18295619,,,,,,,,,,,,,,p,0,1.5308,2.250186825,1,1,0,2,2,3,1,,,,,,,,,,,,,,
,,,,,,,,,,,right.png,,p,right,610caddd4cac0d49d4261368,2021-10-27_10h53.57.810,arrow_simon_punish,2021.1.2,Win32,60.18295619,,,,,,,,,,,,,,p,1,1.3573,1.668368103,1,1,0,3,3,1,1,,,,,,,,,,,,,,
,,,,,,,,,,,left.png,,w,left,610caddd4cac0d49d4261368,2021-10-27_10h53.57.810,arrow_simon_punish,2021.1.2,Win32,60.18295619,,,,,,,,,,,,,,w,1,1.5491,1.902702232,0,1,1,0,4,2,1,,,,,,,,,,,,,,
,,,,,,,,,,,left.png,,w,right,610caddd4cac0d49d4261368,2021-10-27_10h53.57.810,arrow_simon_punish,2021.1.2,Win32,60.18295619,,,,,,,,,,,,,,w,1,1.5635,1.976690776,0,1,1,1,5,3,1,,,,,,,,,,,,,,
,,,,,,,,,,,left.png,,w,left,610caddd4cac0d49d4261368,2021-10-27_10h53.57.810,arrow_simon_punish,2021.1.2,Win32,60.18295619,,,,,,,,,,,,,,w,1,1.5359,1.873127917,0,1,1,2,6,2,1,,,,,,,,,,,,,,
,,,,,,,,,,,left.png,,w,right,610caddd4cac0d49d4261368,2021-10-27_10h53.57.810,arrow_simon_punish,2021.1.2,Win32,60.18295619,,,,,,,,,,,,,,w,1,1.5373,1.588698332,0,1,1,3,7,3,1,,,,,,,,,,,,,,
,,,,,,,,,,,left.png,,w,left,610caddd4cac0d49d4261368,2021-10-27_10h53.57.810,arrow_simon_punish,2021.1.2,Win32,60.18295619,,,,,,,,,,,,,,w,1,1.6128,2.066796239,1,1,2,0,8,2,1,,,,,,,,,,,,,,
,,,,,,,,,,,right.png,,p,left,610caddd4cac0d49d4261368,2021-10-27_10h53.57.810,arrow_simon_punish,2021.1.2,Win32,60.18295619,,,,,,,,,,,,,,p,1,1.5038,1.995572654,0,1,2,1,9,0,1,,,,,,,,,,,,,,
,,,,,,,,,,,left.png,,w,right,610caddd4cac0d49d4261368,2021-10-27_10h53.57.810,arrow_simon_punish,2021.1.2,Win32,60.18295619,,,,,,,,,,,,,,p,0,1.534,2.226195595,1,1,2,2,10,3,1,,,,,,,,,,,,,,
,,,,,,,,,,,right.png,,p,left,610caddd4cac0d49d4261368,2021-10-27_10h53.57.810,arrow_simon_punish,2021.1.2,Win32,60.18295619,,,,,,,,,,,,,,w,0,1.5424,2.238809878,1,1,2,3,11,0,1,,,,,,,,,,,,,,
,,,,,,,,,,,right.png,,p,left,610caddd4cac0d49d4261368,2021-10-27_10h53.57.810,arrow_simon_punish,2021.1.2,Win32,60.18295619,,,,,,,,,,,,,,p,1,1.3887,1.773464567,1,1,3,0,12,0,1,,,,,,,,,,,,,,
,,,,,,,,,,,left.png,,w,right,610caddd4cac0d49d4261368,2021-10-27_10h53.57.810,arrow_simon_punish,2021.1.2,Win32,60.18295619,,,,,,,,,,,,,,w,1,1.4636,1.556230317,0,1,3,1,13,3,1,,,,,,,,,,,,,,
,,,,,,,,,,,left.png,,w,right,610caddd4cac0d49d4261368,2021-10-27_10h53.57.810,arrow_simon_punish,2021.1.2,Win32,60.18295619,,,,,,,,,,,,,,p,0,1.6406,2.383516217,1,1,3,2,14,3,1,,,,,,,,,,,,,,
,,,,,,,,,,,left.png,,w,right,610caddd4cac0d49d4261368,2021-10-27_10h53.57.810,arrow_simon_punish,2021.1.2,Win32,60.18295619,,,,,,,,,,,,,,w,1,1.4643,1.599461093,0,1,3,3,15,3,1,,,,,,,,,,,,,,
,,,,,,,,,,,left.png,,w,left,610caddd4cac0d49d4261368,2021-10-27_10h53.57.810,arrow_simon_punish,2021.1.2,Win32,60.18295619,,,,,,,,,,,,,,w,1,1.4366,1.59437715,0,1,4,0,16,2,1,,,,,,,,,,,,,,
,,,,,,,,,,,right.png,,p,right,610caddd4cac0d49d4261368,2021-10-27_10h53.57.810,arrow_simon_punish,2021.1.2,Win32,60.18295619,,,,,,,,,,,,,,p,1,1.4357,1.859833847,0,1,4,1,17,1,1,,,,,,,,,,,,,,
,,,,,,,,,,,left.png,,w,left,610caddd4cac0d49d4261368,2021-10-27_10h53.57.810,arrow_simon_punish,2021.1.2,Win32,60.18295619,,,,,,,,,,,,,,w,1,1.6961,2.448541927,1,1,4,2,18,2,1,,,,,,,,,,,,,,
,,,,,,,,,,,left.png,,w,left,610caddd4cac0d49d4261368,2021-10-27_10h53.57.810,arrow_simon_punish,2021.1.2,Win32,60.18295619,,,,,,,,,,,,,,w,1,1.3423,1.549390844,1,1,4,3,19,2,1,,,,,,,,,,,,,,
,,,,,,,,,,,right.png,,p,right,610caddd4cac0d49d4261368,2021-10-27_10h53.57.810,arrow_simon_punish,2021.1.2,Win32,60.18295619,,,,,,,,,,,,,,p,1,1.3976,1.992748429,1,1,5,0,20,1,1,,,,,,,,,,,,,,
,,,,,,,,,,,right.png,,p,right,610caddd4cac0d49d4261368,2021-10-27_10h53.57.810,arrow_simon_punish,2021.1.2,Win32,60.18295619,,,,,,,,,,,,,,p,1,1.6898,2.346142459,1,1,5,1,21,1,1,,,,,,,,,,,,,,
,,,,,,,,,,,left.png,,w,right,610caddd4cac0d49d4261368,2021-10-27_10h53.57.810,arrow_simon_punish,2021.1.2,Win32,60.18295619,,,,,,,,,,,,,,w,1,1.3807,1.911667611,1,1,5,2,22,3,1,,,,,,,,,,,,,,
,,,,,,,,,,,right.png,,p,left,610caddd4cac0d49d4261368,2021-10-27_10h53.57.810,arrow_simon_punish,2021.1.2,Win32,60.18295619,,,,,,,,,,,,,,p,1,1.6856,2.199056168,1,1,5,3,23,0,1,,,,,,,,,,,,,,
,,,,,,,,,,,left.png,,w,right,610caddd4cac0d49d4261368,2021-10-27_10h53.57.810,arrow_simon_punish,2021.1.2,Win32,60.18295619,,,,,,,,,,,,,,p,0,1.6083,2.334012888,1,1,6,0,24,3,1,,,,,,,,,,,,,,
,,,,,,,,,,,right.png,,p,left,610caddd4cac0d49d4261368,2021-10-27_10h53.57.810,arrow_simon_punish,2021.1.2,Win32,60.18295619,,,,,,,,,,,,,,w,0,1.5213,2.268769338,1,1,6,1,25,0,1,,,,,,,,,,,,,,
,,,,,,,,,,,right.png,,p,left,610caddd4cac0d49d4261368,2021-10-27_10h53.57.810,arrow_simon_punish,2021.1.2,Win32,60.18295619,,,,,,,,,,,,,,p,1,1.4942,1.665239487,0,1,6,2,26,0,1,,,,,,,,,,,,,,
,,,,,,,,,,,right.png,,p,left,610caddd4cac0d49d4261368,2021-10-27_10h53.57.810,arrow_simon_punish,2021.1.2,Win32,60.18295619,,,,,,,,,,,,,,p,1,1.5691,1.560785269,0,1,6,3,27,0,1,,,,,,,,,,,,,,
,,,,,,,,,,,left.png,,w,right,610caddd4cac0d49d4261368,2021-10-27_10h53.57.810,arrow_simon_punish,2021.1.2,Win32,60.18295619,,,,,,,,,,,,,,p,0,1.4398,2.015588032,1,1,7,0,28,3,1,,,,,,,,,,,,,,
,,,,,,,,,,,left.png,,w,left,610caddd4cac0d49d4261368,2021-10-27_10h53.57.810,arrow_simon_punish,2021.1.2,Win32,60.18295619,,,,,,,,,,,,,,w,1,1.5433,1.699277271,0,1,7,1,29,2,1,,,,,,,,,,,,,,
,,,,,,,,,,,right.png,,p,right,610caddd4cac0d49d4261368,2021-10-27_10h53.57.810,arrow_simon_punish,2021.1.2,Win32,60.18295619,,,,,,,,,,,,,,p,1,1.4404,1.609499661,0,1,7,2,30,1,1,,,,,,,,,,,,,,
,,,,,,,,,,,left.png,,w,left,610caddd4cac0d49d4261368,2021-10-27_10h53.57.810,arrow_simon_punish,2021.1.2,Win32,60.18295619,,,,,,,,,,,,,,w,1,1.4811,1.866201202,0,1,7,3,31,2,1,,,,,,,,,,,,,,
,,,,,,,,,,,right.png,,p,left,610caddd4cac0d49d4261368,2021-10-27_10h53.57.810,arrow_simon_punish,2021.1.2,Win32,60.18295619,,,,,,,,,,,,,,w,0,1.5684,2.18256922,1,1,8,0,32,0,1,,,,,,,,,,,,,,
,,,,,,,,,,,right.png,,p,right,610caddd4cac0d49d4261368,2021-10-27_10h53.57.810,arrow_simon_punish,2021.1.2,Win32,60.18295619,,,,,,,,,,,,,,p,1,0.9371,1.540914673,1,1,8,1,33,1,1,,,,,,,,,,,,,,
,,,,,,,,,,,right.png,,p,left,610caddd4cac0d49d4261368,2021-10-27_10h53.57.810,arrow_simon_punish,2021.1.2,Win32,60.18295619,,,,,,,,,,,,,,p,1,1.522,1.599716385,0,1,8,2,34,0,1,,,,,,,,,,,,,,
,,,,,,,,,,,right.png,,p,left,610caddd4cac0d49d4261368,2021-10-27_10h53.57.810,arrow_simon_punish,2021.1.2,Win32,60.18295619,,,,,,,,,,,,,,w,0,1.5508,2.275587863,1,1,8,3,35,0,1,,,,,,,,,,,,,,
,,,,,,,,,,,left.png,,w,right,610caddd4cac0d49d4261368,2021-10-27_10h53.57.810,arrow_simon_punish,2021.1.2,Win32,60.18295619,,,,,,,,,,,,,,w,1,1.4922,2.090295852,0,1,9,0,36,3,1,,,,,,,,,,,,,,
,,,,,,,,,,,right.png,,p,right,610caddd4cac0d49d4261368,2021-10-27_10h53.57.810,arrow_simon_punish,2021.1.2,Win32,60.18295619,,,,,,,,,,,,,,p,1,1.5254,1.814001923,0,1,9,1,37,1,1,,,,,,,,,,,,,,
,,,,,,,,,,,right.png,,p,left,610caddd4cac0d49d4261368,2021-10-27_10h53.57.810,arrow_simon_punish,2021.1.2,Win32,60.18295619,,,,,,,,,,,,,,p,1,1.4638,1.955009074,0,1,9,2,38,0,1,,,,,,,,,,,,,,
,,,,,,,,,,,left.png,,w,right,610caddd4cac0d49d4261368,2021-10-27_10h53.57.810,arrow_simon_punish,2021.1.2,Win32,60.18295619,,,,,,,,,,,,,,w,1,1.4587,1.583680045,0,1,9,3,39,3,1,,,,,,,,,,,,,,
,,,,,,,,,,,left.png,,w,left,610caddd4cac0d49d4261368,2021-10-27_10h53.57.810,arrow_simon_punish,2021.1.2,Win32,60.18295619,,,,,,,,,,,,,,w,1,1.4469,1.756147691,0,1,10,0,40,2,1,,,,,,,,,,,,,,
,,,,,,,,,,,right.png,,p,right,610caddd4cac0d49d4261368,2021-10-27_10h53.57.810,arrow_simon_punish,2021.1.2,Win32,60.18295619,,,,,,,,,,,,,,p,1,1.6829,2.31395224,1,1,10,1,41,1,1,,,,,,,,,,,,,,
,,,,,,,,,,,right.png,,p,right,610caddd4cac0d49d4261368,2021-10-27_10h53.57.810,arrow_simon_punish,2021.1.2,Win32,60.18295619,,,,,,,,,,,,,,p,1,1.4309,2.087240286,0,1,10,2,42,1,1,,,,,,,,,,,,,,
,,,,,,,,,,,right.png,,p,left,610caddd4cac0d49d4261368,2021-10-27_10h53.57.810,arrow_simon_punish,2021.1.2,Win32,60.18295619,,,,,,,,,,,,,,p,1,1.4462,1.659882319,0,1,10,3,43,0,1,,,,,,,,,,,,,,
,,,,,,,,,,,right.png,,p,right,610caddd4cac0d49d4261368,2021-10-27_10h53.57.810,arrow_simon_punish,2021.1.2,Win32,60.18295619,,,,,,,,,,,,,,p,1,1.4799,1.533303367,0,1,11,0,44,1,1,,,,,,,,,,,,,,
,,,,,,,,,,,right.png,,p,left,610caddd4cac0d49d4261368,2021-10-27_10h53.57.810,arrow_simon_punish,2021.1.2,Win32,60.18295619,,,,,,,,,,,,,,p,1,1.2861,1.848598556,1,1,11,1,45,0,1,,,,,,,,,,,,,,
,,,,,,,,,,,right.png,,p,left,610caddd4cac0d49d4261368,2021-10-27_10h53.57.810,arrow_simon_punish,2021.1.2,Win32,60.18295619,,,,,,,,,,,,,,w,0,1.6018,2.292710507,1,1,11,2,46,0,1,,,,,,,,,,,,,,
,,,,,,,,,,,right.png,,p,right,610caddd4cac0d49d4261368,2021-10-27_10h53.57.810,arrow_simon_punish,2021.1.2,Win32,60.18295619,,,,,,,,,,,,,,p,1,1.3356,1.602771952,1,1,11,3,47,1,1,,,,,,,,,,,,,,
,,,,,,,,,,,right.png,,p,right,610caddd4cac0d49d4261368,2021-10-27_10h53.57.810,arrow_simon_punish,2021.1.2,Win32,60.18295619,,,,,,,,,,,,,,p,1,1.2477,1.921864037,1,1,12,0,48,1,1,,,,,,,,,,,,,,
,,,,,,,,,,,left.png,,w,left,610caddd4cac0d49d4261368,2021-10-27_10h53.57.810,arrow_simon_punish,2021.1.2,Win32,60.18295619,,,,,,,,,,,,,,w,1,1.6958,2.193484484,1,1,12,1,49,2,1,,,,,,,,,,,,,,
,,,,,,,,,,,left.png,,w,right,610caddd4cac0d49d4261368,2021-10-27_10h53.57.810,arrow_simon_punish,2021.1.2,Win32,60.18295619,,,,,,,,,,,,,,w,1,1.3192,2.120489528,1,1,12,2,50,3,1,,,,,,,,,,,,,,
,,,,,,,,,,,left.png,,w,left,610caddd4cac0d49d4261368,2021-10-27_10h53.57.810,arrow_simon_punish,2021.1.2,Win32,60.18295619,,,,,,,,,,,,,,p,0,1.414,2.126779925,1,1,12,3,51,2,1,,,,,,,,,,,,,,
,,,,,,,,,,,left.png,,w,right,610caddd4cac0d49d4261368,2021-10-27_10h53.57.810,arrow_simon_punish,2021.1.2,Win32,60.18295619,,,,,,,,,,,,,,w,1,1.2642,1.585417002,1,1,13,0,52,3,1,,,,,,,,,,,,,,
,,,,,,,,,,,right.png,,p,right,610caddd4cac0d49d4261368,2021-10-27_10h53.57.810,arrow_simon_punish,2021.1.2,Win32,60.18295619,,,,,,,,,,,,,,w,0,1.6142,2.183231613,1,1,13,1,53,1,1,,,,,,,,,,,,,,
,,,,,,,,,,,right.png,,p,right,610caddd4cac0d49d4261368,2021-10-27_10h53.57.810,arrow_simon_punish,2021.1.2,Win32,60.18295619,,,,,,,,,,,,,,p,1,1.3361,1.676226021,1,1,13,2,54,1,1,,,,,,,,,,,,,,
,,,,,,,,,,,right.png,,p,left,610caddd4cac0d49d4261368,2021-10-27_10h53.57.810,arrow_simon_punish,2021.1.2,Win32,60.18295619,,,,,,,,,,,,,,w,0,1.3833,2.008595181,1,1,13,3,55,0,1,,,,,,,,,,,,,,
,,,,,,,,,,,left.png,,w,left,610caddd4cac0d49d4261368,2021-10-27_10h53.57.810,arrow_simon_punish,2021.1.2,Win32,60.18295619,,,,,,,,,,,,,,w,1,1.3924,1.91049808,1,1,14,0,56,2,1,,,,,,,,,,,,,,
,,,,,,,,,,,left.png,,w,left,610caddd4cac0d49d4261368,2021-10-27_10h53.57.810,arrow_simon_punish,2021.1.2,Win32,60.18295619,,,,,,,,,,,,,,w,1,1.4611,2.144204456,0,1,14,1,57,2,1,,,,,,,,,,,,,,
,,,,,,,,,,,left.png,,w,left,610caddd4cac0d49d4261368,2021-10-27_10h53.57.810,arrow_simon_punish,2021.1.2,Win32,60.18295619,,,,,,,,,,,,,,w,1,1.1852,1.526292746,1,1,14,2,58,2,1,,,,,,,,,,,,,,
,,,,,,,,,,,left.png,,w,left,610caddd4cac0d49d4261368,2021-10-27_10h53.57.810,arrow_simon_punish,2021.1.2,Win32,60.18295619,,,,,,,,,,,,,,w,1,1.6646,2.332100158,1,1,14,3,59,2,1,,,,,,,,,,,,,,
,,,,,,,,,,,,,,,610caddd4cac0d49d4261368,2021-10-27_10h53.57.810,arrow_simon_punish,2021.1.2,Win32,60.18295619,,,,,,,,,,,,,,,,,,,,,,,,,space,0.8112,6,2,0,4,0,1,1,,,,,
,,,,,,,,,,,left.png,,w,left,610caddd4cac0d49d4261368,2021-10-27_10h53.57.810,arrow_simon_punish,2021.1.2,Win32,60.18295619,,,,,,,,,,,,,,w,1,1.6479,2.245677883,1,5,0,0,0,2,1,,,,,,,,,,,,,,
,,,,,,,,,,,left.png,,w,right,610caddd4cac0d49d4261368,2021-10-27_10h53.57.810,arrow_simon_punish,2021.1.2,Win32,60.18295619,,,,,,,,,,,,,,p,0,1.3163,2.02408646,1,5,0,1,1,3,1,,,,,,,,,,,,,,
,,,,,,,,,,,right.png,,p,right,610caddd4cac0d49d4261368,2021-10-27_10h53.57.810,arrow_simon_punish,2021.1.2,Win32,60.18295619,,,,,,,,,,,,,,p,1,1.437,2.076307835,0,5,0,2,2,1,1,,,,,,,,,,,,,,
,,,,,,,,,,,right.png,,p,left,610caddd4cac0d49d4261368,2021-10-27_10h53.57.810,arrow_simon_punish,2021.1.2,Win32,60.18295619,,,,,,,,,,,,,,p,1,1.3024,1.564568217,1,5,0,3,3,0,1,,,,,,,,,,,,,,
,,,,,,,,,,,right.png,,p,left,610caddd4cac0d49d4261368,2021-10-27_10h53.57.810,arrow_simon_punish,2021.1.2,Win32,60.18295619,,,,,,,,,,,,,,p,1,1.6632,2.447326121,1,5,1,0,4,0,1,,,,,,,,,,,,,,
,,,,,,,,,,,right.png,,p,right,610caddd4cac0d49d4261368,2021-10-27_10h53.57.810,arrow_simon_punish,2021.1.2,Win32,60.18295619,,,,,,,,,,,,,,p,1,1.5306,2.272448098,0,5,1,1,5,1,1,,,,,,,,,,,,,,
,,,,,,,,,,,left.png,,w,left,610caddd4cac0d49d4261368,2021-10-27_10h53.57.810,arrow_simon_punish,2021.1.2,Win32,60.18295619,,,,,,,,,,,,,,w,1,1.5002,2.000081865,0,5,1,2,6,2,1,,,,,,,,,,,,,,
,,,,,,,,,,,right.png,,p,right,610caddd4cac0d49d4261368,2021-10-27_10h53.57.810,arrow_simon_punish,2021.1.2,Win32,60.18295619,,,,,,,,,,,,,,p,1,1.4635,1.68655175,0,5,1,3,7,1,1,,,,,,,,,,,,,,
,,,,,,,,,,,right.png,,p,left,610caddd4cac0d49d4261368,2021-10-27_10h53.57.810,arrow_simon_punish,2021.1.2,Win32,60.18295619,,,,,,,,,,,,,,p,1,1.5477,2.375512819,0,5,2,0,8,0,1,,,,,,,,,,,,,,
,,,,,,,,,,,left.png,,w,right,610caddd4cac0d49d4261368,2021-10-27_10h53.57.810,arrow_simon_punish,2021.1.2,Win32,60.18295619,,,,,,,,,,,,,,p,0,1.5388,2.452749287,1,5,2,1,9,3,1,,,,,,,,,,,,,,
,,,,,,,,,,,left.png,,w,left,610caddd4cac0d49d4261368,2021-10-27_10h53.57.810,arrow_simon_punish,2021.1.2,Win32,60.18295619,,,,,,,,,,,,,,w,1,1.5026,1.991152638,0,5,2,2,10,2,1,,,,,,,,,,,,,,
,,,,,,,,,,,left.png,,w,left,610caddd4cac0d49d4261368,2021-10-27_10h53.57.810,arrow_simon_punish,2021.1.2,Win32,60.18295619,,,,,,,,,,,,,,w,1,1.4648,2.204375549,0,5,2,3,11,2,1,,,,,,,,,,,,,,
,,,,,,,,,,,left.png,,w,left,610caddd4cac0d49d4261368,2021-10-27_10h53.57.810,arrow_simon_punish,2021.1.2,Win32,60.18295619,,,,,,,,,,,,,,w,1,1.6584,2.440567225,1,5,3,0,12,2,1,,,,,,,,,,,,,,
,,,,,,,,,,,left.png,,w,right,610caddd4cac0d49d4261368,2021-10-27_10h53.57.810,arrow_simon_punish,2021.1.2,Win32,60.18295619,,,,,,,,,,,,,,w,1,1.4679,1.561063282,0,5,3,1,13,3,1,,,,,,,,,,,,,,
,,,,,,,,,,,left.png,,w,left,610caddd4cac0d49d4261368,2021-10-27_10h53.57.810,arrow_simon_punish,2021.1.2,Win32,60.18295619,,,,,,,,,,,,,,w,1,1.4859,1.870055848,0,5,3,2,14,2,1,,,,,,,,,,,,,,
,,,,,,,,,,,right.png,,p,right,610caddd4cac0d49d4261368,2021-10-27_10h53.57.810,arrow_simon_punish,2021.1.2,Win32,60.18295619,,,,,,,,,,,,,,p,1,1.5255,1.994149556,0,5,3,3,15,1,1,,,,,,,,,,,,,,
,,,,,,,,,,,right.png,,p,right,610caddd4cac0d49d4261368,2021-10-27_10h53.57.810,arrow_simon_punish,2021.1.2,Win32,60.18295619,,,,,,,,,,,,,,p,1,1.4814,1.689438417,0,5,4,0,16,1,1,,,,,,,,,,,,,,
,,,,,,,,,,,right.png,,p,right,610caddd4cac0d49d4261368,2021-10-27_10h53.57.810,arrow_simon_punish,2021.1.2,Win32,60.18295619,,,,,,,,,,,,,,p,1,1.5793,2.341645714,0,5,4,1,17,1,1,,,,,,,,,,,,,,
,,,,,,,,,,,right.png,,p,right,610caddd4cac0d49d4261368,2021-10-27_10h53.57.810,arrow_simon_punish,2021.1.2,Win32,60.18295619,,,,,,,,,,,,,,w,0,1.4929,2.223448181,1,5,4,2,18,1,1,,,,,,,,,,,,,,
,,,,,,,,,,,right.png,,p,right,610caddd4cac0d49d4261368,2021-10-27_10h53.57.810,arrow_simon_punish,2021.1.2,Win32,60.18295619,,,,,,,,,,,,,,w,0,1.4964,2.369846114,1,5,4,3,19,1,1,,,,,,,,,,,,,,
,,,,,,,,,,,left.png,,w,right,610caddd4cac0d49d4261368,2021-10-27_10h53.57.810,arrow_simon_punish,2021.1.2,Win32,60.18295619,,,,,,,,,,,,,,w,1,1.416,1.883468563,0,5,5,0,20,3,1,,,,,,,,,,,,,,
,,,,,,,,,,,right.png,,p,left,610caddd4cac0d49d4261368,2021-10-27_10h53.57.810,arrow_simon_punish,2021.1.2,Win32,60.18295619,,,,,,,,,,,,,,p,1,1.464,2.03758549,0,5,5,1,21,0,1,,,,,,,,,,,,,,
,,,,,,,,,,,left.png,,w,left,610caddd4cac0d49d4261368,2021-10-27_10h53.57.810,arrow_simon_punish,2021.1.2,Win32,60.18295619,,,,,,,,,,,,,,w,1,1.5141,2.493296423,0,5,5,2,22,2,1,,,,,,,,,,,,,,
,,,,,,,,,,,right.png,,p,left,610caddd4cac0d49d4261368,2021-10-27_10h53.57.810,arrow_simon_punish,2021.1.2,Win32,60.18295619,,,,,,,,,,,,,,p,1,1.4359,1.844020654,0,5,5,3,23,0,1,,,,,,,,,,,,,,
,,,,,,,,,,,right.png,,p,right,610caddd4cac0d49d4261368,2021-10-27_10h53.57.810,arrow_simon_punish,2021.1.2,Win32,60.18295619,,,,,,,,,,,,,,p,1,1.419,1.87210619,0,5,6,0,24,1,1,,,,,,,,,,,,,,
,,,,,,,,,,,right.png,,p,right,610caddd4cac0d49d4261368,2021-10-27_10h53.57.810,arrow_simon_punish,2021.1.2,Win32,60.18295619,,,,,,,,,,,,,,p,1,1.6271,2.404078532,1,5,6,1,25,1,1,,,,,,,,,,,,,,
,,,,,,,,,,,right.png,,p,left,610caddd4cac0d49d4261368,2021-10-27_10h53.57.810,arrow_simon_punish,2021.1.2,Win32,60.18295619,,,,,,,,,,,,,,p,1,1.4531,1.914915634,0,5,6,2,26,0,1,,,,,,,,,,,,,,
,,,,,,,,,,,left.png,,w,right,610caddd4cac0d49d4261368,2021-10-27_10h53.57.810,arrow_simon_punish,2021.1.2,Win32,60.18295619,,,,,,,,,,,,,,w,1,1.3485,1.53895619,1,5,6,3,27,3,1,,,,,,,,,,,,,,
,,,,,,,,,,,left.png,,w,right,610caddd4cac0d49d4261368,2021-10-27_10h53.57.810,arrow_simon_punish,2021.1.2,Win32,60.18295619,,,,,,,,,,,,,,p,0,1.4918,2.23374914,1,5,7,0,28,3,1,,,,,,,,,,,,,,
,,,,,,,,,,,left.png,,w,right,610caddd4cac0d49d4261368,2021-10-27_10h53.57.810,arrow_simon_punish,2021.1.2,Win32,60.18295619,,,,,,,,,,,,,,w,1,1.5041,2.082702095,0,5,7,1,29,3,1,,,,,,,,,,,,,,
,,,,,,,,,,,left.png,,w,right,610caddd4cac0d49d4261368,2021-10-27_10h53.57.810,arrow_simon_punish,2021.1.2,Win32,60.18295619,,,,,,,,,,,,,,w,1,1.5886,2.209238122,0,5,7,2,30,3,1,,,,,,,,,,,,,,
,,,,,,,,,,,left.png,,w,right,610caddd4cac0d49d4261368,2021-10-27_10h53.57.810,arrow_simon_punish,2021.1.2,Win32,60.18295619,,,,,,,,,,,,,,w,1,1.4139,1.634410351,0,5,7,3,31,3,1,,,,,,,,,,,,,,
,,,,,,,,,,,right.png,,p,right,610caddd4cac0d49d4261368,2021-10-27_10h53.57.810,arrow_simon_punish,2021.1.2,Win32,60.18295619,,,,,,,,,,,,,,p,1,1.4666,1.921246321,0,5,8,0,32,1,1,,,,,,,,,,,,,,
,,,,,,,,,,,right.png,,p,left,610caddd4cac0d49d4261368,2021-10-27_10h53.57.810,arrow_simon_punish,2021.1.2,Win32,60.18295619,,,,,,,,,,,,,,w,0,1.3884,2.058336108,1,5,8,1,33,0,1,,,,,,,,,,,,,,
,,,,,,,,,,,left.png,,w,left,610caddd4cac0d49d4261368,2021-10-27_10h53.57.810,arrow_simon_punish,2021.1.2,Win32,60.18295619,,,,,,,,,,,,,,p,0,1.4888,2.224040209,1,5,8,2,34,2,1,,,,,,,,,,,,,,
,,,,,,,,,,,right.png,,p,left,610caddd4cac0d49d4261368,2021-10-27_10h53.57.810,arrow_simon_punish,2021.1.2,Win32,60.18295619,,,,,,,,,,,,,,p,1,1.4528,1.655242907,0,5,8,3,35,0,1,,,,,,,,,,,,,,
,,,,,,,,,,,right.png,,p,right,610caddd4cac0d49d4261368,2021-10-27_10h53.57.810,arrow_simon_punish,2021.1.2,Win32,60.18295619,,,,,,,,,,,,,,p,1,1.3889,2.061981109,1,5,9,0,36,1,1,,,,,,,,,,,,,,
,,,,,,,,,,,right.png,,p,right,610caddd4cac0d49d4261368,2021-10-27_10h53.57.810,arrow_simon_punish,2021.1.2,Win32,60.18295619,,,,,,,,,,,,,,p,1,1.4855,1.902489644,0,5,9,1,37,1,1,,,,,,,,,,,,,,
,,,,,,,,,,,left.png,,w,left,610caddd4cac0d49d4261368,2021-10-27_10h53.57.810,arrow_simon_punish,2021.1.2,Win32,60.18295619,,,,,,,,,,,,,,w,1,1.4474,1.50793374,0,5,9,2,38,2,1,,,,,,,,,,,,,,
,,,,,,,,,,,left.png,,w,right,610caddd4cac0d49d4261368,2021-10-27_10h53.57.810,arrow_simon_punish,2021.1.2,Win32,60.18295619,,,,,,,,,,,,,,p,0,1.6531,2.372358407,1,5,9,3,39,3,1,,,,,,,,,,,,,,
,,,,,,,,,,,right.png,,p,left,610caddd4cac0d49d4261368,2021-10-27_10h53.57.810,arrow_simon_punish,2021.1.2,Win32,60.18295619,,,,,,,,,,,,,,w,0,1.5023,2.134417008,1,5,10,0,40,0,1,,,,,,,,,,,,,,
,,,,,,,,,,,right.png,,p,left,610caddd4cac0d49d4261368,2021-10-27_10h53.57.810,arrow_simon_punish,2021.1.2,Win32,60.18295619,,,,,,,,,,,,,,p,1,1.5524,1.847595546,0,5,10,1,41,0,1,,,,,,,,,,,,,,
,,,,,,,,,,,left.png,,w,right,610caddd4cac0d49d4261368,2021-10-27_10h53.57.810,arrow_simon_punish,2021.1.2,Win32,60.18295619,,,,,,,,,,,,,,w,1,1.5355,2.126293031,0,5,10,2,42,3,1,,,,,,,,,,,,,,
,,,,,,,,,,,right.png,,p,left,610caddd4cac0d49d4261368,2021-10-27_10h53.57.810,arrow_simon_punish,2021.1.2,Win32,60.18295619,,,,,,,,,,,,,,p,1,1.5643,1.963734793,0,5,10,3,43,0,1,,,,,,,,,,,,,,
,,,,,,,,,,,left.png,,w,right,610caddd4cac0d49d4261368,2021-10-27_10h53.57.810,arrow_simon_punish,2021.1.2,Win32,60.18295619,,,,,,,,,,,,,,w,1,1.5749,2.159466065,0,5,11,0,44,3,1,,,,,,,,,,,,,,
,,,,,,,,,,,right.png,,p,right,610caddd4cac0d49d4261368,2021-10-27_10h53.57.810,arrow_simon_punish,2021.1.2,Win32,60.18295619,,,,,,,,,,,,,,p,1,1.4844,1.70316689,0,5,11,1,45,1,1,,,,,,,,,,,,,,
,,,,,,,,,,,left.png,,w,left,610caddd4cac0d49d4261368,2021-10-27_10h53.57.810,arrow_simon_punish,2021.1.2,Win32,60.18295619,,,,,,,,,,,,,,w,1,1.6969,2.414539914,1,5,11,2,46,2,1,,,,,,,,,,,,,,
,,,,,,,,,,,left.png,,w,right,610caddd4cac0d49d4261368,2021-10-27_10h53.57.810,arrow_simon_punish,2021.1.2,Win32,60.18295619,,,,,,,,,,,,,,p,0,1.4606,2.145530508,1,5,11,3,47,3,1,,,,,,,,,,,,,,
,,,,,,,,,,,right.png,,p,left,610caddd4cac0d49d4261368,2021-10-27_10h53.57.810,arrow_simon_punish,2021.1.2,Win32,60.18295619,,,,,,,,,,,,,,p,1,1.6795,2.234012238,1,5,12,0,48,0,1,,,,,,,,,,,,,,
,,,,,,,,,,,left.png,,w,right,610caddd4cac0d49d4261368,2021-10-27_10h53.57.810,arrow_simon_punish,2021.1.2,Win32,60.18295619,,,,,,,,,,,,,,w,1,1.5967,1.633382498,0,5,12,1,49,3,1,,,,,,,,,,,,,,
,,,,,,,,,,,right.png,,p,left,610caddd4cac0d49d4261368,2021-10-27_10h53.57.810,arrow_simon_punish,2021.1.2,Win32,60.18295619,,,,,,,,,,,,,,p,1,1.5025,1.829896015,0,5,12,2,50,0,1,,,,,,,,,,,,,,
,,,,,,,,,,,left.png,,w,left,610caddd4cac0d49d4261368,2021-10-27_10h53.57.810,arrow_simon_punish,2021.1.2,Win32,60.18295619,,,,,,,,,,,,,,w,1,1.521,1.52317826,0,5,12,3,51,2,1,,,,,,,,,,,,,,
,,,,,,,,,,,right.png,,p,left,610caddd4cac0d49d4261368,2021-10-27_10h53.57.810,arrow_simon_punish,2021.1.2,Win32,60.18295619,,,,,,,,,,,,,,p,1,1.3701,1.662002356,1,5,13,0,52,0,1,,,,,,,,,,,,,,
,,,,,,,,,,,left.png,,w,left,610caddd4cac0d49d4261368,2021-10-27_10h53.57.810,arrow_simon_punish,2021.1.2,Win32,60.18295619,,,,,,,,,,,,,,w,1,1.514,1.848971534,0,5,13,1,53,2,1,,,,,,,,,,,,,,
,,,,,,,,,,,left.png,,w,left,610caddd4cac0d49d4261368,2021-10-27_10h53.57.810,arrow_simon_punish,2021.1.2,Win32,60.18295619,,,,,,,,,,,,,,w,1,1.4506,1.813868063,0,5,13,2,54,2,1,,,,,,,,,,,,,,
,,,,,,,,,,,left.png,,w,right,610caddd4cac0d49d4261368,2021-10-27_10h53.57.810,arrow_simon_punish,2021.1.2,Win32,60.18295619,,,,,,,,,,,,,,w,1,1.5471,1.669947582,0,5,13,3,55,3,1,,,,,,,,,,,,,,
,,,,,,,,,,,left.png,,w,left,610caddd4cac0d49d4261368,2021-10-27_10h53.57.810,arrow_simon_punish,2021.1.2,Win32,60.18295619,,,,,,,,,,,,,,w,1,1.52,1.994835152,0,5,14,0,56,2,1,,,,,,,,,,,,,,
,,,,,,,,,,,right.png,,p,right,610caddd4cac0d49d4261368,2021-10-27_10h53.57.810,arrow_simon_punish,2021.1.2,Win32,60.18295619,,,,,,,,,,,,,,p,1,1.5357,2.270048064,0,5,14,1,57,1,1,,,,,,,,,,,,,,
,,,,,,,,,,,right.png,,p,left,610caddd4cac0d49d4261368,2021-10-27_10h53.57.810,arrow_simon_punish,2021.1.2,Win32,60.18295619,,,,,,,,,,,,,,p,1,1.5519,2.0682833,0,5,14,2,58,0,1,,,,,,,,,,,,,,
,,,,,,,,,,,left.png,,w,left,610caddd4cac0d49d4261368,2021-10-27_10h53.57.810,arrow_simon_punish,2021.1.2,Win32,60.18295619,,,,,,,,,,,,,,w,1,1.4857,1.962309685,0,5,14,3,59,2,1,,,,,,,,,,,,,,
,,,,,,,,,,,,,,,610caddd4cac0d49d4261368,2021-10-27_10h53.57.810,arrow_simon_punish,2021.1.2,Win32,60.18295619,,,,,,,,,,,,,,,,,,,,,,,,,space,6.9855,7,2,1,5,1,1,5,,,,,
,,,,,,,,,,,right.png,,p,left,610caddd4cac0d49d4261368,2021-10-27_10h53.57.810,arrow_simon_punish,2021.1.2,Win32,60.18295619,,,,,,,,,,,,,,p,1,2.1811,1.553499468,1,1,0,0,0,0,1,,,,,,,,,,,,,,
,,,,,,,,,,,left.png,,w,right,610caddd4cac0d49d4261368,2021-10-27_10h53.57.810,arrow_simon_punish,2021.1.2,Win32,60.18295619,,,,,,,,,,,,,,p,0,1.6521,2.35133507,1,1,0,1,1,3,1,,,,,,,,,,,,,,
,,,,,,,,,,,right.png,,p,left,610caddd4cac0d49d4261368,2021-10-27_10h53.57.810,arrow_simon_punish,2021.1.2,Win32,60.18295619,,,,,,,,,,,,,,p,1,1.5051,2.068582272,0,1,0,2,2,0,1,,,,,,,,,,,,,,
,,,,,,,,,,,left.png,,w,left,610caddd4cac0d49d4261368,2021-10-27_10h53.57.810,arrow_simon_punish,2021.1.2,Win32,60.18295619,,,,,,,,,,,,,,w,1,1.6143,2.226712114,1,1,0,3,3,2,1,,,,,,,,,,,,,,
,,,,,,,,,,,left.png,,w,right,610caddd4cac0d49d4261368,2021-10-27_10h53.57.810,arrow_simon_punish,2021.1.2,Win32,60.18295619,,,,,,,,,,,,,,p,0,1.5649,2.334412215,1,1,1,0,4,3,1,,,,,,,,,,,,,,
,,,,,,,,,,,right.png,,p,right,610caddd4cac0d49d4261368,2021-10-27_10h53.57.810,arrow_simon_punish,2021.1.2,Win32,60.18295619,,,,,,,,,,,,,,p,1,1.5398,2.277939378,0,1,1,1,5,1,1,,,,,,,,,,,,,,
,,,,,,,,,,,right.png,,p,left,610caddd4cac0d49d4261368,2021-10-27_10h53.57.810,arrow_simon_punish,2021.1.2,Win32,60.18295619,,,,,,,,,,,,,,p,1,1.5191,1.727944284,0,1,1,2,6,0,1,,,,,,,,,,,,,,
,,,,,,,,,,,left.png,,w,left,610caddd4cac0d49d4261368,2021-10-27_10h53.57.810,arrow_simon_punish,2021.1.2,Win32,60.18295619,,,,,,,,,,,,,,w,1,1.5201,1.73802845,0,1,1,3,7,2,1,,,,,,,,,,,,,,
,,,,,,,,,,,right.png,,p,right,610caddd4cac0d49d4261368,2021-10-27_10h53.57.810,arrow_simon_punish,2021.1.2,Win32,60.18295619,,,,,,,,,,,,,,p,1,1.5866,2.299179119,0,1,2,0,8,1,1,,,,,,,,,,,,,,
,,,,,,,,,,,right.png,,p,left,610caddd4cac0d49d4261368,2021-10-27_10h53.57.810,arrow_simon_punish,2021.1.2,Win32,60.18295619,,,,,,,,,,,,,,w,0,1.652,2.366934726,1,1,2,1,9,0,1,,,,,,,,,,,,,,
,,,,,,,,,,,right.png,,p,right,610caddd4cac0d49d4261368,2021-10-27_10h53.57.810,arrow_simon_punish,2021.1.2,Win32,60.18295619,,,,,,,,,,,,,,w,0,1.5519,2.417795551,1,1,2,2,10,1,1,,,,,,,,,,,,,,
,,,,,,,,,,,left.png,,w,right,610caddd4cac0d49d4261368,2021-10-27_10h53.57.810,arrow_simon_punish,2021.1.2,Win32,60.18295619,,,,,,,,,,,,,,p,0,1.5528,2.345762299,1,1,2,3,11,3,1,,,,,,,,,,,,,,
,,,,,,,,,,,right.png,,p,right,610caddd4cac0d49d4261368,2021-10-27_10h53.57.810,arrow_simon_punish,2021.1.2,Win32,60.18295619,,,,,,,,,,,,,,p,1,1.5839,2.290232906,0,1,3,0,12,1,1,,,,,,,,,,,,,,
,,,,,,,,,,,right.png,,p,left,610caddd4cac0d49d4261368,2021-10-27_10h53.57.810,arrow_simon_punish,2021.1.2,Win32,60.18295619,,,,,,,,,,,,,,p,1,1.5467,2.365181355,0,1,3,1,13,0,1,,,,,,,,,,,,,,
,,,,,,,,,,,right.png,,p,right,610caddd4cac0d49d4261368,2021-10-27_10h53.57.810,arrow_simon_punish,2021.1.2,Win32,60.18295619,,,,,,,,,,,,,,p,1,1.5131,2.245656326,0,1,3,2,14,1,1,,,,,,,,,,,,,,
,,,,,,,,,,,left.png,,w,left,610caddd4cac0d49d4261368,2021-10-27_10h53.57.810,arrow_simon_punish,2021.1.2,Win32,60.18295619,,,,,,,,,,,,,,w,1,1.4267,1.989200494,0,1,3,3,15,2,1,,,,,,,,,,,,,,
,,,,,,,,,,,left.png,,w,left,610caddd4cac0d49d4261368,2021-10-27_10h53.57.810,arrow_simon_punish,2021.1.2,Win32,60.18295619,,,,,,,,,,,,,,w,1,1.3885,1.746110375,1,1,4,0,16,2,1,,,,,,,,,,,,,,
,,,,,,,,,,,right.png,,p,right,610caddd4cac0d49d4261368,2021-10-27_10h53.57.810,arrow_simon_punish,2021.1.2,Win32,60.18295619,,,,,,,,,,,,,,p,1,1.3894,1.9852107,1,1,4,1,17,1,1,,,,,,,,,,,,,,
,,,,,,,,,,,right.png,,p,left,610caddd4cac0d49d4261368,2021-10-27_10h53.57.810,arrow_simon_punish,2021.1.2,Win32,60.18295619,,,,,,,,,,,,,,p,1,1.6136,2.459845987,1,1,4,2,18,0,1,,,,,,,,,,,,,,
,,,,,,,,,,,left.png,,w,right,610caddd4cac0d49d4261368,2021-10-27_10h53.57.810,arrow_simon_punish,2021.1.2,Win32,60.18295619,,,,,,,,,,,,,,w,1,1.5192,1.582859679,0,1,4,3,19,3,1,,,,,,,,,,,,,,
,,,,,,,,,,,right.png,,p,right,610caddd4cac0d49d4261368,2021-10-27_10h53.57.810,arrow_simon_punish,2021.1.2,Win32,60.18295619,,,,,,,,,,,,,,p,1,1.5025,2.289723264,0,1,5,0,20,1,1,,,,,,,,,,,,,,
,,,,,,,,,,,right.png,,p,right,610caddd4cac0d49d4261368,2021-10-27_10h53.57.810,arrow_simon_punish,2021.1.2,Win32,60.18295619,,,,,,,,,,,,,,p,1,1.6797,2.337068387,1,1,5,1,21,1,1,,,,,,,,,,,,,,
,,,,,,,,,,,left.png,,w,left,610caddd4cac0d49d4261368,2021-10-27_10h53.57.810,arrow_simon_punish,2021.1.2,Win32,60.18295619,,,,,,,,,,,,,,w,1,1.3877,1.847983712,1,1,5,2,22,2,1,,,,,,,,,,,,,,
,,,,,,,,,,,right.png,,p,right,610caddd4cac0d49d4261368,2021-10-27_10h53.57.810,arrow_simon_punish,2021.1.2,Win32,60.18295619,,,,,,,,,,,,,,p,1,1.6685,2.405388851,1,1,5,3,23,1,1,,,,,,,,,,,,,,
,,,,,,,,,,,right.png,,p,left,610caddd4cac0d49d4261368,2021-10-27_10h53.57.810,arrow_simon_punish,2021.1.2,Win32,60.18295619,,,,,,,,,,,,,,w,0,1.5133,2.212348376,1,1,6,0,24,0,1,,,,,,,,,,,,,,
,,,,,,,,,,,right.png,,p,right,610caddd4cac0d49d4261368,2021-10-27_10h53.57.810,arrow_simon_punish,2021.1.2,Win32,60.18295619,,,,,,,,,,,,,,p,1,1.478,1.802574956,0,1,6,1,25,1,1,,,,,,,,,,,,,,
,,,,,,,,,,,left.png,,w,right,610caddd4cac0d49d4261368,2021-10-27_10h53.57.810,arrow_simon_punish,2021.1.2,Win32,60.18295619,,,,,,,,,,,,,,w,1,1.4829,1.560598808,0,1,6,2,26,3,1,,,,,,,,,,,,,,
,,,,,,,,,,,right.png,,p,right,610caddd4cac0d49d4261368,2021-10-27_10h53.57.810,arrow_simon_punish,2021.1.2,Win32,60.18295619,,,,,,,,,,,,,,p,1,1.5356,2.408571874,0,1,6,3,27,1,1,,,,,,,,,,,,,,
,,,,,,,,,,,left.png,,w,left,610caddd4cac0d49d4261368,2021-10-27_10h53.57.810,arrow_simon_punish,2021.1.2,Win32,60.18295619,,,,,,,,,,,,,,w,1,1.442,1.513821745,0,1,7,0,28,2,1,,,,,,,,,,,,,,
,,,,,,,,,,,left.png,,w,left,610caddd4cac0d49d4261368,2021-10-27_10h53.57.810,arrow_simon_punish,2021.1.2,Win32,60.18295619,,,,,,,,,,,,,,w,1,1.5811,1.987745534,0,1,7,1,29,2,1,,,,,,,,,,,,,,
,,,,,,,,,,,left.png,,w,right,610caddd4cac0d49d4261368,2021-10-27_10h53.57.810,arrow_simon_punish,2021.1.2,Win32,60.18295619,,,,,,,,,,,,,,w,1,1.5282,2.00447978,0,1,7,2,30,3,1,,,,,,,,,,,,,,
,,,,,,,,,,,left.png,,w,left,610caddd4cac0d49d4261368,2021-10-27_10h53.57.810,arrow_simon_punish,2021.1.2,Win32,60.18295619,,,,,,,,,,,,,,w,1,1.553,1.804373292,0,1,7,3,31,2,1,,,,,,,,,,,,,,
,,,,,,,,,,,right.png,,p,left,610caddd4cac0d49d4261368,2021-10-27_10h53.57.810,arrow_simon_punish,2021.1.2,Win32,60.18295619,,,,,,,,,,,,,,w,0,1.5963,2.275010148,1,1,8,0,32,0,1,,,,,,,,,,,,,,
,,,,,,,,,,,left.png,,w,right,610caddd4cac0d49d4261368,2021-10-27_10h53.57.810,arrow_simon_punish,2021.1.2,Win32,60.18295619,,,,,,,,,,,,,,p,0,1.5138,1.506948848,1,1,8,1,33,3,1,,,,,,,,,,,,,,
,,,,,,,,,,,left.png,,w,right,610caddd4cac0d49d4261368,2021-10-27_10h53.57.810,arrow_simon_punish,2021.1.2,Win32,60.18295619,,,,,,,,,,,,,,w,1,1.4853,1.911772131,0,1,8,2,34,3,1,,,,,,,,,,,,,,
,,,,,,,,,,,right.png,,p,right,610caddd4cac0d49d4261368,2021-10-27_10h53.57.810,arrow_simon_punish,2021.1.2,Win32,60.18295619,,,,,,,,,,,,,,p,1,1.8189,2.457056844,1,1,8,3,35,1,1,,,,,,,,,,,,,,
,,,,,,,,,,,right.png,,p,left,610caddd4cac0d49d4261368,2021-10-27_10h53.57.810,arrow_simon_punish,2021.1.2,Win32,60.18295619,,,,,,,,,,,,,,p,1,1.5002,1.996958079,0,1,9,0,36,0,1,,,,,,,,,,,,,,
,,,,,,,,,,,right.png,,p,left,610caddd4cac0d49d4261368,2021-10-27_10h53.57.810,arrow_simon_punish,2021.1.2,Win32,60.18295619,,,,,,,,,,,,,,p,1,1.6208,2.383301672,1,1,9,1,37,0,1,,,,,,,,,,,,,,
,,,,,,,,,,,left.png,,w,right,610caddd4cac0d49d4261368,2021-10-27_10h53.57.810,arrow_simon_punish,2021.1.2,Win32,60.18295619,,,,,,,,,,,,,,w,1,5.9193,2.211301871,1,1,9,2,38,3,1,,,,,,,,,,,,,,
,,,,,,,,,,,left.png,,w,left,610caddd4cac0d49d4261368,2021-10-27_10h53.57.810,arrow_simon_punish,2021.1.2,Win32,60.18295619,,,,,,,,,,,,,,w,1,1.5251,1.772775557,0,1,9,3,39,2,1,,,,,,,,,,,,,,
,,,,,,,,,,,left.png,,w,right,610caddd4cac0d49d4261368,2021-10-27_10h53.57.810,arrow_simon_punish,2021.1.2,Win32,60.18295619,,,,,,,,,,,,,,w,1,1.4473,1.649953177,0,1,10,0,40,3,1,,,,,,,,,,,,,,
,,,,,,,,,,,right.png,,p,right,610caddd4cac0d49d4261368,2021-10-27_10h53.57.810,arrow_simon_punish,2021.1.2,Win32,60.18295619,,,,,,,,,,,,,,p,1,1.1481,1.707001728,1,1,10,1,41,1,1,,,,,,,,,,,,,,
,,,,,,,,,,,left.png,,w,right,610caddd4cac0d49d4261368,2021-10-27_10h53.57.810,arrow_simon_punish,2021.1.2,Win32,60.18295619,,,,,,,,,,,,,,w,1,1.0814,1.670290152,1,1,10,2,42,3,1,,,,,,,,,,,,,,
,,,,,,,,,,,right.png,,p,left,610caddd4cac0d49d4261368,2021-10-27_10h53.57.810,arrow_simon_punish,2021.1.2,Win32,60.18295619,,,,,,,,,,,,,,p,1,1.4512,1.538708553,0,1,10,3,43,0,1,,,,,,,,,,,,,,
,,,,,,,,,,,left.png,,w,left,610caddd4cac0d49d4261368,2021-10-27_10h53.57.810,arrow_simon_punish,2021.1.2,Win32,60.18295619,,,,,,,,,,,,,,w,1,1.4012,1.783187557,0,1,11,0,44,2,1,,,,,,,,,,,,,,
,,,,,,,,,,,left.png,,w,left,610caddd4cac0d49d4261368,2021-10-27_10h53.57.810,arrow_simon_punish,2021.1.2,Win32,60.18295619,,,,,,,,,,,,,,w,1,1.6311,1.756652972,1,1,11,1,45,2,1,,,,,,,,,,,,,,
,,,,,,,,,,,left.png,,w,left,610caddd4cac0d49d4261368,2021-10-27_10h53.57.810,arrow_simon_punish,2021.1.2,Win32,60.18295619,,,,,,,,,,,,,,w,1,1.3305,1.948550218,1,1,11,2,46,2,1,,,,,,,,,,,,,,
,,,,,,,,,,,left.png,,w,right,610caddd4cac0d49d4261368,2021-10-27_10h53.57.810,arrow_simon_punish,2021.1.2,Win32,60.18295619,,,,,,,,,,,,,,w,1,1.5693,2.421591574,0,1,11,3,47,3,1,,,,,,,,,,,,,,
,,,,,,,,,,,right.png,,p,right,610caddd4cac0d49d4261368,2021-10-27_10h53.57.810,arrow_simon_punish,2021.1.2,Win32,60.18295619,,,,,,,,,,,,,,p,1,1.4311,1.883846254,0,1,12,0,48,1,1,,,,,,,,,,,,,,
,,,,,,,,,,,left.png,,w,left,610caddd4cac0d49d4261368,2021-10-27_10h53.57.810,arrow_simon_punish,2021.1.2,Win32,60.18295619,,,,,,,,,,,,,,w,1,1.8324,1.836550964,1,1,12,1,49,2,1,,,,,,,,,,,,,,
,,,,,,,,,,,right.png,,p,left,610caddd4cac0d49d4261368,2021-10-27_10h53.57.810,arrow_simon_punish,2021.1.2,Win32,60.18295619,,,,,,,,,,,,,,p,1,1.1916,1.681585729,1,1,12,2,50,0,1,,,,,,,,,,,,,,
,,,,,,,,,,,left.png,,w,left,610caddd4cac0d49d4261368,2021-10-27_10h53.57.810,arrow_simon_punish,2021.1.2,Win32,60.18295619,,,,,,,,,,,,,,w,1,1.88,2.365763257,1,1,12,3,51,2,1,,,,,,,,,,,,,,
,,,,,,,,,,,right.png,,p,right,610caddd4cac0d49d4261368,2021-10-27_10h53.57.810,arrow_simon_punish,2021.1.2,Win32,60.18295619,,,,,,,,,,,,,,p,1,1.512,1.592950562,0,1,13,0,52,1,1,,,,,,,,,,,,,,
,,,,,,,,,,,right.png,,p,left,610caddd4cac0d49d4261368,2021-10-27_10h53.57.810,arrow_simon_punish,2021.1.2,Win32,60.18295619,,,,,,,,,,,,,,w,0,0.3379,1.56670481,1,1,13,1,53,0,1,,,,,,,,,,,,,,
,,,,,,,,,,,right.png,,p,left,610caddd4cac0d49d4261368,2021-10-27_10h53.57.810,arrow_simon_punish,2021.1.2,Win32,60.18295619,,,,,,,,,,,,,,p,1,1.547,1.934569392,0,1,13,2,54,0,1,,,,,,,,,,,,,,
,,,,,,,,,,,left.png,,w,right,610caddd4cac0d49d4261368,2021-10-27_10h53.57.810,arrow_simon_punish,2021.1.2,Win32,60.18295619,,,,,,,,,,,,,,w,1,1.469,1.97200568,0,1,13,3,55,3,1,,,,,,,,,,,,,,
,,,,,,,,,,,right.png,,p,left,610caddd4cac0d49d4261368,2021-10-27_10h53.57.810,arrow_simon_punish,2021.1.2,Win32,60.18295619,,,,,,,,,,,,,,p,1,1.432,1.752175173,0,1,14,0,56,0,1,,,,,,,,,,,,,,
,,,,,,,,,,,left.png,,w,right,610caddd4cac0d49d4261368,2021-10-27_10h53.57.810,arrow_simon_punish,2021.1.2,Win32,60.18295619,,,,,,,,,,,,,,w,1,1.4522,2.025491264,0,1,14,1,57,3,1,,,,,,,,,,,,,,
,,,,,,,,,,,left.png,,w,left,610caddd4cac0d49d4261368,2021-10-27_10h53.57.810,arrow_simon_punish,2021.1.2,Win32,60.18295619,,,,,,,,,,,,,,w,1,1.3474,1.538960309,1,1,14,2,58,2,1,,,,,,,,,,,,,,
,,,,,,,,,,,left.png,,w,right,610caddd4cac0d49d4261368,2021-10-27_10h53.57.810,arrow_simon_punish,2021.1.2,Win32,60.18295619,,,,,,,,,,,,,,p,0,1.5355,2.432469282,1,1,14,3,59,3,1,,,,,,,,,,,,,,
,,,,,,,,,,,,,,,610caddd4cac0d49d4261368,2021-10-27_10h53.57.810,arrow_simon_punish,2021.1.2,Win32,60.18295619,,,,,,,,,,,,,,,,,,,,,,,,,space,10.3772,8,3,0,6,0,1,1,,,,,
,,,,,,,,,,,left.png,,w,right,610caddd4cac0d49d4261368,2021-10-27_10h53.57.810,arrow_simon_punish,2021.1.2,Win32,60.18295619,,,,,,,,,,,,,,p,0,1.3012,1.813775826,1,5,0,0,0,3,1,,,,,,,,,,,,,,
,,,,,,,,,,,right.png,,p,left,610caddd4cac0d49d4261368,2021-10-27_10h53.57.810,arrow_simon_punish,2021.1.2,Win32,60.18295619,,,,,,,,,,,,,,w,0,1.4002,2.08628742,1,5,0,1,1,0,1,,,,,,,,,,,,,,
,,,,,,,,,,,right.png,,p,right,610caddd4cac0d49d4261368,2021-10-27_10h53.57.810,arrow_simon_punish,2021.1.2,Win32,60.18295619,,,,,,,,,,,,,,p,1,1.3459,1.524114007,1,5,0,2,2,1,1,,,,,,,,,,,,,,
,,,,,,,,,,,right.png,,p,right,610caddd4cac0d49d4261368,2021-10-27_10h53.57.810,arrow_simon_punish,2021.1.2,Win32,60.18295619,,,,,,,,,,,,,,p,1,1.3143,1.622025113,1,5,0,3,3,1,1,,,,,,,,,,,,,,
,,,,,,,,,,,left.png,,w,left,610caddd4cac0d49d4261368,2021-10-27_10h53.57.810,arrow_simon_punish,2021.1.2,Win32,60.18295619,,,,,,,,,,,,,,p,0,1.4528,2.254598853,1,5,1,0,4,2,1,,,,,,,,,,,,,,
,,,,,,,,,,,left.png,,w,right,610caddd4cac0d49d4261368,2021-10-27_10h53.57.810,arrow_simon_punish,2021.1.2,Win32,60.18295619,,,,,,,,,,,,,,w,1,1.3354,1.925080725,1,5,1,1,5,3,1,,,,,,,,,,,,,,
,,,,,,,,,,,right.png,,p,right,610caddd4cac0d49d4261368,2021-10-27_10h53.57.810,arrow_simon_punish,2021.1.2,Win32,60.18295619,,,,,,,,,,,,,,w,0,1.6141,2.38734754,1,5,1,2,6,1,1,,,,,,,,,,,,,,
,,,,,,,,,,,left.png,,w,right,610caddd4cac0d49d4261368,2021-10-27_10h53.57.810,arrow_simon_punish,2021.1.2,Win32,60.18295619,,,,,,,,,,,,,,w,1,1.4089,1.741451399,0,5,1,3,7,3,1,,,,,,,,,,,,,,
,,,,,,,,,,,left.png,,w,left,610caddd4cac0d49d4261368,2021-10-27_10h53.57.810,arrow_simon_punish,2021.1.2,Win32,60.18295619,,,,,,,,,,,,,,w,1,1.4137,1.772828907,0,5,2,0,8,2,1,,,,,,,,,,,,,,
