instruct_resp_simon.keys,instruct_resp_simon.corr,instruct_resp_simon.rt,trial_resp_simon.keys,trial_resp_simon.corr,trial_resp_simon.rt,trials_train_simon.thisRepN,trials_train_simon.thisTrialN,trials_train_simon.thisN,trials_train_simon.thisIndex,trials_train_simon.ran,target_file,target_pos,target_resp,target_side,participant,date,expName,psychopyVersion,OS,frameRate,instruct_resp_timing.keys,instruct_resp_timing.corr,instruct_resp_timing.rt,trial_resp_timing.keys,trial_resp_timing.rt,trials_train_timing.thisRepN,trials_train_timing.thisTrialN,trials_train_timing.thisN,trials_train_timing.thisIndex,trials_train_timing.ran,instruct_resp.keys,instruct_resp.corr,instruct_resp.rt,trial_resp.keys,trial_resp.corr,trial_resp.rt,target_onset,err,pun,trials.thisRepN,trials.thisTrialN,trials.thisN,trials.thisIndex,trials.ran,block_note_resp.keys,block_note_resp.rt,block_num,blocks.thisRepN,blocks.thisTrialN,blocks.thisN,blocks.thisIndex,blocks.ran,punish,complete_resp.keys,complete_resp.rt,raffle_trial,raffle_err,raffle_rew
space,0,31.302,p,1,2.764,0,0,0,1,1,right.png,,p,right,610dd74ebf5c4e1977a3e54e,2021-10-22_16h29.07.144,arrow_simon_punish,2021.1.2,Win32,60.0024001,,,,,,,,,,,,,,,,,,,,,,,,,,,,,,,,,,,,,,
,,,w,0,1.154,0,1,1,0,1,right.png,,p,left,610dd74ebf5c4e1977a3e54e,2021-10-22_16h29.07.144,arrow_simon_punish,2021.1.2,Win32,60.0024001,,,,,,,,,,,,,,,,,,,,,,,,,,,,,,,,,,,,,,
,,,w,1,3.014,0,2,2,2,1,left.png,,w,left,610dd74ebf5c4e1977a3e54e,2021-10-22_16h29.07.144,arrow_simon_punish,2021.1.2,Win32,60.0024001,,,,,,,,,,,,,,,,,,,,,,,,,,,,,,,,,,,,,,
,,,w,1,2.056,0,3,3,3,1,left.png,,w,right,610dd74ebf5c4e1977a3e54e,2021-10-22_16h29.07.144,arrow_simon_punish,2021.1.2,Win32,60.0024001,,,,,,,,,,,,,,,,,,,,,,,,,,,,,,,,,,,,,,
,,,w,1,1.315,1,0,4,2,1,left.png,,w,left,610dd74ebf5c4e1977a3e54e,2021-10-22_16h29.07.144,arrow_simon_punish,2021.1.2,Win32,60.0024001,,,,,,,,,,,,,,,,,,,,,,,,,,,,,,,,,,,,,,
,,,p,1,1.343,1,1,5,0,1,right.png,,p,left,610dd74ebf5c4e1977a3e54e,2021-10-22_16h29.07.144,arrow_simon_punish,2021.1.2,Win32,60.0024001,,,,,,,,,,,,,,,,,,,,,,,,,,,,,,,,,,,,,,
,,,p,1,1.352,1,2,6,1,1,right.png,,p,right,610dd74ebf5c4e1977a3e54e,2021-10-22_16h29.07.144,arrow_simon_punish,2021.1.2,Win32,60.0024001,,,,,,,,,,,,,,,,,,,,,,,,,,,,,,,,,,,,,,
,,,w,1,3.759,1,3,7,3,1,left.png,,w,right,610dd74ebf5c4e1977a3e54e,2021-10-22_16h29.07.144,arrow_simon_punish,2021.1.2,Win32,60.0024001,,,,,,,,,,,,,,,,,,,,,,,,,,,,,,,,,,,,,,
,,,p,1,2.332,2,0,8,0,1,right.png,,p,left,610dd74ebf5c4e1977a3e54e,2021-10-22_16h29.07.144,arrow_simon_punish,2021.1.2,Win32,60.0024001,,,,,,,,,,,,,,,,,,,,,,,,,,,,,,,,,,,,,,
,,,w,1,2.244,2,1,9,3,1,left.png,,w,right,610dd74ebf5c4e1977a3e54e,2021-10-22_16h29.07.144,arrow_simon_punish,2021.1.2,Win32,60.0024001,,,,,,,,,,,,,,,,,,,,,,,,,,,,,,,,,,,,,,
,,,p,1,1.568,2,2,10,1,1,right.png,,p,right,610dd74ebf5c4e1977a3e54e,2021-10-22_16h29.07.144,arrow_simon_punish,2021.1.2,Win32,60.0024001,,,,,,,,,,,,,,,,,,,,,,,,,,,,,,,,,,,,,,
,,,w,1,1.399,2,3,11,2,1,left.png,,w,left,610dd74ebf5c4e1977a3e54e,2021-10-22_16h29.07.144,arrow_simon_punish,2021.1.2,Win32,60.0024001,,,,,,,,,,,,,,,,,,,,,,,,,,,,,,,,,,,,,,
,,,p,1,1.195,3,0,12,1,1,right.png,,p,right,610dd74ebf5c4e1977a3e54e,2021-10-22_16h29.07.144,arrow_simon_punish,2021.1.2,Win32,60.0024001,,,,,,,,,,,,,,,,,,,,,,,,,,,,,,,,,,,,,,
,,,w,1,0.847,3,1,13,2,1,left.png,,w,left,610dd74ebf5c4e1977a3e54e,2021-10-22_16h29.07.144,arrow_simon_punish,2021.1.2,Win32,60.0024001,,,,,,,,,,,,,,,,,,,,,,,,,,,,,,,,,,,,,,
,,,w,1,1.014,3,2,14,3,1,left.png,,w,right,610dd74ebf5c4e1977a3e54e,2021-10-22_16h29.07.144,arrow_simon_punish,2021.1.2,Win32,60.0024001,,,,,,,,,,,,,,,,,,,,,,,,,,,,,,,,,,,,,,
,,,p,1,1.19,3,3,15,0,1,right.png,,p,left,610dd74ebf5c4e1977a3e54e,2021-10-22_16h29.07.144,arrow_simon_punish,2021.1.2,Win32,60.0024001,,,,,,,,,,,,,,,,,,,,,,,,,,,,,,,,,,,,,,
,,,w,1,2.917,4,0,16,2,1,left.png,,w,left,610dd74ebf5c4e1977a3e54e,2021-10-22_16h29.07.144,arrow_simon_punish,2021.1.2,Win32,60.0024001,,,,,,,,,,,,,,,,,,,,,,,,,,,,,,,,,,,,,,
,,,p,1,1.793,4,1,17,0,1,right.png,,p,left,610dd74ebf5c4e1977a3e54e,2021-10-22_16h29.07.144,arrow_simon_punish,2021.1.2,Win32,60.0024001,,,,,,,,,,,,,,,,,,,,,,,,,,,,,,,,,,,,,,
,,,p,1,1.612,4,2,18,1,1,right.png,,p,right,610dd74ebf5c4e1977a3e54e,2021-10-22_16h29.07.144,arrow_simon_punish,2021.1.2,Win32,60.0024001,,,,,,,,,,,,,,,,,,,,,,,,,,,,,,,,,,,,,,
,,,w,1,2.335,4,3,19,3,1,left.png,,w,right,610dd74ebf5c4e1977a3e54e,2021-10-22_16h29.07.144,arrow_simon_punish,2021.1.2,Win32,60.0024001,,,,,,,,,,,,,,,,,,,,,,,,,,,,,,,,,,,,,,
,,,w,1,0.93,5,0,20,2,1,left.png,,w,left,610dd74ebf5c4e1977a3e54e,2021-10-22_16h29.07.144,arrow_simon_punish,2021.1.2,Win32,60.0024001,,,,,,,,,,,,,,,,,,,,,,,,,,,,,,,,,,,,,,
,,,p,1,1.427,5,1,21,1,1,right.png,,p,right,610dd74ebf5c4e1977a3e54e,2021-10-22_16h29.07.144,arrow_simon_punish,2021.1.2,Win32,60.0024001,,,,,,,,,,,,,,,,,,,,,,,,,,,,,,,,,,,,,,
,,,p,1,0.977,5,2,22,0,1,right.png,,p,left,610dd74ebf5c4e1977a3e54e,2021-10-22_16h29.07.144,arrow_simon_punish,2021.1.2,Win32,60.0024001,,,,,,,,,,,,,,,,,,,,,,,,,,,,,,,,,,,,,,
,,,w,1,1.482,5,3,23,3,1,left.png,,w,right,610dd74ebf5c4e1977a3e54e,2021-10-22_16h29.07.144,arrow_simon_punish,2021.1.2,Win32,60.0024001,,,,,,,,,,,,,,,,,,,,,,,,,,,,,,,,,,,,,,
,,,p,1,1.147,6,0,24,0,1,right.png,,p,left,610dd74ebf5c4e1977a3e54e,2021-10-22_16h29.07.144,arrow_simon_punish,2021.1.2,Win32,60.0024001,,,,,,,,,,,,,,,,,,,,,,,,,,,,,,,,,,,,,,
,,,w,1,1.866,6,1,25,3,1,left.png,,w,right,610dd74ebf5c4e1977a3e54e,2021-10-22_16h29.07.144,arrow_simon_punish,2021.1.2,Win32,60.0024001,,,,,,,,,,,,,,,,,,,,,,,,,,,,,,,,,,,,,,
,,,w,1,2.09,6,2,26,2,1,left.png,,w,left,610dd74ebf5c4e1977a3e54e,2021-10-22_16h29.07.144,arrow_simon_punish,2021.1.2,Win32,60.0024001,,,,,,,,,,,,,,,,,,,,,,,,,,,,,,,,,,,,,,
,,,p,1,0.77,6,3,27,1,1,right.png,,p,right,610dd74ebf5c4e1977a3e54e,2021-10-22_16h29.07.144,arrow_simon_punish,2021.1.2,Win32,60.0024001,,,,,,,,,,,,,,,,,,,,,,,,,,,,,,,,,,,,,,
,,,w,1,1.396,7,0,28,3,1,left.png,,w,right,610dd74ebf5c4e1977a3e54e,2021-10-22_16h29.07.144,arrow_simon_punish,2021.1.2,Win32,60.0024001,,,,,,,,,,,,,,,,,,,,,,,,,,,,,,,,,,,,,,
,,,w,1,1.264,7,1,29,2,1,left.png,,w,left,610dd74ebf5c4e1977a3e54e,2021-10-22_16h29.07.144,arrow_simon_punish,2021.1.2,Win32,60.0024001,,,,,,,,,,,,,,,,,,,,,,,,,,,,,,,,,,,,,,
,,,p,1,1.453,7,2,30,1,1,right.png,,p,right,610dd74ebf5c4e1977a3e54e,2021-10-22_16h29.07.144,arrow_simon_punish,2021.1.2,Win32,60.0024001,,,,,,,,,,,,,,,,,,,,,,,,,,,,,,,,,,,,,,
,,,p,1,1.118,7,3,31,0,1,right.png,,p,left,610dd74ebf5c4e1977a3e54e,2021-10-22_16h29.07.144,arrow_simon_punish,2021.1.2,Win32,60.0024001,,,,,,,,,,,,,,,,,,,,,,,,,,,,,,,,,,,,,,
,,,w,1,1.428,8,0,32,3,1,left.png,,w,right,610dd74ebf5c4e1977a3e54e,2021-10-22_16h29.07.144,arrow_simon_punish,2021.1.2,Win32,60.0024001,,,,,,,,,,,,,,,,,,,,,,,,,,,,,,,,,,,,,,
,,,p,1,1.161,8,1,33,1,1,right.png,,p,right,610dd74ebf5c4e1977a3e54e,2021-10-22_16h29.07.144,arrow_simon_punish,2021.1.2,Win32,60.0024001,,,,,,,,,,,,,,,,,,,,,,,,,,,,,,,,,,,,,,
,,,p,1,2.19,8,2,34,0,1,right.png,,p,left,610dd74ebf5c4e1977a3e54e,2021-10-22_16h29.07.144,arrow_simon_punish,2021.1.2,Win32,60.0024001,,,,,,,,,,,,,,,,,,,,,,,,,,,,,,,,,,,,,,
,,,w,1,1.191,8,3,35,2,1,left.png,,w,left,610dd74ebf5c4e1977a3e54e,2021-10-22_16h29.07.144,arrow_simon_punish,2021.1.2,Win32,60.0024001,,,,,,,,,,,,,,,,,,,,,,,,,,,,,,,,,,,,,,
,,,p,1,1.163,9,0,36,0,1,right.png,,p,left,610dd74ebf5c4e1977a3e54e,2021-10-22_16h29.07.144,arrow_simon_punish,2021.1.2,Win32,60.0024001,,,,,,,,,,,,,,,,,,,,,,,,,,,,,,,,,,,,,,
,,,w,1,1.845,9,1,37,3,1,left.png,,w,right,610dd74ebf5c4e1977a3e54e,2021-10-22_16h29.07.144,arrow_simon_punish,2021.1.2,Win32,60.0024001,,,,,,,,,,,,,,,,,,,,,,,,,,,,,,,,,,,,,,
,,,p,1,1.881,9,2,38,1,1,right.png,,p,right,610dd74ebf5c4e1977a3e54e,2021-10-22_16h29.07.144,arrow_simon_punish,2021.1.2,Win32,60.0024001,,,,,,,,,,,,,,,,,,,,,,,,,,,,,,,,,,,,,,
,,,w,1,2.749,9,3,39,2,1,left.png,,w,left,610dd74ebf5c4e1977a3e54e,2021-10-22_16h29.07.144,arrow_simon_punish,2021.1.2,Win32,60.0024001,,,,,,,,,,,,,,,,,,,,,,,,,,,,,,,,,,,,,,
,,,,,,,,,,,,,,,610dd74ebf5c4e1977a3e54e,2021-10-22_16h29.07.144,arrow_simon_punish,2021.1.2,Win32,60.0024001,space,0,32.027,p,3.136,0,0,0,0,1,,,,,,,,,,,,,,,,,,,,,,,,,,,,
,,,,,,,,,,,,,,,610dd74ebf5c4e1977a3e54e,2021-10-22_16h29.07.144,arrow_simon_punish,2021.1.2,Win32,60.0024001,,,,p,2.744,1,0,1,0,1,,,,,,,,,,,,,,,,,,,,,,,,,,,,
,,,,,,,,,,,,,,,610dd74ebf5c4e1977a3e54e,2021-10-22_16h29.07.144,arrow_simon_punish,2021.1.2,Win32,60.0024001,,,,p,2.042,2,0,2,0,1,,,,,,,,,,,,,,,,,,,,,,,,,,,,
,,,,,,,,,,,,,,,610dd74ebf5c4e1977a3e54e,2021-10-22_16h29.07.144,arrow_simon_punish,2021.1.2,Win32,60.0024001,,,,p,2.477,3,0,3,0,1,,,,,,,,,,,,,,,,,,,,,,,,,,,,
,,,,,,,,,,,,,,,610dd74ebf5c4e1977a3e54e,2021-10-22_16h29.07.144,arrow_simon_punish,2021.1.2,Win32,60.0024001,,,,p,2.551,4,0,4,0,1,,,,,,,,,,,,,,,,,,,,,,,,,,,,
,,,,,,,,,,,,,,,610dd74ebf5c4e1977a3e54e,2021-10-22_16h29.07.144,arrow_simon_punish,2021.1.2,Win32,60.0024001,,,,p,2.419,5,0,5,0,1,,,,,,,,,,,,,,,,,,,,,,,,,,,,
,,,,,,,,,,,,,,,610dd74ebf5c4e1977a3e54e,2021-10-22_16h29.07.144,arrow_simon_punish,2021.1.2,Win32,60.0024001,,,,p,2.453,6,0,6,0,1,,,,,,,,,,,,,,,,,,,,,,,,,,,,
,,,,,,,,,,,,,,,610dd74ebf5c4e1977a3e54e,2021-10-22_16h29.07.144,arrow_simon_punish,2021.1.2,Win32,60.0024001,,,,p,2.37,7,0,7,0,1,,,,,,,,,,,,,,,,,,,,,,,,,,,,
,,,,,,,,,,,,,,,610dd74ebf5c4e1977a3e54e,2021-10-22_16h29.07.144,arrow_simon_punish,2021.1.2,Win32,60.0024001,,,,p,2.232,8,0,8,0,1,,,,,,,,,,,,,,,,,,,,,,,,,,,,
,,,,,,,,,,,,,,,610dd74ebf5c4e1977a3e54e,2021-10-22_16h29.07.144,arrow_simon_punish,2021.1.2,Win32,60.0024001,,,,p,2.796,9,0,9,0,1,,,,,,,,,,,,,,,,,,,,,,,,,,,,
,,,,,,,,,,,,,,,610dd74ebf5c4e1977a3e54e,2021-10-22_16h29.07.144,arrow_simon_punish,2021.1.2,Win32,60.0024001,,,,p,2.618,10,0,10,0,1,,,,,,,,,,,,,,,,,,,,,,,,,,,,
,,,,,,,,,,,,,,,610dd74ebf5c4e1977a3e54e,2021-10-22_16h29.07.144,arrow_simon_punish,2021.1.2,Win32,60.0024001,,,,p,2.231,11,0,11,0,1,,,,,,,,,,,,,,,,,,,,,,,,,,,,
,,,,,,,,,,,,,,,610dd74ebf5c4e1977a3e54e,2021-10-22_16h29.07.144,arrow_simon_punish,2021.1.2,Win32,60.0024001,,,,p,2.688,12,0,12,0,1,,,,,,,,,,,,,,,,,,,,,,,,,,,,
,,,,,,,,,,,,,,,610dd74ebf5c4e1977a3e54e,2021-10-22_16h29.07.144,arrow_simon_punish,2021.1.2,Win32,60.0024001,,,,p,2.476,13,0,13,0,1,,,,,,,,,,,,,,,,,,,,,,,,,,,,
,,,,,,,,,,,,,,,610dd74ebf5c4e1977a3e54e,2021-10-22_16h29.07.144,arrow_simon_punish,2021.1.2,Win32,60.0024001,,,,p,2.525,14,0,14,0,1,,,,,,,,,,,,,,,,,,,,,,,,,,,,
,,,,,,,,,,,,,,,610dd74ebf5c4e1977a3e54e,2021-10-22_16h29.07.144,arrow_simon_punish,2021.1.2,Win32,60.0024001,,,,p,2.417,15,0,15,0,1,,,,,,,,,,,,,,,,,,,,,,,,,,,,
,,,,,,,,,,,,,,,610dd74ebf5c4e1977a3e54e,2021-10-22_16h29.07.144,arrow_simon_punish,2021.1.2,Win32,60.0024001,,,,w,2.375,16,0,16,0,1,,,,,,,,,,,,,,,,,,,,,,,,,,,,
,,,,,,,,,,,,,,,610dd74ebf5c4e1977a3e54e,2021-10-22_16h29.07.144,arrow_simon_punish,2021.1.2,Win32,60.0024001,,,,w,2.36,17,0,17,0,1,,,,,,,,,,,,,,,,,,,,,,,,,,,,
,,,,,,,,,,,,,,,610dd74ebf5c4e1977a3e54e,2021-10-22_16h29.07.144,arrow_simon_punish,2021.1.2,Win32,60.0024001,,,,w,2.279,18,0,18,0,1,,,,,,,,,,,,,,,,,,,,,,,,,,,,
,,,,,,,,,,,,,,,610dd74ebf5c4e1977a3e54e,2021-10-22_16h29.07.144,arrow_simon_punish,2021.1.2,Win32,60.0024001,,,,w,2.591,19,0,19,0,1,,,,,,,,,,,,,,,,,,,,,,,,,,,,
,,,,,,,,,,,,,,,610dd74ebf5c4e1977a3e54e,2021-10-22_16h29.07.144,arrow_simon_punish,2021.1.2,Win32,60.0024001,,,,w,2.737,20,0,20,0,1,,,,,,,,,,,,,,,,,,,,,,,,,,,,
,,,,,,,,,,,,,,,610dd74ebf5c4e1977a3e54e,2021-10-22_16h29.07.144,arrow_simon_punish,2021.1.2,Win32,60.0024001,,,,p,2.449,21,0,21,0,1,,,,,,,,,,,,,,,,,,,,,,,,,,,,
,,,,,,,,,,,,,,,610dd74ebf5c4e1977a3e54e,2021-10-22_16h29.07.144,arrow_simon_punish,2021.1.2,Win32,60.0024001,,,,p,2.633,22,0,22,0,1,,,,,,,,,,,,,,,,,,,,,,,,,,,,
,,,,,,,,,,,,,,,610dd74ebf5c4e1977a3e54e,2021-10-22_16h29.07.144,arrow_simon_punish,2021.1.2,Win32,60.0024001,,,,p,2.65,23,0,23,0,1,,,,,,,,,,,,,,,,,,,,,,,,,,,,
,,,,,,,,,,,,,,,610dd74ebf5c4e1977a3e54e,2021-10-22_16h29.07.144,arrow_simon_punish,2021.1.2,Win32,60.0024001,,,,p,2.687,24,0,24,0,1,,,,,,,,,,,,,,,,,,,,,,,,,,,,
,,,,,,,,,,,,,,,610dd74ebf5c4e1977a3e54e,2021-10-22_16h29.07.144,arrow_simon_punish,2021.1.2,Win32,60.0024001,,,,p,2.557,25,0,25,0,1,,,,,,,,,,,,,,,,,,,,,,,,,,,,
,,,,,,,,,,,,,,,610dd74ebf5c4e1977a3e54e,2021-10-22_16h29.07.144,arrow_simon_punish,2021.1.2,Win32,60.0024001,,,,p,2.532,26,0,26,0,1,,,,,,,,,,,,,,,,,,,,,,,,,,,,
,,,,,,,,,,,,,,,610dd74ebf5c4e1977a3e54e,2021-10-22_16h29.07.144,arrow_simon_punish,2021.1.2,Win32,60.0024001,,,,p,2.653,27,0,27,0,1,,,,,,,,,,,,,,,,,,,,,,,,,,,,
,,,,,,,,,,,,,,,610dd74ebf5c4e1977a3e54e,2021-10-22_16h29.07.144,arrow_simon_punish,2021.1.2,Win32,60.0024001,,,,p,2.655,28,0,28,0,1,,,,,,,,,,,,,,,,,,,,,,,,,,,,
,,,,,,,,,,,,,,,610dd74ebf5c4e1977a3e54e,2021-10-22_16h29.07.144,arrow_simon_punish,2021.1.2,Win32,60.0024001,,,,p,2.757,29,0,29,0,1,,,,,,,,,,,,,,,,,,,,,,,,,,,,
,,,,,,,,,,,,,,,610dd74ebf5c4e1977a3e54e,2021-10-22_16h29.07.144,arrow_simon_punish,2021.1.2,Win32,60.0024001,,,,p,2.671,30,0,30,0,1,,,,,,,,,,,,,,,,,,,,,,,,,,,,
,,,,,,,,,,,,,,,610dd74ebf5c4e1977a3e54e,2021-10-22_16h29.07.144,arrow_simon_punish,2021.1.2,Win32,60.0024001,,,,p,2.282,31,0,31,0,1,,,,,,,,,,,,,,,,,,,,,,,,,,,,
,,,,,,,,,,,,,,,610dd74ebf5c4e1977a3e54e,2021-10-22_16h29.07.144,arrow_simon_punish,2021.1.2,Win32,60.0024001,,,,p,2.474,32,0,32,0,1,,,,,,,,,,,,,,,,,,,,,,,,,,,,
,,,,,,,,,,,,,,,610dd74ebf5c4e1977a3e54e,2021-10-22_16h29.07.144,arrow_simon_punish,2021.1.2,Win32,60.0024001,,,,p,2.532,33,0,33,0,1,,,,,,,,,,,,,,,,,,,,,,,,,,,,
,,,,,,,,,,,,,,,610dd74ebf5c4e1977a3e54e,2021-10-22_16h29.07.144,arrow_simon_punish,2021.1.2,Win32,60.0024001,,,,p,2.614,34,0,34,0,1,,,,,,,,,,,,,,,,,,,,,,,,,,,,
,,,,,,,,,,,,,,,610dd74ebf5c4e1977a3e54e,2021-10-22_16h29.07.144,arrow_simon_punish,2021.1.2,Win32,60.0024001,,,,p,2.304,35,0,35,0,1,,,,,,,,,,,,,,,,,,,,,,,,,,,,
,,,,,,,,,,,,,,,610dd74ebf5c4e1977a3e54e,2021-10-22_16h29.07.144,arrow_simon_punish,2021.1.2,Win32,60.0024001,,,,p,2.627,36,0,36,0,1,,,,,,,,,,,,,,,,,,,,,,,,,,,,
,,,,,,,,,,,,,,,610dd74ebf5c4e1977a3e54e,2021-10-22_16h29.07.144,arrow_simon_punish,2021.1.2,Win32,60.0024001,,,,p,2.571,37,0,37,0,1,,,,,,,,,,,,,,,,,,,,,,,,,,,,
,,,,,,,,,,,,,,,610dd74ebf5c4e1977a3e54e,2021-10-22_16h29.07.144,arrow_simon_punish,2021.1.2,Win32,60.0024001,,,,p,2.715,38,0,38,0,1,,,,,,,,,,,,,,,,,,,,,,,,,,,,
,,,,,,,,,,,,,,,610dd74ebf5c4e1977a3e54e,2021-10-22_16h29.07.144,arrow_simon_punish,2021.1.2,Win32,60.0024001,,,,p,2.472,39,0,39,0,1,,,,,,,,,,,,,,,,,,,,,,,,,,,,
,,,,,,,,,,,,,,,610dd74ebf5c4e1977a3e54e,2021-10-22_16h29.07.144,arrow_simon_punish,2021.1.2,Win32,60.0024001,,,,p,2.638,40,0,40,0,1,,,,,,,,,,,,,,,,,,,,,,,,,,,,
,,,,,,,,,,,,,,,610dd74ebf5c4e1977a3e54e,2021-10-22_16h29.07.144,arrow_simon_punish,2021.1.2,Win32,60.0024001,,,,p,2.701,41,0,41,0,1,,,,,,,,,,,,,,,,,,,,,,,,,,,,
,,,,,,,,,,,,,,,610dd74ebf5c4e1977a3e54e,2021-10-22_16h29.07.144,arrow_simon_punish,2021.1.2,Win32,60.0024001,,,,p,2.658,42,0,42,0,1,,,,,,,,,,,,,,,,,,,,,,,,,,,,
,,,,,,,,,,,,,,,610dd74ebf5c4e1977a3e54e,2021-10-22_16h29.07.144,arrow_simon_punish,2021.1.2,Win32,60.0024001,,,,p,2.556,43,0,43,0,1,,,,,,,,,,,,,,,,,,,,,,,,,,,,
,,,,,,,,,,,,,,,610dd74ebf5c4e1977a3e54e,2021-10-22_16h29.07.144,arrow_simon_punish,2021.1.2,Win32,60.0024001,,,,p,2.547,44,0,44,0,1,,,,,,,,,,,,,,,,,,,,,,,,,,,,
,,,,,,,,,,,,,,,610dd74ebf5c4e1977a3e54e,2021-10-22_16h29.07.144,arrow_simon_punish,2021.1.2,Win32,60.0024001,,,,p,2.637,45,0,45,0,1,,,,,,,,,,,,,,,,,,,,,,,,,,,,
,,,,,,,,,,,,,,,610dd74ebf5c4e1977a3e54e,2021-10-22_16h29.07.144,arrow_simon_punish,2021.1.2,Win32,60.0024001,,,,p,2.506,46,0,46,0,1,,,,,,,,,,,,,,,,,,,,,,,,,,,,
,,,,,,,,,,,,,,,610dd74ebf5c4e1977a3e54e,2021-10-22_16h29.07.144,arrow_simon_punish,2021.1.2,Win32,60.0024001,,,,p,2.511,47,0,47,0,1,,,,,,,,,,,,,,,,,,,,,,,,,,,,
,,,,,,,,,,,,,,,610dd74ebf5c4e1977a3e54e,2021-10-22_16h29.07.144,arrow_simon_punish,2021.1.2,Win32,60.0024001,,,,p,2.626,48,0,48,0,1,,,,,,,,,,,,,,,,,,,,,,,,,,,,
,,,,,,,,,,,,,,,610dd74ebf5c4e1977a3e54e,2021-10-22_16h29.07.144,arrow_simon_punish,2021.1.2,Win32,60.0024001,,,,p,2.514,49,0,49,0,1,,,,,,,,,,,,,,,,,,,,,,,,,,,,
,,,,,,,,,,,,,,,610dd74ebf5c4e1977a3e54e,2021-10-22_16h29.07.144,arrow_simon_punish,2021.1.2,Win32,60.0024001,,,,p,2.768,50,0,50,0,1,,,,,,,,,,,,,,,,,,,,,,,,,,,,
,,,,,,,,,,,,,,,610dd74ebf5c4e1977a3e54e,2021-10-22_16h29.07.144,arrow_simon_punish,2021.1.2,Win32,60.0024001,,,,p,2.545,51,0,51,0,1,,,,,,,,,,,,,,,,,,,,,,,,,,,,
,,,,,,,,,,,,,,,610dd74ebf5c4e1977a3e54e,2021-10-22_16h29.07.144,arrow_simon_punish,2021.1.2,Win32,60.0024001,,,,p,2.608,52,0,52,0,1,,,,,,,,,,,,,,,,,,,,,,,,,,,,
,,,,,,,,,,,,,,,610dd74ebf5c4e1977a3e54e,2021-10-22_16h29.07.144,arrow_simon_punish,2021.1.2,Win32,60.0024001,,,,p,2.683,53,0,53,0,1,,,,,,,,,,,,,,,,,,,,,,,,,,,,
,,,,,,,,,,,,,,,610dd74ebf5c4e1977a3e54e,2021-10-22_16h29.07.144,arrow_simon_punish,2021.1.2,Win32,60.0024001,,,,p,2.43,54,0,54,0,1,,,,,,,,,,,,,,,,,,,,,,,,,,,,
,,,,,,,,,,,,,,,610dd74ebf5c4e1977a3e54e,2021-10-22_16h29.07.144,arrow_simon_punish,2021.1.2,Win32,60.0024001,,,,p,2.451,55,0,55,0,1,,,,,,,,,,,,,,,,,,,,,,,,,,,,
,,,,,,,,,,,,,,,610dd74ebf5c4e1977a3e54e,2021-10-22_16h29.07.144,arrow_simon_punish,2021.1.2,Win32,60.0024001,,,,p,2.587,56,0,56,0,1,,,,,,,,,,,,,,,,,,,,,,,,,,,,
,,,,,,,,,,,,,,,610dd74ebf5c4e1977a3e54e,2021-10-22_16h29.07.144,arrow_simon_punish,2021.1.2,Win32,60.0024001,,,,p,2.537,57,0,57,0,1,,,,,,,,,,,,,,,,,,,,,,,,,,,,
,,,,,,,,,,,,,,,610dd74ebf5c4e1977a3e54e,2021-10-22_16h29.07.144,arrow_simon_punish,2021.1.2,Win32,60.0024001,,,,p,2.67,58,0,58,0,1,,,,,,,,,,,,,,,,,,,,,,,,,,,,
,,,,,,,,,,,,,,,610dd74ebf5c4e1977a3e54e,2021-10-22_16h29.07.144,arrow_simon_punish,2021.1.2,Win32,60.0024001,,,,p,2.48,59,0,59,0,1,,,,,,,,,,,,,,,,,,,,,,,,,,,,
,,,,,,,,,,,left.png,,w,left,610dd74ebf5c4e1977a3e54e,2021-10-22_16h29.07.144,arrow_simon_punish,2021.1.2,Win32,60.0024001,,,,,,,,,,,space,0,70.69,w,1,1.336,1.666817395,1,1,0,0,0,2,1,,,,,,,,,,,,,,
,,,,,,,,,,,left.png,,w,left,610dd74ebf5c4e1977a3e54e,2021-10-22_16h29.07.144,arrow_simon_punish,2021.1.2,Win32,60.0024001,,,,,,,,,,,,,,w,1,2.484,2.167861908,1,1,0,1,1,2,1,,,,,,,,,,,,,,
,,,,,,,,,,,right.png,,p,right,610dd74ebf5c4e1977a3e54e,2021-10-22_16h29.07.144,arrow_simon_punish,2021.1.2,Win32,60.0024001,,,,,,,,,,,,,,p,1,1.244,1.62099351,1,1,0,2,2,1,1,,,,,,,,,,,,,,
,,,,,,,,,,,left.png,,w,right,610dd74ebf5c4e1977a3e54e,2021-10-22_16h29.07.144,arrow_simon_punish,2021.1.2,Win32,60.0024001,,,,,,,,,,,,,,w,1,6.066,2.455219966,1,1,0,3,3,3,1,,,,,,,,,,,,,,
,,,,,,,,,,,left.png,,w,left,610dd74ebf5c4e1977a3e54e,2021-10-22_16h29.07.144,arrow_simon_punish,2021.1.2,Win32,60.0024001,,,,,,,,,,,,,,w,1,1.206,1.626236745,1,1,1,0,4,2,1,,,,,,,,,,,,,,
,,,,,,,,,,,left.png,,w,right,610dd74ebf5c4e1977a3e54e,2021-10-22_16h29.07.144,arrow_simon_punish,2021.1.2,Win32,60.0024001,,,,,,,,,,,,,,w,1,1.339,1.741045769,1,1,1,1,5,3,1,,,,,,,,,,,,,,
,,,,,,,,,,,right.png,,p,right,610dd74ebf5c4e1977a3e54e,2021-10-22_16h29.07.144,arrow_simon_punish,2021.1.2,Win32,60.0024001,,,,,,,,,,,,,,p,1,1.61,2.156347168,1,1,1,2,6,1,1,,,,,,,,,,,,,,
,,,,,,,,,,,left.png,,w,right,610dd74ebf5c4e1977a3e54e,2021-10-22_16h29.07.144,arrow_simon_punish,2021.1.2,Win32,60.0024001,,,,,,,,,,,,,,p,0,1.847,2.493695267,1,1,1,3,7,3,1,,,,,,,,,,,,,,
,,,,,,,,,,,right.png,,p,left,610dd74ebf5c4e1977a3e54e,2021-10-22_16h29.07.144,arrow_simon_punish,2021.1.2,Win32,60.0024001,,,,,,,,,,,,,,w,0,1.635,2.2936603,1,1,2,0,8,0,1,,,,,,,,,,,,,,
,,,,,,,,,,,right.png,,p,right,610dd74ebf5c4e1977a3e54e,2021-10-22_16h29.07.144,arrow_simon_punish,2021.1.2,Win32,60.0024001,,,,,,,,,,,,,,p,1,2.101,2.042066684,1,1,2,1,9,1,1,,,,,,,,,,,,,,
,,,,,,,,,,,left.png,,w,left,610dd74ebf5c4e1977a3e54e,2021-10-22_16h29.07.144,arrow_simon_punish,2021.1.2,Win32,60.0024001,,,,,,,,,,,,,,w,1,1.565,2.371891792,0,1,2,2,10,2,1,,,,,,,,,,,,,,
,,,,,,,,,,,right.png,,p,right,610dd74ebf5c4e1977a3e54e,2021-10-22_16h29.07.144,arrow_simon_punish,2021.1.2,Win32,60.0024001,,,,,,,,,,,,,,p,1,1.175,1.789717541,1,1,2,3,11,1,1,,,,,,,,,,,,,,
,,,,,,,,,,,right.png,,p,left,610dd74ebf5c4e1977a3e54e,2021-10-22_16h29.07.144,arrow_simon_punish,2021.1.2,Win32,60.0024001,,,,,,,,,,,,,,p,1,1.526,1.824923346,0,1,3,0,12,0,1,,,,,,,,,,,,,,
,,,,,,,,,,,left.png,,w,right,610dd74ebf5c4e1977a3e54e,2021-10-22_16h29.07.144,arrow_simon_punish,2021.1.2,Win32,60.0024001,,,,,,,,,,,,,,p,0,1.35,1.697917798,1,1,3,1,13,3,1,,,,,,,,,,,,,,
,,,,,,,,,,,left.png,,w,right,610dd74ebf5c4e1977a3e54e,2021-10-22_16h29.07.144,arrow_simon_punish,2021.1.2,Win32,60.0024001,,,,,,,,,,,,,,w,1,1.233,1.761465151,1,1,3,2,14,3,1,,,,,,,,,,,,,,
,,,,,,,,,,,right.png,,p,left,610dd74ebf5c4e1977a3e54e,2021-10-22_16h29.07.144,arrow_simon_punish,2021.1.2,Win32,60.0024001,,,,,,,,,,,,,,p,1,1.503,2.024147769,0,1,3,3,15,0,1,,,,,,,,,,,,,,
,,,,,,,,,,,right.png,,p,left,610dd74ebf5c4e1977a3e54e,2021-10-22_16h29.07.144,arrow_simon_punish,2021.1.2,Win32,60.0024001,,,,,,,,,,,,,,w,0,1.614,2.11913226,1,1,4,0,16,0,1,,,,,,,,,,,,,,
,,,,,,,,,,,right.png,,p,left,610dd74ebf5c4e1977a3e54e,2021-10-22_16h29.07.144,arrow_simon_punish,2021.1.2,Win32,60.0024001,,,,,,,,,,,,,,p,1,1.391,1.905410519,1,1,4,1,17,0,1,,,,,,,,,,,,,,
,,,,,,,,,,,left.png,,w,left,610dd74ebf5c4e1977a3e54e,2021-10-22_16h29.07.144,arrow_simon_punish,2021.1.2,Win32,60.0024001,,,,,,,,,,,,,,w,1,1.97,2.236805186,1,1,4,2,18,2,1,,,,,,,,,,,,,,
,,,,,,,,,,,left.png,,w,left,610dd74ebf5c4e1977a3e54e,2021-10-22_16h29.07.144,arrow_simon_punish,2021.1.2,Win32,60.0024001,,,,,,,,,,,,,,w,1,1.463,1.946935389,0,1,4,3,19,2,1,,,,,,,,,,,,,,
,,,,,,,,,,,left.png,,w,right,610dd74ebf5c4e1977a3e54e,2021-10-22_16h29.07.144,arrow_simon_punish,2021.1.2,Win32,60.0024001,,,,,,,,,,,,,,w,1,1.875,2.392077303,1,1,5,0,20,3,1,,,,,,,,,,,,,,
,,,,,,,,,,,right.png,,p,left,610dd74ebf5c4e1977a3e54e,2021-10-22_16h29.07.144,arrow_simon_punish,2021.1.2,Win32,60.0024001,,,,,,,,,,,,,,p,1,1.895,1.607613635,1,1,5,1,21,0,1,,,,,,,,,,,,,,
,,,,,,,,,,,right.png,,p,right,610dd74ebf5c4e1977a3e54e,2021-10-22_16h29.07.144,arrow_simon_punish,2021.1.2,Win32,60.0024001,,,,,,,,,,,,,,p,1,1.33,1.724240379,1,1,5,2,22,1,1,,,,,,,,,,,,,,
,,,,,,,,,,,right.png,,p,right,610dd74ebf5c4e1977a3e54e,2021-10-22_16h29.07.144,arrow_simon_punish,2021.1.2,Win32,60.0024001,,,,,,,,,,,,,,p,1,1.767,2.327507224,1,1,5,3,23,1,1,,,,,,,,,,,,,,
,,,,,,,,,,,right.png,,p,left,610dd74ebf5c4e1977a3e54e,2021-10-22_16h29.07.144,arrow_simon_punish,2021.1.2,Win32,60.0024001,,,,,,,,,,,,,,p,1,1.83,2.090046176,1,1,6,0,24,0,1,,,,,,,,,,,,,,
,,,,,,,,,,,right.png,,p,right,610dd74ebf5c4e1977a3e54e,2021-10-22_16h29.07.144,arrow_simon_punish,2021.1.2,Win32,60.0024001,,,,,,,,,,,,,,p,1,1.551,1.929856383,0,1,6,1,25,1,1,,,,,,,,,,,,,,
,,,,,,,,,,,left.png,,w,right,610dd74ebf5c4e1977a3e54e,2021-10-22_16h29.07.144,arrow_simon_punish,2021.1.2,Win32,60.0024001,,,,,,,,,,,,,,w,1,1.823,2.247733402,1,1,6,2,26,3,1,,,,,,,,,,,,,,
,,,,,,,,,,,right.png,,p,right,610dd74ebf5c4e1977a3e54e,2021-10-22_16h29.07.144,arrow_simon_punish,2021.1.2,Win32,60.0024001,,,,,,,,,,,,,,p,1,1.84,2.391648068,1,1,6,3,27,1,1,,,,,,,,,,,,,,
,,,,,,,,,,,right.png,,p,left,610dd74ebf5c4e1977a3e54e,2021-10-22_16h29.07.144,arrow_simon_punish,2021.1.2,Win32,60.0024001,,,,,,,,,,,,,,p,1,1.704,1.565132798,1,1,7,0,28,0,1,,,,,,,,,,,,,,
,,,,,,,,,,,left.png,,w,right,610dd74ebf5c4e1977a3e54e,2021-10-22_16h29.07.144,arrow_simon_punish,2021.1.2,Win32,60.0024001,,,,,,,,,,,,,,w,1,1.703,1.984815916,1,1,7,1,29,3,1,,,,,,,,,,,,,,
,,,,,,,,,,,left.png,,w,right,610dd74ebf5c4e1977a3e54e,2021-10-22_16h29.07.144,arrow_simon_punish,2021.1.2,Win32,60.0024001,,,,,,,,,,,,,,p,0,1.367,1.832986159,1,1,7,2,30,3,1,,,,,,,,,,,,,,
,,,,,,,,,,,left.png,,w,left,610dd74ebf5c4e1977a3e54e,2021-10-22_16h29.07.144,arrow_simon_punish,2021.1.2,Win32,60.0024001,,,,,,,,,,,,,,w,1,1.72,1.882043025,1,1,7,3,31,2,1,,,,,,,,,,,,,,
,,,,,,,,,,,right.png,,p,left,610dd74ebf5c4e1977a3e54e,2021-10-22_16h29.07.144,arrow_simon_punish,2021.1.2,Win32,60.0024001,,,,,,,,,,,,,,p,1,1.798,2.305338533,1,1,8,0,32,0,1,,,,,,,,,,,,,,
,,,,,,,,,,,left.png,,w,left,610dd74ebf5c4e1977a3e54e,2021-10-22_16h29.07.144,arrow_simon_punish,2021.1.2,Win32,60.0024001,,,,,,,,,,,,,,w,1,1.781,2.156129036,1,1,8,1,33,2,1,,,,,,,,,,,,,,
,,,,,,,,,,,right.png,,p,right,610dd74ebf5c4e1977a3e54e,2021-10-22_16h29.07.144,arrow_simon_punish,2021.1.2,Win32,60.0024001,,,,,,,,,,,,,,p,1,2.143,2.338397512,1,1,8,2,34,1,1,,,,,,,,,,,,,,
,,,,,,,,,,,right.png,,p,left,610dd74ebf5c4e1977a3e54e,2021-10-22_16h29.07.144,arrow_simon_punish,2021.1.2,Win32,60.0024001,,,,,,,,,,,,,,p,1,1.63,1.615601979,1,1,8,3,35,0,1,,,,,,,,,,,,,,
,,,,,,,,,,,left.png,,w,right,610dd74ebf5c4e1977a3e54e,2021-10-22_16h29.07.144,arrow_simon_punish,2021.1.2,Win32,60.0024001,,,,,,,,,,,,,,w,1,1.541,1.537746084,0,1,9,0,36,3,1,,,,,,,,,,,,,,
,,,,,,,,,,,right.png,,p,right,610dd74ebf5c4e1977a3e54e,2021-10-22_16h29.07.144,arrow_simon_punish,2021.1.2,Win32,60.0024001,,,,,,,,,,,,,,p,1,1.581,1.835245218,0,1,9,1,37,1,1,,,,,,,,,,,,,,
,,,,,,,,,,,left.png,,w,right,610dd74ebf5c4e1977a3e54e,2021-10-22_16h29.07.144,arrow_simon_punish,2021.1.2,Win32,60.0024001,,,,,,,,,,,,,,w,1,1.766,2.143420501,1,1,9,2,38,3,1,,,,,,,,,,,,,,
,,,,,,,,,,,left.png,,w,right,610dd74ebf5c4e1977a3e54e,2021-10-22_16h29.07.144,arrow_simon_punish,2021.1.2,Win32,60.0024001,,,,,,,,,,,,,,w,1,1.48,1.519493186,0,1,9,3,39,3,1,,,,,,,,,,,,,,
,,,,,,,,,,,right.png,,p,right,610dd74ebf5c4e1977a3e54e,2021-10-22_16h29.07.144,arrow_simon_punish,2021.1.2,Win32,60.0024001,,,,,,,,,,,,,,p,1,1.639,2.033623525,1,1,10,0,40,1,1,,,,,,,,,,,,,,
,,,,,,,,,,,left.png,,w,left,610dd74ebf5c4e1977a3e54e,2021-10-22_16h29.07.144,arrow_simon_punish,2021.1.2,Win32,60.0024001,,,,,,,,,,,,,,w,1,1.719,2.099367457,1,1,10,1,41,2,1,,,,,,,,,,,,,,
,,,,,,,,,,,right.png,,p,right,610dd74ebf5c4e1977a3e54e,2021-10-22_16h29.07.144,arrow_simon_punish,2021.1.2,Win32,60.0024001,,,,,,,,,,,,,,p,1,1.303,1.704980706,1,1,10,2,42,1,1,,,,,,,,,,,,,,
,,,,,,,,,,,left.png,,w,left,610dd74ebf5c4e1977a3e54e,2021-10-22_16h29.07.144,arrow_simon_punish,2021.1.2,Win32,60.0024001,,,,,,,,,,,,,,w,1,1.73,1.534211213,1,1,10,3,43,2,1,,,,,,,,,,,,,,
,,,,,,,,,,,left.png,,w,left,610dd74ebf5c4e1977a3e54e,2021-10-22_16h29.07.144,arrow_simon_punish,2021.1.2,Win32,60.0024001,,,,,,,,,,,,,,p,0,0.366,2.14359907,1,1,11,0,44,2,1,,,,,,,,,,,,,,
,,,,,,,,,,,left.png,,w,left,610dd74ebf5c4e1977a3e54e,2021-10-22_16h29.07.144,arrow_simon_punish,2021.1.2,Win32,60.0024001,,,,,,,,,,,,,,w,1,1.768,1.898520239,1,1,11,1,45,2,1,,,,,,,,,,,,,,
,,,,,,,,,,,right.png,,p,left,610dd74ebf5c4e1977a3e54e,2021-10-22_16h29.07.144,arrow_simon_punish,2021.1.2,Win32,60.0024001,,,,,,,,,,,,,,p,1,1.284,2.203149341,1,1,11,2,46,0,1,,,,,,,,,,,,,,
,,,,,,,,,,,right.png,,p,left,610dd74ebf5c4e1977a3e54e,2021-10-22_16h29.07.144,arrow_simon_punish,2021.1.2,Win32,60.0024001,,,,,,,,,,,,,,p,1,1.723,1.604120666,1,1,11,3,47,0,1,,,,,,,,,,,,,,
,,,,,,,,,,,left.png,,w,right,610dd74ebf5c4e1977a3e54e,2021-10-22_16h29.07.144,arrow_simon_punish,2021.1.2,Win32,60.0024001,,,,,,,,,,,,,,w,1,1.794,2.189103901,1,1,12,0,48,3,1,,,,,,,,,,,,,,
,,,,,,,,,,,left.png,,w,left,610dd74ebf5c4e1977a3e54e,2021-10-22_16h29.07.144,arrow_simon_punish,2021.1.2,Win32,60.0024001,,,,,,,,,,,,,,w,1,1.747,2.099464175,1,1,12,1,49,2,1,,,,,,,,,,,,,,
,,,,,,,,,,,right.png,,p,left,610dd74ebf5c4e1977a3e54e,2021-10-22_16h29.07.144,arrow_simon_punish,2021.1.2,Win32,60.0024001,,,,,,,,,,,,,,p,1,1.696,1.920523421,1,1,12,2,50,0,1,,,,,,,,,,,,,,
,,,,,,,,,,,left.png,,w,left,610dd74ebf5c4e1977a3e54e,2021-10-22_16h29.07.144,arrow_simon_punish,2021.1.2,Win32,60.0024001,,,,,,,,,,,,,,w,1,1.675,2.323051427,1,1,12,3,51,2,1,,,,,,,,,,,,,,
,,,,,,,,,,,right.png,,p,left,610dd74ebf5c4e1977a3e54e,2021-10-22_16h29.07.144,arrow_simon_punish,2021.1.2,Win32,60.0024001,,,,,,,,,,,,,,p,1,1.704,2.421233094,1,1,13,0,52,0,1,,,,,,,,,,,,,,
,,,,,,,,,,,right.png,,p,right,610dd74ebf5c4e1977a3e54e,2021-10-22_16h29.07.144,arrow_simon_punish,2021.1.2,Win32,60.0024001,,,,,,,,,,,,,,p,1,1.773,2.032683883,1,1,13,1,53,1,1,,,,,,,,,,,,,,
,,,,,,,,,,,left.png,,w,right,610dd74ebf5c4e1977a3e54e,2021-10-22_16h29.07.144,arrow_simon_punish,2021.1.2,Win32,60.0024001,,,,,,,,,,,,,,w,1,1.544,1.825010328,0,1,13,2,54,3,1,,,,,,,,,,,,,,
,,,,,,,,,,,left.png,,w,right,610dd74ebf5c4e1977a3e54e,2021-10-22_16h29.07.144,arrow_simon_punish,2021.1.2,Win32,60.0024001,,,,,,,,,,,,,,w,1,1.593,1.834668704,0,1,13,3,55,3,1,,,,,,,,,,,,,,
,,,,,,,,,,,right.png,,p,right,610dd74ebf5c4e1977a3e54e,2021-10-22_16h29.07.144,arrow_simon_punish,2021.1.2,Win32,60.0024001,,,,,,,,,,,,,,p,1,1.643,2.175407178,1,1,14,0,56,1,1,,,,,,,,,,,,,,
,,,,,,,,,,,left.png,,w,left,610dd74ebf5c4e1977a3e54e,2021-10-22_16h29.07.144,arrow_simon_punish,2021.1.2,Win32,60.0024001,,,,,,,,,,,,,,w,1,1.776,2.360074294,1,1,14,1,57,2,1,,,,,,,,,,,,,,
,,,,,,,,,,,right.png,,p,right,610dd74ebf5c4e1977a3e54e,2021-10-22_16h29.07.144,arrow_simon_punish,2021.1.2,Win32,60.0024001,,,,,,,,,,,,,,p,1,1.672,2.408024698,1,1,14,2,58,1,1,,,,,,,,,,,,,,
,,,,,,,,,,,right.png,,p,left,610dd74ebf5c4e1977a3e54e,2021-10-22_16h29.07.144,arrow_simon_punish,2021.1.2,Win32,60.0024001,,,,,,,,,,,,,,p,1,1.549,1.926299738,0,1,14,3,59,0,1,,,,,,,,,,,,,,
,,,,,,,,,,,,,,,610dd74ebf5c4e1977a3e54e,2021-10-22_16h29.07.144,arrow_simon_punish,2021.1.2,Win32,60.0024001,,,,,,,,,,,,,,,,,,,,,,,,,space,17.106,2,0,0,0,0,1,1,,,,,
,,,,,,,,,,,left.png,,w,left,610dd74ebf5c4e1977a3e54e,2021-10-22_16h29.07.144,arrow_simon_punish,2021.1.2,Win32,60.0024001,,,,,,,,,,,,,,p,0,1.195,1.683925988,1,5,0,0,0,2,1,,,,,,,,,,,,,,
,,,,,,,,,,,right.png,,p,left,610dd74ebf5c4e1977a3e54e,2021-10-22_16h29.07.144,arrow_simon_punish,2021.1.2,Win32,60.0024001,,,,,,,,,,,,,,p,1,1.742,1.926743518,1,5,0,1,1,0,1,,,,,,,,,,,,,,
,,,,,,,,,,,left.png,,w,right,610dd74ebf5c4e1977a3e54e,2021-10-22_16h29.07.144,arrow_simon_punish,2021.1.2,Win32,60.0024001,,,,,,,,,,,,,,w,1,1.676,1.920549525,1,5,0,2,2,3,1,,,,,,,,,,,,,,
,,,,,,,,,,,left.png,,w,left,610dd74ebf5c4e1977a3e54e,2021-10-22_16h29.07.144,arrow_simon_punish,2021.1.2,Win32,60.0024001,,,,,,,,,,,,,,w,1,1.636,2.241317572,1,5,0,3,3,2,1,,,,,,,,,,,,,,
,,,,,,,,,,,right.png,,p,left,610dd74ebf5c4e1977a3e54e,2021-10-22_16h29.07.144,arrow_simon_punish,2021.1.2,Win32,60.0024001,,,,,,,,,,,,,,p,1,1.557,1.884023749,0,5,1,0,4,0,1,,,,,,,,,,,,,,
,,,,,,,,,,,right.png,,p,left,610dd74ebf5c4e1977a3e54e,2021-10-22_16h29.07.144,arrow_simon_punish,2021.1.2,Win32,60.0024001,,,,,,,,,,,,,,p,1,1.488,1.539281851,0,5,1,1,5,0,1,,,,,,,,,,,,,,
,,,,,,,,,,,left.png,,w,left,610dd74ebf5c4e1977a3e54e,2021-10-22_16h29.07.144,arrow_simon_punish,2021.1.2,Win32,60.0024001,,,,,,,,,,,,,,w,1,1.819,1.572553096,1,5,1,2,6,2,1,,,,,,,,,,,,,,
,,,,,,,,,,,left.png,,w,right,610dd74ebf5c4e1977a3e54e,2021-10-22_16h29.07.144,arrow_simon_punish,2021.1.2,Win32,60.0024001,,,,,,,,,,,,,,p,0,1.156,1.841320267,1,5,1,3,7,3,1,,,,,,,,,,,,,,
,,,,,,,,,,,right.png,,p,left,610dd74ebf5c4e1977a3e54e,2021-10-22_16h29.07.144,arrow_simon_punish,2021.1.2,Win32,60.0024001,,,,,,,,,,,,,,p,1,1.464,1.64831703,0,5,2,0,8,0,1,,,,,,,,,,,,,,
,,,,,,,,,,,left.png,,w,right,610dd74ebf5c4e1977a3e54e,2021-10-22_16h29.07.144,arrow_simon_punish,2021.1.2,Win32,60.0024001,,,,,,,,,,,,,,w,1,1.877,2.209040067,1,5,2,1,9,3,1,,,,,,,,,,,,,,
,,,,,,,,,,,left.png,,w,right,610dd74ebf5c4e1977a3e54e,2021-10-22_16h29.07.144,arrow_simon_punish,2021.1.2,Win32,60.0024001,,,,,,,,,,,,,,w,1,1.824,2.077554138,1,5,2,2,10,3,1,,,,,,,,,,,,,,
,,,,,,,,,,,right.png,,p,right,610dd74ebf5c4e1977a3e54e,2021-10-22_16h29.07.144,arrow_simon_punish,2021.1.2,Win32,60.0024001,,,,,,,,,,,,,,p,1,1.593,2.13798432,0,5,2,3,11,1,1,,,,,,,,,,,,,,
,,,,,,,,,,,left.png,,w,right,610dd74ebf5c4e1977a3e54e,2021-10-22_16h29.07.144,arrow_simon_punish,2021.1.2,Win32,60.0024001,,,,,,,,,,,,,,w,1,1.977,2.427029364,1,5,3,0,12,3,1,,,,,,,,,,,,,,
,,,,,,,,,,,left.png,,w,left,610dd74ebf5c4e1977a3e54e,2021-10-22_16h29.07.144,arrow_simon_punish,2021.1.2,Win32,60.0024001,,,,,,,,,,,,,,w,1,1.477,1.645135673,0,5,3,1,13,2,1,,,,,,,,,,,,,,
,,,,,,,,,,,right.png,,p,left,610dd74ebf5c4e1977a3e54e,2021-10-22_16h29.07.144,arrow_simon_punish,2021.1.2,Win32,60.0024001,,,,,,,,,,,,,,p,1,1.542,1.862196649,0,5,3,2,14,0,1,,,,,,,,,,,,,,
,,,,,,,,,,,right.png,,p,left,610dd74ebf5c4e1977a3e54e,2021-10-22_16h29.07.144,arrow_simon_punish,2021.1.2,Win32,60.0024001,,,,,,,,,,,,,,p,1,1.842,2.480267239,1,5,3,3,15,0,1,,,,,,,,,,,,,,
,,,,,,,,,,,right.png,,p,left,610dd74ebf5c4e1977a3e54e,2021-10-22_16h29.07.144,arrow_simon_punish,2021.1.2,Win32,60.0024001,,,,,,,,,,,,,,p,1,1.695,2.232375965,1,5,4,0,16,0,1,,,,,,,,,,,,,,
,,,,,,,,,,,right.png,,p,right,610dd74ebf5c4e1977a3e54e,2021-10-22_16h29.07.144,arrow_simon_punish,2021.1.2,Win32,60.0024001,,,,,,,,,,,,,,p,1,1.659,2.079590867,1,5,4,1,17,1,1,,,,,,,,,,,,,,
,,,,,,,,,,,right.png,,p,right,610dd74ebf5c4e1977a3e54e,2021-10-22_16h29.07.144,arrow_simon_punish,2021.1.2,Win32,60.0024001,,,,,,,,,,,,,,p,1,1.438,1.558491452,0,5,4,2,18,1,1,,,,,,,,,,,,,,
,,,,,,,,,,,right.png,,p,left,610dd74ebf5c4e1977a3e54e,2021-10-22_16h29.07.144,arrow_simon_punish,2021.1.2,Win32,60.0024001,,,,,,,,,,,,,,p,1,1.666,2.11223998,1,5,4,3,19,0,1,,,,,,,,,,,,,,
,,,,,,,,,,,right.png,,p,right,610dd74ebf5c4e1977a3e54e,2021-10-22_16h29.07.144,arrow_simon_punish,2021.1.2,Win32,60.0024001,,,,,,,,,,,,,,p,1,1.44,1.562571545,0,5,5,0,20,1,1,,,,,,,,,,,,,,
,,,,,,,,,,,left.png,,w,right,610dd74ebf5c4e1977a3e54e,2021-10-22_16h29.07.144,arrow_simon_punish,2021.1.2,Win32,60.0024001,,,,,,,,,,,,,,p,0,1.609,2.244740252,1,5,5,1,21,3,1,,,,,,,,,,,,,,
,,,,,,,,,,,left.png,,w,left,610dd74ebf5c4e1977a3e54e,2021-10-22_16h29.07.144,arrow_simon_punish,2021.1.2,Win32,60.0024001,,,,,,,,,,,,,,w,1,1.673,1.654435216,1,5,5,2,22,2,1,,,,,,,,,,,,,,
,,,,,,,,,,,right.png,,p,right,610dd74ebf5c4e1977a3e54e,2021-10-22_16h29.07.144,arrow_simon_punish,2021.1.2,Win32,60.0024001,,,,,,,,,,,,,,p,1,1.432,1.676135722,0,5,5,3,23,1,1,,,,,,,,,,,,,,
,,,,,,,,,,,left.png,,w,left,610dd74ebf5c4e1977a3e54e,2021-10-22_16h29.07.144,arrow_simon_punish,2021.1.2,Win32,60.0024001,,,,,,,,,,,,,,w,1,1.54,2.177303795,0,5,6,0,24,2,1,,,,,,,,,,,,,,
,,,,,,,,,,,left.png,,w,left,610dd74ebf5c4e1977a3e54e,2021-10-22_16h29.07.144,arrow_simon_punish,2021.1.2,Win32,60.0024001,,,,,,,,,,,,,,w,1,1.613,2.031584507,1,5,6,1,25,2,1,,,,,,,,,,,,,,
,,,,,,,,,,,left.png,,w,left,610dd74ebf5c4e1977a3e54e,2021-10-22_16h29.07.144,arrow_simon_punish,2021.1.2,Win32,60.0024001,,,,,,,,,,,,,,w,1,1.579,1.781573416,0,5,6,2,26,2,1,,,,,,,,,,,,,,
,,,,,,,,,,,left.png,,w,right,610dd74ebf5c4e1977a3e54e,2021-10-22_16h29.07.144,arrow_simon_punish,2021.1.2,Win32,60.0024001,,,,,,,,,,,,,,w,1,1.835,1.727794648,1,5,6,3,27,3,1,,,,,,,,,,,,,,
,,,,,,,,,,,left.png,,w,right,610dd74ebf5c4e1977a3e54e,2021-10-22_16h29.07.144,arrow_simon_punish,2021.1.2,Win32,60.0024001,,,,,,,,,,,,,,p,0,1.714,2.458774007,1,5,7,0,28,3,1,,,,,,,,,,,,,,
,,,,,,,,,,,left.png,,w,right,610dd74ebf5c4e1977a3e54e,2021-10-22_16h29.07.144,arrow_simon_punish,2021.1.2,Win32,60.0024001,,,,,,,,,,,,,,w,1,1.733,1.775322544,1,5,7,1,29,3,1,,,,,,,,,,,,,,
,,,,,,,,,,,left.png,,w,left,610dd74ebf5c4e1977a3e54e,2021-10-22_16h29.07.144,arrow_simon_punish,2021.1.2,Win32,60.0024001,,,,,,,,,,,,,,w,1,1.732,2.058047344,1,5,7,2,30,2,1,,,,,,,,,,,,,,
,,,,,,,,,,,left.png,,w,left,610dd74ebf5c4e1977a3e54e,2021-10-22_16h29.07.144,arrow_simon_punish,2021.1.2,Win32,60.0024001,,,,,,,,,,,,,,w,1,1.474,1.557924246,0,5,7,3,31,2,1,,,,,,,,,,,,,,
,,,,,,,,,,,left.png,,w,left,610dd74ebf5c4e1977a3e54e,2021-10-22_16h29.07.144,arrow_simon_punish,2021.1.2,Win32,60.0024001,,,,,,,,,,,,,,w,1,1.723,2.306531549,1,5,8,0,32,2,1,,,,,,,,,,,,,,
,,,,,,,,,,,right.png,,p,right,610dd74ebf5c4e1977a3e54e,2021-10-22_16h29.07.144,arrow_simon_punish,2021.1.2,Win32,60.0024001,,,,,,,,,,,,,,p,1,1.42,1.718563908,0,5,8,1,33,1,1,,,,,,,,,,,,,,
,,,,,,,,,,,left.png,,w,right,610dd74ebf5c4e1977a3e54e,2021-10-22_16h29.07.144,arrow_simon_punish,2021.1.2,Win32,60.0024001,,,,,,,,,,,,,,w,1,1.635,2.115764729,1,5,8,2,34,3,1,,,,,,,,,,,,,,
,,,,,,,,,,,right.png,,p,left,610dd74ebf5c4e1977a3e54e,2021-10-22_16h29.07.144,arrow_simon_punish,2021.1.2,Win32,60.0024001,,,,,,,,,,,,,,p,1,1.725,2.104983071,1,5,8,3,35,0,1,,,,,,,,,,,,,,
,,,,,,,,,,,right.png,,p,left,610dd74ebf5c4e1977a3e54e,2021-10-22_16h29.07.144,arrow_simon_punish,2021.1.2,Win32,60.0024001,,,,,,,,,,,,,,w,0,1.312,2.238205749,1,5,9,0,36,0,1,,,,,,,,,,,,,,
,,,,,,,,,,,left.png,,w,left,610dd74ebf5c4e1977a3e54e,2021-10-22_16h29.07.144,arrow_simon_punish,2021.1.2,Win32,60.0024001,,,,,,,,,,,,,,w,1,1.624,2.013555308,1,5,9,1,37,2,1,,,,,,,,,,,,,,
,,,,,,,,,,,right.png,,p,right,610dd74ebf5c4e1977a3e54e,2021-10-22_16h29.07.144,arrow_simon_punish,2021.1.2,Win32,60.0024001,,,,,,,,,,,,,,p,1,1.536,2.018092336,0,5,9,2,38,1,1,,,,,,,,,,,,,,
,,,,,,,,,,,right.png,,p,right,610dd74ebf5c4e1977a3e54e,2021-10-22_16h29.07.144,arrow_simon_punish,2021.1.2,Win32,60.0024001,,,,,,,,,,,,,,p,1,1.794,2.179849155,1,5,9,3,39,1,1,,,,,,,,,,,,,,
,,,,,,,,,,,left.png,,w,right,610dd74ebf5c4e1977a3e54e,2021-10-22_16h29.07.144,arrow_simon_punish,2021.1.2,Win32,60.0024001,,,,,,,,,,,,,,w,1,1.665,2.15886939,1,5,10,0,40,3,1,,,,,,,,,,,,,,
,,,,,,,,,,,left.png,,w,right,610dd74ebf5c4e1977a3e54e,2021-10-22_16h29.07.144,arrow_simon_punish,2021.1.2,Win32,60.0024001,,,,,,,,,,,,,,w,1,1.277,1.695779469,1,5,10,1,41,3,1,,,,,,,,,,,,,,
,,,,,,,,,,,right.png,,p,left,610dd74ebf5c4e1977a3e54e,2021-10-22_16h29.07.144,arrow_simon_punish,2021.1.2,Win32,60.0024001,,,,,,,,,,,,,,w,0,1.575,2.282326215,1,5,10,2,42,0,1,,,,,,,,,,,,,,
,,,,,,,,,,,right.png,,p,left,610dd74ebf5c4e1977a3e54e,2021-10-22_16h29.07.144,arrow_simon_punish,2021.1.2,Win32,60.0024001,,,,,,,,,,,,,,p,1,1.881,2.402632346,1,5,10,3,43,0,1,,,,,,,,,,,,,,
,,,,,,,,,,,left.png,,w,right,610dd74ebf5c4e1977a3e54e,2021-10-22_16h29.07.144,arrow_simon_punish,2021.1.2,Win32,60.0024001,,,,,,,,,,,,,,w,1,1.706,2.008682969,1,5,11,0,44,3,1,,,,,,,,,,,,,,
,,,,,,,,,,,right.png,,p,left,610dd74ebf5c4e1977a3e54e,2021-10-22_16h29.07.144,arrow_simon_punish,2021.1.2,Win32,60.0024001,,,,,,,,,,,,,,w,0,1.518,2.223574794,1,5,11,1,45,0,1,,,,,,,,,,,,,,
,,,,,,,,,,,right.png,,p,right,610dd74ebf5c4e1977a3e54e,2021-10-22_16h29.07.144,arrow_simon_punish,2021.1.2,Win32,60.0024001,,,,,,,,,,,,,,p,1,1.848,2.43789324,1,5,11,2,46,1,1,,,,,,,,,,,,,,
,,,,,,,,,,,left.png,,w,right,610dd74ebf5c4e1977a3e54e,2021-10-22_16h29.07.144,arrow_simon_punish,2021.1.2,Win32,60.0024001,,,,,,,,,,,,,,w,1,1.208,1.558578905,1,5,11,3,47,3,1,,,,,,,,,,,,,,
,,,,,,,,,,,left.png,,w,left,610dd74ebf5c4e1977a3e54e,2021-10-22_16h29.07.144,arrow_simon_punish,2021.1.2,Win32,60.0024001,,,,,,,,,,,,,,w,1,1.48,2.118312448,0,5,12,0,48,2,1,,,,,,,,,,,,,,
,,,,,,,,,,,left.png,,w,right,610dd74ebf5c4e1977a3e54e,2021-10-22_16h29.07.144,arrow_simon_punish,2021.1.2,Win32,60.0024001,,,,,,,,,,,,,,w,1,1.247,1.62975725,1,5,12,1,49,3,1,,,,,,,,,,,,,,
,,,,,,,,,,,right.png,,p,right,610dd74ebf5c4e1977a3e54e,2021-10-22_16h29.07.144,arrow_simon_punish,2021.1.2,Win32,60.0024001,,,,,,,,,,,,,,w,0,1.548,2.245542038,1,5,12,2,50,1,1,,,,,,,,,,,,,,
,,,,,,,,,,,left.png,,w,left,610dd74ebf5c4e1977a3e54e,2021-10-22_16h29.07.144,arrow_simon_punish,2021.1.2,Win32,60.0024001,,,,,,,,,,,,,,w,1,1.712,2.273149658,1,5,12,3,51,2,1,,,,,,,,,,,,,,
,,,,,,,,,,,left.png,,w,left,610dd74ebf5c4e1977a3e54e,2021-10-22_16h29.07.144,arrow_simon_punish,2021.1.2,Win32,60.0024001,,,,,,,,,,,,,,w,1,1.424,1.704154622,0,5,13,0,52,2,1,,,,,,,,,,,,,,
,,,,,,,,,,,right.png,,p,left,610dd74ebf5c4e1977a3e54e,2021-10-22_16h29.07.144,arrow_simon_punish,2021.1.2,Win32,60.0024001,,,,,,,,,,,,,,p,1,1.667,1.967260713,1,5,13,1,53,0,1,,,,,,,,,,,,,,
,,,,,,,,,,,right.png,,p,right,610dd74ebf5c4e1977a3e54e,2021-10-22_16h29.07.144,arrow_simon_punish,2021.1.2,Win32,60.0024001,,,,,,,,,,,,,,p,1,2.057,2.404805581,1,5,13,2,54,1,1,,,,,,,,,,,,,,
,,,,,,,,,,,right.png,,p,right,610dd74ebf5c4e1977a3e54e,2021-10-22_16h29.07.144,arrow_simon_punish,2021.1.2,Win32,60.0024001,,,,,,,,,,,,,,p,1,1.154,1.545663936,1,5,13,3,55,1,1,,,,,,,,,,,,,,
,,,,,,,,,,,right.png,,p,left,610dd74ebf5c4e1977a3e54e,2021-10-22_16h29.07.144,arrow_simon_punish,2021.1.2,Win32,60.0024001,,,,,,,,,,,,,,p,1,1.683,1.930910841,1,5,14,0,56,0,1,,,,,,,,,,,,,,
,,,,,,,,,,,right.png,,p,right,610dd74ebf5c4e1977a3e54e,2021-10-22_16h29.07.144,arrow_simon_punish,2021.1.2,Win32,60.0024001,,,,,,,,,,,,,,p,1,1.632,1.907000544,1,5,14,1,57,1,1,,,,,,,,,,,,,,
,,,,,,,,,,,right.png,,p,right,610dd74ebf5c4e1977a3e54e,2021-10-22_16h29.07.144,arrow_simon_punish,2021.1.2,Win32,60.0024001,,,,,,,,,,,,,,p,1,1.656,2.046200109,1,5,14,2,58,1,1,,,,,,,,,,,,,,
,,,,,,,,,,,right.png,,p,right,610dd74ebf5c4e1977a3e54e,2021-10-22_16h29.07.144,arrow_simon_punish,2021.1.2,Win32,60.0024001,,,,,,,,,,,,,,p,1,1.482,1.508808919,0,5,14,3,59,1,1,,,,,,,,,,,,,,
,,,,,,,,,,,,,,,610dd74ebf5c4e1977a3e54e,2021-10-22_16h29.07.144,arrow_simon_punish,2021.1.2,Win32,60.0024001,,,,,,,,,,,,,,,,,,,,,,,,,space,13.75,3,0,1,1,1,1,5,,,,,
,,,,,,,,,,,right.png,,p,right,610dd74ebf5c4e1977a3e54e,2021-10-22_16h29.07.144,arrow_simon_punish,2021.1.2,Win32,60.0024001,,,,,,,,,,,,,,p,1,1.889,2.224977838,1,1,0,0,0,1,1,,,,,,,,,,,,,,
,,,,,,,,,,,left.png,,w,right,610dd74ebf5c4e1977a3e54e,2021-10-22_16h29.07.144,arrow_simon_punish,2021.1.2,Win32,60.0024001,,,,,,,,,,,,,,w,1,1.505,1.823919413,0,1,0,1,1,3,1,,,,,,,,,,,,,,
,,,,,,,,,,,left.png,,w,left,610dd74ebf5c4e1977a3e54e,2021-10-22_16h29.07.144,arrow_simon_punish,2021.1.2,Win32,60.0024001,,,,,,,,,,,,,,w,1,1.342,1.615341287,1,1,0,2,2,2,1,,,,,,,,,,,,,,
,,,,,,,,,,,left.png,,w,right,610dd74ebf5c4e1977a3e54e,2021-10-22_16h29.07.144,arrow_simon_punish,2021.1.2,Win32,60.0024001,,,,,,,,,,,,,,w,1,1.672,2.498346028,1,1,0,3,3,3,1,,,,,,,,,,,,,,
,,,,,,,,,,,right.png,,p,left,610dd74ebf5c4e1977a3e54e,2021-10-22_16h29.07.144,arrow_simon_punish,2021.1.2,Win32,60.0024001,,,,,,,,,,,,,,p,1,1.792,1.926321242,1,1,1,0,4,0,1,,,,,,,,,,,,,,
,,,,,,,,,,,left.png,,w,left,610dd74ebf5c4e1977a3e54e,2021-10-22_16h29.07.144,arrow_simon_punish,2021.1.2,Win32,60.0024001,,,,,,,,,,,,,,w,1,1.607,1.978750257,1,1,1,1,5,2,1,,,,,,,,,,,,,,
,,,,,,,,,,,right.png,,p,right,610dd74ebf5c4e1977a3e54e,2021-10-22_16h29.07.144,arrow_simon_punish,2021.1.2,Win32,60.0024001,,,,,,,,,,,,,,w,0,1.477,2.309767802,1,1,1,2,6,1,1,,,,,,,,,,,,,,
,,,,,,,,,,,right.png,,p,right,610dd74ebf5c4e1977a3e54e,2021-10-22_16h29.07.144,arrow_simon_punish,2021.1.2,Win32,60.0024001,,,,,,,,,,,,,,p,1,1.622,2.199569174,1,1,1,3,7,1,1,,,,,,,,,,,,,,
,,,,,,,,,,,right.png,,p,left,610dd74ebf5c4e1977a3e54e,2021-10-22_16h29.07.144,arrow_simon_punish,2021.1.2,Win32,60.0024001,,,,,,,,,,,,,,p,1,2.295,2.47031075,1,1,2,0,8,0,1,,,,,,,,,,,,,,
,,,,,,,,,,,left.png,,w,left,610dd74ebf5c4e1977a3e54e,2021-10-22_16h29.07.144,arrow_simon_punish,2021.1.2,Win32,60.0024001,,,,,,,,,,,,,,p,0,1.503,2.087783272,1,1,2,1,9,2,1,,,,,,,,,,,,,,
,,,,,,,,,,,left.png,,w,right,610dd74ebf5c4e1977a3e54e,2021-10-22_16h29.07.144,arrow_simon_punish,2021.1.2,Win32,60.0024001,,,,,,,,,,,,,,w,1,1.361,1.547339984,1,1,2,2,10,3,1,,,,,,,,,,,,,,
,,,,,,,,,,,right.png,,p,left,610dd74ebf5c4e1977a3e54e,2021-10-22_16h29.07.144,arrow_simon_punish,2021.1.2,Win32,60.0024001,,,,,,,,,,,,,,p,1,1.545,2.141683904,0,1,2,3,11,0,1,,,,,,,,,,,,,,
,,,,,,,,,,,left.png,,w,left,610dd74ebf5c4e1977a3e54e,2021-10-22_16h29.07.144,arrow_simon_punish,2021.1.2,Win32,60.0024001,,,,,,,,,,,,,,w,1,1.433,1.680078984,0,1,3,0,12,2,1,,,,,,,,,,,,,,
,,,,,,,,,,,right.png,,p,right,610dd74ebf5c4e1977a3e54e,2021-10-22_16h29.07.144,arrow_simon_punish,2021.1.2,Win32,60.0024001,,,,,,,,,,,,,,w,0,1.68,2.212546984,1,1,3,1,13,1,1,,,,,,,,,,,,,,
,,,,,,,,,,,right.png,,p,right,610dd74ebf5c4e1977a3e54e,2021-10-22_16h29.07.144,arrow_simon_punish,2021.1.2,Win32,60.0024001,,,,,,,,,,,,,,p,1,1.491,1.80182548,0,1,3,2,14,1,1,,,,,,,,,,,,,,
,,,,,,,,,,,left.png,,w,left,610dd74ebf5c4e1977a3e54e,2021-10-22_16h29.07.144,arrow_simon_punish,2021.1.2,Win32,60.0024001,,,,,,,,,,,,,,w,1,1.7,2.301160718,1,1,3,3,15,2,1,,,,,,,,,,,,,,
,,,,,,,,,,,right.png,,p,left,610dd74ebf5c4e1977a3e54e,2021-10-22_16h29.07.144,arrow_simon_punish,2021.1.2,Win32,60.0024001,,,,,,,,,,,,,,p,1,1.555,1.960167369,0,1,4,0,16,0,1,,,,,,,,,,,,,,
,,,,,,,,,,,left.png,,w,right,610dd74ebf5c4e1977a3e54e,2021-10-22_16h29.07.144,arrow_simon_punish,2021.1.2,Win32,60.0024001,,,,,,,,,,,,,,w,1,1.701,2.107353829,1,1,4,1,17,3,1,,,,,,,,,,,,,,
,,,,,,,,,,,right.png,,p,right,610dd74ebf5c4e1977a3e54e,2021-10-22_16h29.07.144,arrow_simon_punish,2021.1.2,Win32,60.0024001,,,,,,,,,,,,,,p,1,1.534,2.077792862,0,1,4,2,18,1,1,,,,,,,,,,,,,,
,,,,,,,,,,,left.png,,w,left,610dd74ebf5c4e1977a3e54e,2021-10-22_16h29.07.144,arrow_simon_punish,2021.1.2,Win32,60.0024001,,,,,,,,,,,,,,w,1,1.382,1.896967825,1,1,4,3,19,2,1,,,,,,,,,,,,,,
,,,,,,,,,,,left.png,,w,right,610dd74ebf5c4e1977a3e54e,2021-10-22_16h29.07.144,arrow_simon_punish,2021.1.2,Win32,60.0024001,,,,,,,,,,,,,,p,0,1.677,2.395004761,1,1,5,0,20,3,1,,,,,,,,,,,,,,
,,,,,,,,,,,left.png,,w,right,610dd74ebf5c4e1977a3e54e,2021-10-22_16h29.07.144,arrow_simon_punish,2021.1.2,Win32,60.0024001,,,,,,,,,,,,,,w,1,1.472,1.759294465,0,1,5,1,21,3,1,,,,,,,,,,,,,,
,,,,,,,,,,,left.png,,w,left,610dd74ebf5c4e1977a3e54e,2021-10-22_16h29.07.144,arrow_simon_punish,2021.1.2,Win32,60.0024001,,,,,,,,,,,,,,w,1,1.458,1.650083205,0,1,5,2,22,2,1,,,,,,,,,,,,,,
,,,,,,,,,,,right.png,,p,left,610dd74ebf5c4e1977a3e54e,2021-10-22_16h29.07.144,arrow_simon_punish,2021.1.2,Win32,60.0024001,,,,,,,,,,,,,,w,0,1.694,2.381798107,1,1,5,3,23,0,1,,,,,,,,,,,,,,
,,,,,,,,,,,right.png,,p,right,610dd74ebf5c4e1977a3e54e,2021-10-22_16h29.07.144,arrow_simon_punish,2021.1.2,Win32,60.0024001,,,,,,,,,,,,,,p,1,1.626,1.967551829,1,1,6,0,24,1,1,,,,,,,,,,,,,,
,,,,,,,,,,,left.png,,w,left,610dd74ebf5c4e1977a3e54e,2021-10-22_16h29.07.144,arrow_simon_punish,2021.1.2,Win32,60.0024001,,,,,,,,,,,,,,w,1,1.754,2.397245309,1,1,6,1,25,2,1,,,,,,,,,,,,,,
,,,,,,,,,,,right.png,,p,left,610dd74ebf5c4e1977a3e54e,2021-10-22_16h29.07.144,arrow_simon_punish,2021.1.2,Win32,60.0024001,,,,,,,,,,,,,,p,1,1.754,1.714634847,1,1,6,2,26,0,1,,,,,,,,,,,,,,
,,,,,,,,,,,right.png,,p,left,610dd74ebf5c4e1977a3e54e,2021-10-22_16h29.07.144,arrow_simon_punish,2021.1.2,Win32,60.0024001,,,,,,,,,,,,,,w,0,1.86,2.451796288,1,1,6,3,27,0,1,,,,,,,,,,,,,,
,,,,,,,,,,,left.png,,w,right,610dd74ebf5c4e1977a3e54e,2021-10-22_16h29.07.144,arrow_simon_punish,2021.1.2,Win32,60.0024001,,,,,,,,,,,,,,w,1,1.36,1.862320076,1,1,7,0,28,3,1,,,,,,,,,,,,,,
,,,,,,,,,,,left.png,,w,right,610dd74ebf5c4e1977a3e54e,2021-10-22_16h29.07.144,arrow_simon_punish,2021.1.2,Win32,60.0024001,,,,,,,,,,,,,,w,1,1.57,2.489299263,0,1,7,1,29,3,1,,,,,,,,,,,,,,
,,,,,,,,,,,left.png,,w,right,610dd74ebf5c4e1977a3e54e,2021-10-22_16h29.07.144,arrow_simon_punish,2021.1.2,Win32,60.0024001,,,,,,,,,,,,,,p,0,1.812,2.451330899,1,1,7,2,30,3,1,,,,,,,,,,,,,,
,,,,,,,,,,,left.png,,w,right,610dd74ebf5c4e1977a3e54e,2021-10-22_16h29.07.144,arrow_simon_punish,2021.1.2,Win32,60.0024001,,,,,,,,,,,,,,w,1,1.696,2.217475623,1,1,7,3,31,3,1,,,,,,,,,,,,,,
,,,,,,,,,,,right.png,,p,left,610dd74ebf5c4e1977a3e54e,2021-10-22_16h29.07.144,arrow_simon_punish,2021.1.2,Win32,60.0024001,,,,,,,,,,,,,,p,1,1.828,1.796835324,1,1,8,0,32,0,1,,,,,,,,,,,,,,
,,,,,,,,,,,left.png,,w,left,610dd74ebf5c4e1977a3e54e,2021-10-22_16h29.07.144,arrow_simon_punish,2021.1.2,Win32,60.0024001,,,,,,,,,,,,,,w,1,1.229,1.920812001,1,1,8,1,33,2,1,,,,,,,,,,,,,,
,,,,,,,,,,,right.png,,p,right,610dd74ebf5c4e1977a3e54e,2021-10-22_16h29.07.144,arrow_simon_punish,2021.1.2,Win32,60.0024001,,,,,,,,,,,,,,w,0,1.41,2.068173852,1,1,8,2,34,1,1,,,,,,,,,,,,,,
,,,,,,,,,,,right.png,,p,left,610dd74ebf5c4e1977a3e54e,2021-10-22_16h29.07.144,arrow_simon_punish,2021.1.2,Win32,60.0024001,,,,,,,,,,,,,,p,1,1.532,1.962627414,0,1,8,3,35,0,1,,,,,,,,,,,,,,
,,,,,,,,,,,right.png,,p,right,610dd74ebf5c4e1977a3e54e,2021-10-22_16h29.07.144,arrow_simon_punish,2021.1.2,Win32,60.0024001,,,,,,,,,,,,,,p,1,1.707,2.100608104,1,1,9,0,36,1,1,,,,,,,,,,,,,,
,,,,,,,,,,,right.png,,p,right,610dd74ebf5c4e1977a3e54e,2021-10-22_16h29.07.144,arrow_simon_punish,2021.1.2,Win32,60.0024001,,,,,,,,,,,,,,p,1,1.445,1.639644675,0,1,9,1,37,1,1,,,,,,,,,,,,,,
,,,,,,,,,,,right.png,,p,left,610dd74ebf5c4e1977a3e54e,2021-10-22_16h29.07.144,arrow_simon_punish,2021.1.2,Win32,60.0024001,,,,,,,,,,,,,,p,1,1.702,2.074401787,1,1,9,2,38,0,1,,,,,,,,,,,,,,
,,,,,,,,,,,left.png,,w,right,610dd74ebf5c4e1977a3e54e,2021-10-22_16h29.07.144,arrow_simon_punish,2021.1.2,Win32,60.0024001,,,,,,,,,,,,,,w,1,1.389,1.704595522,1,1,9,3,39,3,1,,,,,,,,,,,,,,
,,,,,,,,,,,left.png,,w,right,610dd74ebf5c4e1977a3e54e,2021-10-22_16h29.07.144,arrow_simon_punish,2021.1.2,Win32,60.0024001,,,,,,,,,,,,,,w,1,1.703,2.15126566,1,1,10,0,40,3,1,,,,,,,,,,,,,,
,,,,,,,,,,,right.png,,p,left,610dd74ebf5c4e1977a3e54e,2021-10-22_16h29.07.144,arrow_simon_punish,2021.1.2,Win32,60.0024001,,,,,,,,,,,,,,p,1,1.885,2.478856068,1,1,10,1,41,0,1,,,,,,,,,,,,,,
,,,,,,,,,,,left.png,,w,right,610dd74ebf5c4e1977a3e54e,2021-10-22_16h29.07.144,arrow_simon_punish,2021.1.2,Win32,60.0024001,,,,,,,,,,,,,,w,1,1.736,2.262372861,1,1,10,2,42,3,1,,,,,,,,,,,,,,
,,,,,,,,,,,right.png,,p,right,610dd74ebf5c4e1977a3e54e,2021-10-22_16h29.07.144,arrow_simon_punish,2021.1.2,Win32,60.0024001,,,,,,,,,,,,,,p,1,1.861,2.122156066,1,1,10,3,43,1,1,,,,,,,,,,,,,,
,,,,,,,,,,,right.png,,p,left,610dd74ebf5c4e1977a3e54e,2021-10-22_16h29.07.144,arrow_simon_punish,2021.1.2,Win32,60.0024001,,,,,,,,,,,,,,p,1,1.452,1.934748022,0,1,11,0,44,0,1,,,,,,,,,,,,,,
,,,,,,,,,,,right.png,,p,right,610dd74ebf5c4e1977a3e54e,2021-10-22_16h29.07.144,arrow_simon_punish,2021.1.2,Win32,60.0024001,,,,,,,,,,,,,,w,0,1.491,2.087746448,1,1,11,1,45,1,1,,,,,,,,,,,,,,
,,,,,,,,,,,right.png,,p,left,610dd74ebf5c4e1977a3e54e,2021-10-22_16h29.07.144,arrow_simon_punish,2021.1.2,Win32,60.0024001,,,,,,,,,,,,,,p,1,1.815,2.364202385,1,1,11,2,46,0,1,,,,,,,,,,,,,,
,,,,,,,,,,,right.png,,p,right,610dd74ebf5c4e1977a3e54e,2021-10-22_16h29.07.144,arrow_simon_punish,2021.1.2,Win32,60.0024001,,,,,,,,,,,,,,p,1,1.647,2.188898463,1,1,11,3,47,1,1,,,,,,,,,,,,,,
,,,,,,,,,,,left.png,,w,left,610dd74ebf5c4e1977a3e54e,2021-10-22_16h29.07.144,arrow_simon_punish,2021.1.2,Win32,60.0024001,,,,,,,,,,,,,,w,1,1.492,1.522758955,0,1,12,0,48,2,1,,,,,,,,,,,,,,
,,,,,,,,,,,right.png,,p,right,610dd74ebf5c4e1977a3e54e,2021-10-22_16h29.07.144,arrow_simon_punish,2021.1.2,Win32,60.0024001,,,,,,,,,,,,,,p,1,0.929,1.514818373,1,1,12,1,49,1,1,,,,,,,,,,,,,,
,,,,,,,,,,,right.png,,p,left,610dd74ebf5c4e1977a3e54e,2021-10-22_16h29.07.144,arrow_simon_punish,2021.1.2,Win32,60.0024001,,,,,,,,,,,,,,w,0,1.664,2.302382418,1,1,12,2,50,0,1,,,,,,,,,,,,,,
,,,,,,,,,,,left.png,,w,left,610dd74ebf5c4e1977a3e54e,2021-10-22_16h29.07.144,arrow_simon_punish,2021.1.2,Win32,60.0024001,,,,,,,,,,,,,,p,0,1.873,2.42340002,1,1,12,3,51,2,1,,,,,,,,,,,,,,
,,,,,,,,,,,left.png,,w,left,610dd74ebf5c4e1977a3e54e,2021-10-22_16h29.07.144,arrow_simon_punish,2021.1.2,Win32,60.0024001,,,,,,,,,,,,,,w,1,1.512,1.919933423,0,1,13,0,52,2,1,,,,,,,,,,,,,,
,,,,,,,,,,,left.png,,w,right,610dd74ebf5c4e1977a3e54e,2021-10-22_16h29.07.144,arrow_simon_punish,2021.1.2,Win32,60.0024001,,,,,,,,,,,,,,p,0,1.563,2.152779843,1,1,13,1,53,3,1,,,,,,,,,,,,,,
,,,,,,,,,,,left.png,,w,right,610dd74ebf5c4e1977a3e54e,2021-10-22_16h29.07.144,arrow_simon_punish,2021.1.2,Win32,60.0024001,,,,,,,,,,,,,,w,1,1.111,1.766381998,1,1,13,2,54,3,1,,,,,,,,,,,,,,
,,,,,,,,,,,right.png,,p,left,610dd74ebf5c4e1977a3e54e,2021-10-22_16h29.07.144,arrow_simon_punish,2021.1.2,Win32,60.0024001,,,,,,,,,,,,,,p,1,1.709,2.195047504,1,1,13,3,55,0,1,,,,,,,,,,,,,,
,,,,,,,,,,,left.png,,w,left,610dd74ebf5c4e1977a3e54e,2021-10-22_16h29.07.144,arrow_simon_punish,2021.1.2,Win32,60.0024001,,,,,,,,,,,,,,w,1,1.361,1.540222676,1,1,14,0,56,2,1,,,,,,,,,,,,,,
,,,,,,,,,,,right.png,,p,right,610dd74ebf5c4e1977a3e54e,2021-10-22_16h29.07.144,arrow_simon_punish,2021.1.2,Win32,60.0024001,,,,,,,,,,,,,,p,1,1.655,2.344114553,1,1,14,1,57,1,1,,,,,,,,,,,,,,
,,,,,,,,,,,left.png,,w,left,610dd74ebf5c4e1977a3e54e,2021-10-22_16h29.07.144,arrow_simon_punish,2021.1.2,Win32,60.0024001,,,,,,,,,,,,,,w,1,1.595,2.229809424,0,1,14,2,58,2,1,,,,,,,,,,,,,,
,,,,,,,,,,,left.png,,w,left,610dd74ebf5c4e1977a3e54e,2021-10-22_16h29.07.144,arrow_simon_punish,2021.1.2,Win32,60.0024001,,,,,,,,,,,,,,w,1,1.516,1.680053444,0,1,14,3,59,2,1,,,,,,,,,,,,,,
,,,,,,,,,,,,,,,610dd74ebf5c4e1977a3e54e,2021-10-22_16h29.07.144,arrow_simon_punish,2021.1.2,Win32,60.0024001,,,,,,,,,,,,,,,,,,,,,,,,,space,19.627,4,1,0,2,0,1,1,,,,,
,,,,,,,,,,,left.png,,w,left,610dd74ebf5c4e1977a3e54e,2021-10-22_16h29.07.144,arrow_simon_punish,2021.1.2,Win32,60.0024001,,,,,,,,,,,,,,w,1,1.596,1.929439763,0,5,0,0,0,2,1,,,,,,,,,,,,,,
,,,,,,,,,,,right.png,,p,left,610dd74ebf5c4e1977a3e54e,2021-10-22_16h29.07.144,arrow_simon_punish,2021.1.2,Win32,60.0024001,,,,,,,,,,,,,,p,1,1.71,2.138030211,1,5,0,1,1,0,1,,,,,,,,,,,,,,
,,,,,,,,,,,right.png,,p,right,610dd74ebf5c4e1977a3e54e,2021-10-22_16h29.07.144,arrow_simon_punish,2021.1.2,Win32,60.0024001,,,,,,,,,,,,,,p,1,1.08,1.616580748,1,5,0,2,2,1,1,,,,,,,,,,,,,,
,,,,,,,,,,,left.png,,w,left,610dd74ebf5c4e1977a3e54e,2021-10-22_16h29.07.144,arrow_simon_punish,2021.1.2,Win32,60.0024001,,,,,,,,,,,,,,w,1,1.73,2.414025323,1,5,0,3,3,2,1,,,,,,,,,,,,,,
,,,,,,,,,,,right.png,,p,right,610dd74ebf5c4e1977a3e54e,2021-10-22_16h29.07.144,arrow_simon_punish,2021.1.2,Win32,60.0024001,,,,,,,,,,,,,,p,1,1.482,2.12419312,0,5,1,0,4,1,1,,,,,,,,,,,,,,
,,,,,,,,,,,right.png,,p,left,610dd74ebf5c4e1977a3e54e,2021-10-22_16h29.07.144,arrow_simon_punish,2021.1.2,Win32,60.0024001,,,,,,,,,,,,,,p,1,1.471,1.867352184,0,5,1,1,5,0,1,,,,,,,,,,,,,,
,,,,,,,,,,,right.png,,p,left,610dd74ebf5c4e1977a3e54e,2021-10-22_16h29.07.144,arrow_simon_punish,2021.1.2,Win32,60.0024001,,,,,,,,,,,,,,p,1,1.569,1.589161418,0,5,1,2,6,0,1,,,,,,,,,,,,,,
,,,,,,,,,,,right.png,,p,right,610dd74ebf5c4e1977a3e54e,2021-10-22_16h29.07.144,arrow_simon_punish,2021.1.2,Win32,60.0024001,,,,,,,,,,,,,,p,1,1.572,1.516594129,0,5,1,3,7,1,1,,,,,,,,,,,,,,
,,,,,,,,,,,right.png,,p,left,610dd74ebf5c4e1977a3e54e,2021-10-22_16h29.07.144,arrow_simon_punish,2021.1.2,Win32,60.0024001,,,,,,,,,,,,,,p,1,1.365,1.655993811,1,5,2,0,8,0,1,,,,,,,,,,,,,,
,,,,,,,,,,,right.png,,p,left,610dd74ebf5c4e1977a3e54e,2021-10-22_16h29.07.144,arrow_simon_punish,2021.1.2,Win32,60.0024001,,,,,,,,,,,,,,w,0,1.626,2.197801897,1,5,2,1,9,0,1,,,,,,,,,,,,,,
,,,,,,,,,,,right.png,,p,left,610dd74ebf5c4e1977a3e54e,2021-10-22_16h29.07.144,arrow_simon_punish,2021.1.2,Win32,60.0024001,,,,,,,,,,,,,,p,1,1.574,2.384188677,0,5,2,2,10,0,1,,,,,,,,,,,,,,
,,,,,,,,,,,right.png,,p,right,610dd74ebf5c4e1977a3e54e,2021-10-22_16h29.07.144,arrow_simon_punish,2021.1.2,Win32,60.0024001,,,,,,,,,,,,,,p,1,1.669,1.958285949,1,5,2,3,11,1,1,,,,,,,,,,,,,,
,,,,,,,,,,,left.png,,w,right,610dd74ebf5c4e1977a3e54e,2021-10-22_16h29.07.144,arrow_simon_punish,2021.1.2,Win32,60.0024001,,,,,,,,,,,,,,w,1,1.642,1.601655444,1,5,3,0,12,3,1,,,,,,,,,,,,,,
,,,,,,,,,,,left.png,,w,right,610dd74ebf5c4e1977a3e54e,2021-10-22_16h29.07.144,arrow_simon_punish,2021.1.2,Win32,60.0024001,,,,,,,,,,,,,,p,0,1.076,1.952690667,1,5,3,1,13,3,1,,,,,,,,,,,,,,
,,,,,,,,,,,left.png,,w,right,610dd74ebf5c4e1977a3e54e,2021-10-22_16h29.07.144,arrow_simon_punish,2021.1.2,Win32,60.0024001,,,,,,,,,,,,,,w,1,1.482,1.701048591,0,5,3,2,14,3,1,,,,,,,,,,,,,,
,,,,,,,,,,,left.png,,w,right,610dd74ebf5c4e1977a3e54e,2021-10-22_16h29.07.144,arrow_simon_punish,2021.1.2,Win32,60.0024001,,,,,,,,,,,,,,w,1,1.544,1.880621904,0,5,3,3,15,3,1,,,,,,,,,,,,,,
,,,,,,,,,,,right.png,,p,right,610dd74ebf5c4e1977a3e54e,2021-10-22_16h29.07.144,arrow_simon_punish,2021.1.2,Win32,60.0024001,,,,,,,,,,,,,,p,1,1.487,1.789347634,0,5,4,0,16,1,1,,,,,,,,,,,,,,
,,,,,,,,,,,right.png,,p,left,610dd74ebf5c4e1977a3e54e,2021-10-22_16h29.07.144,arrow_simon_punish,2021.1.2,Win32,60.0024001,,,,,,,,,,,,,,w,0,1.695,2.187998397,1,5,4,1,17,0,1,,,,,,,,,,,,,,
,,,,,,,,,,,left.png,,w,right,610dd74ebf5c4e1977a3e54e,2021-10-22_16h29.07.144,arrow_simon_punish,2021.1.2,Win32,60.0024001,,,,,,,,,,,,,,w,1,1.553,1.879699216,0,5,4,2,18,3,1,,,,,,,,,,,,,,
,,,,,,,,,,,right.png,,p,left,610dd74ebf5c4e1977a3e54e,2021-10-22_16h29.07.144,arrow_simon_punish,2021.1.2,Win32,60.0024001,,,,,,,,,,,,,,p,1,1.721,2.220017777,1,5,4,3,19,0,1,,,,,,,,,,,,,,
,,,,,,,,,,,right.png,,p,right,610dd74ebf5c4e1977a3e54e,2021-10-22_16h29.07.144,arrow_simon_punish,2021.1.2,Win32,60.0024001,,,,,,,,,,,,,,p,1,1.724,2.307847413,1,5,5,0,20,1,1,,,,,,,,,,,,,,
,,,,,,,,,,,left.png,,w,left,610dd74ebf5c4e1977a3e54e,2021-10-22_16h29.07.144,arrow_simon_punish,2021.1.2,Win32,60.0024001,,,,,,,,,,,,,,w,1,1.656,2.321319111,1,5,5,1,21,2,1,,,,,,,,,,,,,,
,,,,,,,,,,,right.png,,p,right,610dd74ebf5c4e1977a3e54e,2021-10-22_16h29.07.144,arrow_simon_punish,2021.1.2,Win32,60.0024001,,,,,,,,,,,,,,p,1,1.672,2.259565521,1,5,5,2,22,1,1,,,,,,,,,,,,,,
,,,,,,,,,,,left.png,,w,left,610dd74ebf5c4e1977a3e54e,2021-10-22_16h29.07.144,arrow_simon_punish,2021.1.2,Win32,60.0024001,,,,,,,,,,,,,,w,1,1.503,1.782775499,0,5,5,3,23,2,1,,,,,,,,,,,,,,
,,,,,,,,,,,left.png,,w,right,610dd74ebf5c4e1977a3e54e,2021-10-22_16h29.07.144,arrow_simon_punish,2021.1.2,Win32,60.0024001,,,,,,,,,,,,,,w,1,1.346,1.514503013,1,5,6,0,24,3,1,,,,,,,,,,,,,,
,,,,,,,,,,,left.png,,w,right,610dd74ebf5c4e1977a3e54e,2021-10-22_16h29.07.144,arrow_simon_punish,2021.1.2,Win32,60.0024001,,,,,,,,,,,,,,w,1,1.293,1.914135037,1,5,6,1,25,3,1,,,,,,,,,,,,,,
,,,,,,,,,,,right.png,,p,right,610dd74ebf5c4e1977a3e54e,2021-10-22_16h29.07.144,arrow_simon_punish,2021.1.2,Win32,60.0024001,,,,,,,,,,,,,,p,1,2.051,1.977153398,1,5,6,2,26,1,1,,,,,,,,,,,,,,
,,,,,,,,,,,left.png,,w,left,610dd74ebf5c4e1977a3e54e,2021-10-22_16h29.07.144,arrow_simon_punish,2021.1.2,Win32,60.0024001,,,,,,,,,,,,,,w,1,1.471,1.873015477,0,5,6,3,27,2,1,,,,,,,,,,,,,,
,,,,,,,,,,,right.png,,p,right,610dd74ebf5c4e1977a3e54e,2021-10-22_16h29.07.144,arrow_simon_punish,2021.1.2,Win32,60.0024001,,,,,,,,,,,,,,p,1,1.502,1.804301975,0,5,7,0,28,1,1,,,,,,,,,,,,,,
,,,,,,,,,,,left.png,,w,right,610dd74ebf5c4e1977a3e54e,2021-10-22_16h29.07.144,arrow_simon_punish,2021.1.2,Win32,60.0024001,,,,,,,,,,,,,,w,1,1.71,2.182339215,1,5,7,1,29,3,1,,,,,,,,,,,,,,
,,,,,,,,,,,left.png,,w,left,610dd74ebf5c4e1977a3e54e,2021-10-22_16h29.07.144,arrow_simon_punish,2021.1.2,Win32,60.0024001,,,,,,,,,,,,,,w,1,1.784,2.068475286,1,5,7,2,30,2,1,,,,,,,,,,,,,,
,,,,,,,,,,,right.png,,p,right,610dd74ebf5c4e1977a3e54e,2021-10-22_16h29.07.144,arrow_simon_punish,2021.1.2,Win32,60.0024001,,,,,,,,,,,,,,p,1,1.414,1.729056724,0,5,7,3,31,1,1,,,,,,,,,,,,,,
,,,,,,,,,,,right.png,,p,right,610dd74ebf5c4e1977a3e54e,2021-10-22_16h29.07.144,arrow_simon_punish,2021.1.2,Win32,60.0024001,,,,,,,,,,,,,,p,1,1.669,1.914403266,1,5,8,0,32,1,1,,,,,,,,,,,,,,
,,,,,,,,,,,left.png,,w,left,610dd74ebf5c4e1977a3e54e,2021-10-22_16h29.07.144,arrow_simon_punish,2021.1.2,Win32,60.0024001,,,,,,,,,,,,,,w,1,1.778,2.284822114,1,5,8,1,33,2,1,,,,,,,,,,,,,,
,,,,,,,,,,,left.png,,w,left,610dd74ebf5c4e1977a3e54e,2021-10-22_16h29.07.144,arrow_simon_punish,2021.1.2,Win32,60.0024001,,,,,,,,,,,,,,w,1,1.6,2.021518227,0,5,8,2,34,2,1,,,,,,,,,,,,,,
,,,,,,,,,,,left.png,,w,right,610dd74ebf5c4e1977a3e54e,2021-10-22_16h29.07.144,arrow_simon_punish,2021.1.2,Win32,60.0024001,,,,,,,,,,,,,,w,1,1.47,1.723517642,0,5,8,3,35,3,1,,,,,,,,,,,,,,
,,,,,,,,,,,left.png,,w,left,610dd74ebf5c4e1977a3e54e,2021-10-22_16h29.07.144,arrow_simon_punish,2021.1.2,Win32,60.0024001,,,,,,,,,,,,,,w,1,1.561,2.421085043,0,5,9,0,36,2,1,,,,,,,,,,,,,,
,,,,,,,,,,,left.png,,w,left,610dd74ebf5c4e1977a3e54e,2021-10-22_16h29.07.144,arrow_simon_punish,2021.1.2,Win32,60.0024001,,,,,,,,,,,,,,w,1,1.35,1.623299402,1,5,9,1,37,2,1,,,,,,,,,,,,,,
,,,,,,,,,,,right.png,,p,left,610dd74ebf5c4e1977a3e54e,2021-10-22_16h29.07.144,arrow_simon_punish,2021.1.2,Win32,60.0024001,,,,,,,,,,,,,,w,0,1.401,2.288325768,1,5,9,2,38,0,1,,,,,,,,,,,,,,
,,,,,,,,,,,left.png,,w,left,610dd74ebf5c4e1977a3e54e,2021-10-22_16h29.07.144,arrow_simon_punish,2021.1.2,Win32,60.0024001,,,,,,,,,,,,,,w,1,1.646,1.835103398,1,5,9,3,39,2,1,,,,,,,,,,,,,,
,,,,,,,,,,,right.png,,p,right,610dd74ebf5c4e1977a3e54e,2021-10-22_16h29.07.144,arrow_simon_punish,2021.1.2,Win32,60.0024001,,,,,,,,,,,,,,w,0,1.528,2.354852187,1,5,10,0,40,1,1,,,,,,,,,,,,,,
,,,,,,,,,,,right.png,,p,right,610dd74ebf5c4e1977a3e54e,2021-10-22_16h29.07.144,arrow_simon_punish,2021.1.2,Win32,60.0024001,,,,,,,,,,,,,,p,1,1.475,1.850136568,0,5,10,1,41,1,1,,,,,,,,,,,,,,
,,,,,,,,,,,right.png,,p,left,610dd74ebf5c4e1977a3e54e,2021-10-22_16h29.07.144,arrow_simon_punish,2021.1.2,Win32,60.0024001,,,,,,,,,,,,,,p,1,2.148,2.044970869,1,5,10,2,42,0,1,,,,,,,,,,,,,,
,,,,,,,,,,,left.png,,w,left,610dd74ebf5c4e1977a3e54e,2021-10-22_16h29.07.144,arrow_simon_punish,2021.1.2,Win32,60.0024001,,,,,,,,,,,,,,w,1,1.652,2.397820684,1,5,10,3,43,2,1,,,,,,,,,,,,,,
,,,,,,,,,,,left.png,,w,left,610dd74ebf5c4e1977a3e54e,2021-10-22_16h29.07.144,arrow_simon_punish,2021.1.2,Win32,60.0024001,,,,,,,,,,,,,,w,1,1.441,1.527322073,0,5,11,0,44,2,1,,,,,,,,,,,,,,
,,,,,,,,,,,left.png,,w,right,610dd74ebf5c4e1977a3e54e,2021-10-22_16h29.07.144,arrow_simon_punish,2021.1.2,Win32,60.0024001,,,,,,,,,,,,,,w,1,1.386,1.657953842,1,5,11,1,45,3,1,,,,,,,,,,,,,,
,,,,,,,,,,,right.png,,p,left,610dd74ebf5c4e1977a3e54e,2021-10-22_16h29.07.144,arrow_simon_punish,2021.1.2,Win32,60.0024001,,,,,,,,,,,,,,p,1,2.035,2.371714393,1,5,11,2,46,0,1,,,,,,,,,,,,,,
,,,,,,,,,,,left.png,,w,right,610dd74ebf5c4e1977a3e54e,2021-10-22_16h29.07.144,arrow_simon_punish,2021.1.2,Win32,60.0024001,,,,,,,,,,,,,,w,1,1.471,1.846947408,0,5,11,3,47,3,1,,,,,,,,,,,,,,
,,,,,,,,,,,right.png,,p,right,610dd74ebf5c4e1977a3e54e,2021-10-22_16h29.07.144,arrow_simon_punish,2021.1.2,Win32,60.0024001,,,,,,,,,,,,,,p,1,1.326,1.532668373,1,5,12,0,48,1,1,,,,,,,,,,,,,,
,,,,,,,,,,,right.png,,p,left,610dd74ebf5c4e1977a3e54e,2021-10-22_16h29.07.144,arrow_simon_punish,2021.1.2,Win32,60.0024001,,,,,,,,,,,,,,p,1,1.358,1.89887439,1,5,12,1,49,0,1,,,,,,,,,,,,,,
,,,,,,,,,,,left.png,,w,left,610dd74ebf5c4e1977a3e54e,2021-10-22_16h29.07.144,arrow_simon_punish,2021.1.2,Win32,60.0024001,,,,,,,,,,,,,,w,1,1.533,2.082721198,0,5,12,2,50,2,1,,,,,,,,,,,,,,
,,,,,,,,,,,right.png,,p,left,610dd74ebf5c4e1977a3e54e,2021-10-22_16h29.07.144,arrow_simon_punish,2021.1.2,Win32,60.0024001,,,,,,,,,,,,,,p,1,1.765,2.228672044,1,5,12,3,51,0,1,,,,,,,,,,,,,,
,,,,,,,,,,,left.png,,w,right,610dd74ebf5c4e1977a3e54e,2021-10-22_16h29.07.144,arrow_simon_punish,2021.1.2,Win32,60.0024001,,,,,,,,,,,,,,w,1,1.632,1.936109793,1,5,13,0,52,3,1,,,,,,,,,,,,,,
,,,,,,,,,,,left.png,,w,left,610dd74ebf5c4e1977a3e54e,2021-10-22_16h29.07.144,arrow_simon_punish,2021.1.2,Win32,60.0024001,,,,,,,,,,,,,,w,1,1.477,1.744212693,0,5,13,1,53,2,1,,,,,,,,,,,,,,
,,,,,,,,,,,right.png,,p,right,610dd74ebf5c4e1977a3e54e,2021-10-22_16h29.07.144,arrow_simon_punish,2021.1.2,Win32,60.0024001,,,,,,,,,,,,,,p,1,1.41,1.748764478,0,5,13,2,54,1,1,,,,,,,,,,,,,,
,,,,,,,,,,,right.png,,p,left,610dd74ebf5c4e1977a3e54e,2021-10-22_16h29.07.144,arrow_simon_punish,2021.1.2,Win32,60.0024001,,,,,,,,,,,,,,p,1,1.454,2.184468299,0,5,13,3,55,0,1,,,,,,,,,,,,,,
,,,,,,,,,,,right.png,,p,left,610dd74ebf5c4e1977a3e54e,2021-10-22_16h29.07.144,arrow_simon_punish,2021.1.2,Win32,60.0024001,,,,,,,,,,,,,,p,1,1.511,2.061796599,0,5,14,0,56,0,1,,,,,,,,,,,,,,
,,,,,,,,,,,left.png,,w,right,610dd74ebf5c4e1977a3e54e,2021-10-22_16h29.07.144,arrow_simon_punish,2021.1.2,Win32,60.0024001,,,,,,,,,,,,,,w,1,1.512,2.331575347,0,5,14,1,57,3,1,,,,,,,,,,,,,,
,,,,,,,,,,,left.png,,w,right,610dd74ebf5c4e1977a3e54e,2021-10-22_16h29.07.144,arrow_simon_punish,2021.1.2,Win32,60.0024001,,,,,,,,,,,,,,p,0,1.651,2.155127191,1,5,14,2,58,3,1,,,,,,,,,,,,,,
,,,,,,,,,,,left.png,,w,right,610dd74ebf5c4e1977a3e54e,2021-10-22_16h29.07.144,arrow_simon_punish,2021.1.2,Win32,60.0024001,,,,,,,,,,,,,,p,0,1.766,2.487853136,1,5,14,3,59,3,1,,,,,,,,,,,,,,
,,,,,,,,,,,,,,,610dd74ebf5c4e1977a3e54e,2021-10-22_16h29.07.144,arrow_simon_punish,2021.1.2,Win32,60.0024001,,,,,,,,,,,,,,,,,,,,,,,,,space,21.714,5,1,1,3,1,1,5,,,,,
,,,,,,,,,,,left.png,,w,left,610dd74ebf5c4e1977a3e54e,2021-10-22_16h29.07.144,arrow_simon_punish,2021.1.2,Win32,60.0024001,,,,,,,,,,,,,,w,1,1.746,2.05267638,1,1,0,0,0,2,1,,,,,,,,,,,,,,
,,,,,,,,,,,right.png,,p,left,610dd74ebf5c4e1977a3e54e,2021-10-22_16h29.07.144,arrow_simon_punish,2021.1.2,Win32,60.0024001,,,,,,,,,,,,,,w,0,1.561,2.187343616,1,1,0,1,1,0,1,,,,,,,,,,,,,,
,,,,,,,,,,,right.png,,p,right,610dd74ebf5c4e1977a3e54e,2021-10-22_16h29.07.144,arrow_simon_punish,2021.1.2,Win32,60.0024001,,,,,,,,,,,,,,p,1,1.506,1.746743739,0,1,0,2,2,1,1,,,,,,,,,,,,,,
,,,,,,,,,,,right.png,,p,right,610dd74ebf5c4e1977a3e54e,2021-10-22_16h29.07.144,arrow_simon_punish,2021.1.2,Win32,60.0024001,,,,,,,,,,,,,,p,1,1.507,1.645885569,0,1,0,3,3,1,1,,,,,,,,,,,,,,
,,,,,,,,,,,right.png,,p,right,610dd74ebf5c4e1977a3e54e,2021-10-22_16h29.07.144,arrow_simon_punish,2021.1.2,Win32,60.0024001,,,,,,,,,,,,,,w,0,1.293,1.945208229,1,1,1,0,4,1,1,,,,,,,,,,,,,,
,,,,,,,,,,,left.png,,w,right,610dd74ebf5c4e1977a3e54e,2021-10-22_16h29.07.144,arrow_simon_punish,2021.1.2,Win32,60.0024001,,,,,,,,,,,,,,w,1,1.427,1.612403896,0,1,1,1,5,3,1,,,,,,,,,,,,,,
,,,,,,,,,,,right.png,,p,left,610dd74ebf5c4e1977a3e54e,2021-10-22_16h29.07.144,arrow_simon_punish,2021.1.2,Win32,60.0024001,,,,,,,,,,,,,,p,1,1.384,1.870223631,1,1,1,2,6,0,1,,,,,,,,,,,,,,
,,,,,,,,,,,right.png,,p,left,610dd74ebf5c4e1977a3e54e,2021-10-22_16h29.07.144,arrow_simon_punish,2021.1.2,Win32,60.0024001,,,,,,,,,,,,,,p,1,1.511,2.433978548,0,1,1,3,7,0,1,,,,,,,,,,,,,,
,,,,,,,,,,,right.png,,p,right,610dd74ebf5c4e1977a3e54e,2021-10-22_16h29.07.144,arrow_simon_punish,2021.1.2,Win32,60.0024001,,,,,,,,,,,,,,p,1,1.328,1.79462648,1,1,2,0,8,1,1,,,,,,,,,,,,,,
,,,,,,,,,,,left.png,,w,right,610dd74ebf5c4e1977a3e54e,2021-10-22_16h29.07.144,arrow_simon_punish,2021.1.2,Win32,60.0024001,,,,,,,,,,,,,,w,1,1.602,2.150244058,1,1,2,1,9,3,1,,,,,,,,,,,,,,
,,,,,,,,,,,right.png,,p,left,610dd74ebf5c4e1977a3e54e,2021-10-22_16h29.07.144,arrow_simon_punish,2021.1.2,Win32,60.0024001,,,,,,,,,,,,,,p,1,1.338,1.508589975,1,1,2,2,10,0,1,,,,,,,,,,,,,,
,,,,,,,,,,,right.png,,p,left,610dd74ebf5c4e1977a3e54e,2021-10-22_16h29.07.144,arrow_simon_punish,2021.1.2,Win32,60.0024001,,,,,,,,,,,,,,p,1,2.794,1.996789128,1,1,2,3,11,0,1,,,,,,,,,,,,,,
,,,,,,,,,,,right.png,,p,right,610dd74ebf5c4e1977a3e54e,2021-10-22_16h29.07.144,arrow_simon_punish,2021.1.2,Win32,60.0024001,,,,,,,,,,,,,,p,1,1.572,1.915372474,0,1,3,0,12,1,1,,,,,,,,,,,,,,
,,,,,,,,,,,left.png,,w,left,610dd74ebf5c4e1977a3e54e,2021-10-22_16h29.07.144,arrow_simon_punish,2021.1.2,Win32,60.0024001,,,,,,,,,,,,,,w,1,1.506,2.206635343,0,1,3,1,13,2,1,,,,,,,,,,,,,,
,,,,,,,,,,,right.png,,p,right,610dd74ebf5c4e1977a3e54e,2021-10-22_16h29.07.144,arrow_simon_punish,2021.1.2,Win32,60.0024001,,,,,,,,,,,,,,p,1,1.84,1.705077679,1,1,3,2,14,1,1,,,,,,,,,,,,,,
,,,,,,,,,,,right.png,,p,right,610dd74ebf5c4e1977a3e54e,2021-10-22_16h29.07.144,arrow_simon_punish,2021.1.2,Win32,60.0024001,,,,,,,,,,,,,,p,1,1.594,1.687492177,0,1,3,3,15,1,1,,,,,,,,,,,,,,
,,,,,,,,,,,right.png,,p,left,610dd74ebf5c4e1977a3e54e,2021-10-22_16h29.07.144,arrow_simon_punish,2021.1.2,Win32,60.0024001,,,,,,,,,,,,,,p,1,1.482,1.989462669,0,1,4,0,16,0,1,,,,,,,,,,,,,,
,,,,,,,,,,,left.png,,w,left,610dd74ebf5c4e1977a3e54e,2021-10-22_16h29.07.144,arrow_simon_punish,2021.1.2,Win32,60.0024001,,,,,,,,,,,,,,w,1,1.393,1.728086784,1,1,4,1,17,2,1,,,,,,,,,,,,,,
,,,,,,,,,,,right.png,,p,left,610dd74ebf5c4e1977a3e54e,2021-10-22_16h29.07.144,arrow_simon_punish,2021.1.2,Win32,60.0024001,,,,,,,,,,,,,,w,0,1.69,2.398705529,1,1,4,2,18,0,1,,,,,,,,,,,,,,
,,,,,,,,,,,left.png,,w,right,610dd74ebf5c4e1977a3e54e,2021-10-22_16h29.07.144,arrow_simon_punish,2021.1.2,Win32,60.0024001,,,,,,,,,,,,,,w,1,1.497,1.73100992,0,1,4,3,19,3,1,,,,,,,,,,,,,,
,,,,,,,,,,,right.png,,p,left,610dd74ebf5c4e1977a3e54e,2021-10-22_16h29.07.144,arrow_simon_punish,2021.1.2,Win32,60.0024001,,,,,,,,,,,,,,p,1,1.623,2.003517013,1,1,5,0,20,0,1,,,,,,,,,,,,,,
,,,,,,,,,,,left.png,,w,left,610dd74ebf5c4e1977a3e54e,2021-10-22_16h29.07.144,arrow_simon_punish,2021.1.2,Win32,60.0024001,,,,,,,,,,,,,,w,1,1.499,1.771060832,0,1,5,1,21,2,1,,,,,,,,,,,,,,
,,,,,,,,,,,right.png,,p,right,610dd74ebf5c4e1977a3e54e,2021-10-22_16h29.07.144,arrow_simon_punish,2021.1.2,Win32,60.0024001,,,,,,,,,,,,,,p,1,1.396,1.546333459,1,1,5,2,22,1,1,,,,,,,,,,,,,,
,,,,,,,,,,,left.png,,w,left,610dd74ebf5c4e1977a3e54e,2021-10-22_16h29.07.144,arrow_simon_punish,2021.1.2,Win32,60.0024001,,,,,,,,,,,,,,w,1,1.528,1.790665432,0,1,5,3,23,2,1,,,,,,,,,,,,,,
,,,,,,,,,,,right.png,,p,right,610dd74ebf5c4e1977a3e54e,2021-10-22_16h29.07.144,arrow_simon_punish,2021.1.2,Win32,60.0024001,,,,,,,,,,,,,,p,1,1.696,2.155408618,1,1,6,0,24,1,1,,,,,,,,,,,,,,
,,,,,,,,,,,left.png,,w,left,610dd74ebf5c4e1977a3e54e,2021-10-22_16h29.07.144,arrow_simon_punish,2021.1.2,Win32,60.0024001,,,,,,,,,,,,,,w,1,1.536,2.019509531,0,1,6,1,25,2,1,,,,,,,,,,,,,,
,,,,,,,,,,,left.png,,w,right,610dd74ebf5c4e1977a3e54e,2021-10-22_16h29.07.144,arrow_simon_punish,2021.1.2,Win32,60.0024001,,,,,,,,,,,,,,w,1,1.697,2.045700995,1,1,6,2,26,3,1,,,,,,,,,,,,,,
,,,,,,,,,,,left.png,,w,left,610dd74ebf5c4e1977a3e54e,2021-10-22_16h29.07.144,arrow_simon_punish,2021.1.2,Win32,60.0024001,,,,,,,,,,,,,,w,1,1.707,2.311340805,1,1,6,3,27,2,1,,,,,,,,,,,,,,
,,,,,,,,,,,right.png,,p,right,610dd74ebf5c4e1977a3e54e,2021-10-22_16h29.07.144,arrow_simon_punish,2021.1.2,Win32,60.0024001,,,,,,,,,,,,,,p,1,1.533,2.047290723,0,1,7,0,28,1,1,,,,,,,,,,,,,,
,,,,,,,,,,,left.png,,w,left,610dd74ebf5c4e1977a3e54e,2021-10-22_16h29.07.144,arrow_simon_punish,2021.1.2,Win32,60.0024001,,,,,,,,,,,,,,w,1,1.657,2.32950364,1,1,7,1,29,2,1,,,,,,,,,,,,,,
,,,,,,,,,,,left.png,,w,left,610dd74ebf5c4e1977a3e54e,2021-10-22_16h29.07.144,arrow_simon_punish,2021.1.2,Win32,60.0024001,,,,,,,,,,,,,,w,1,1.444,1.601429486,0,1,7,2,30,2,1,,,,,,,,,,,,,,
,,,,,,,,,,,left.png,,w,left,610dd74ebf5c4e1977a3e54e,2021-10-22_16h29.07.144,arrow_simon_punish,2021.1.2,Win32,60.0024001,,,,,,,,,,,,,,w,1,1.407,1.555398425,0,1,7,3,31,2,1,,,,,,,,,,,,,,
,,,,,,,,,,,left.png,,w,left,610dd74ebf5c4e1977a3e54e,2021-10-22_16h29.07.144,arrow_simon_punish,2021.1.2,Win32,60.0024001,,,,,,,,,,,,,,w,1,1.16,1.686957159,1,1,8,0,32,2,1,,,,,,,,,,,,,,
,,,,,,,,,,,right.png,,p,left,610dd74ebf5c4e1977a3e54e,2021-10-22_16h29.07.144,arrow_simon_punish,2021.1.2,Win32,60.0024001,,,,,,,,,,,,,,p,1,1.387,1.649642259,1,1,8,1,33,0,1,,,,,,,,,,,,,,
,,,,,,,,,,,right.png,,p,left,610dd74ebf5c4e1977a3e54e,2021-10-22_16h29.07.144,arrow_simon_punish,2021.1.2,Win32,60.0024001,,,,,,,,,,,,,,w,0,1.62,2.316187747,1,1,8,2,34,0,1,,,,,,,,,,,,,,
,,,,,,,,,,,left.png,,w,right,610dd74ebf5c4e1977a3e54e,2021-10-22_16h29.07.144,arrow_simon_punish,2021.1.2,Win32,60.0024001,,,,,,,,,,,,,,w,1,1.645,2.176309009,1,1,8,3,35,3,1,,,,,,,,,,,,,,
,,,,,,,,,,,left.png,,w,left,610dd74ebf5c4e1977a3e54e,2021-10-22_16h29.07.144,arrow_simon_punish,2021.1.2,Win32,60.0024001,,,,,,,,,,,,,,w,1,2.178,2.091897742,1,1,9,0,36,2,1,,,,,,,,,,,,,,
,,,,,,,,,,,left.png,,w,right,610dd74ebf5c4e1977a3e54e,2021-10-22_16h29.07.144,arrow_simon_punish,2021.1.2,Win32,60.0024001,,,,,,,,,,,,,,w,1,1.428,1.93188956,0,1,9,1,37,3,1,,,,,,,,,,,,,,
,,,,,,,,,,,right.png,,p,left,610dd74ebf5c4e1977a3e54e,2021-10-22_16h29.07.144,arrow_simon_punish,2021.1.2,Win32,60.0024001,,,,,,,,,,,,,,w,0,1.613,2.340966273,1,1,9,2,38,0,1,,,,,,,,,,,,,,
,,,,,,,,,,,right.png,,p,right,610dd74ebf5c4e1977a3e54e,2021-10-22_16h29.07.144,arrow_simon_punish,2021.1.2,Win32,60.0024001,,,,,,,,,,,,,,p,1,1.239,1.690039496,1,1,9,3,39,1,1,,,,,,,,,,,,,,
,,,,,,,,,,,left.png,,w,right,610dd74ebf5c4e1977a3e54e,2021-10-22_16h29.07.144,arrow_simon_punish,2021.1.2,Win32,60.0024001,,,,,,,,,,,,,,w,1,1.597,1.87446246,0,1,10,0,40,3,1,,,,,,,,,,,,,,
,,,,,,,,,,,left.png,,w,right,610dd74ebf5c4e1977a3e54e,2021-10-22_16h29.07.144,arrow_simon_punish,2021.1.2,Win32,60.0024001,,,,,,,,,,,,,,w,1,1.462,1.945226175,0,1,10,1,41,3,1,,,,,,,,,,,,,,
,,,,,,,,,,,left.png,,w,right,610dd74ebf5c4e1977a3e54e,2021-10-22_16h29.07.144,arrow_simon_punish,2021.1.2,Win32,60.0024001,,,,,,,,,,,,,,w,1,1.303,1.635334321,1,1,10,2,42,3,1,,,,,,,,,,,,,,
,,,,,,,,,,,left.png,,w,right,610dd74ebf5c4e1977a3e54e,2021-10-22_16h29.07.144,arrow_simon_punish,2021.1.2,Win32,60.0024001,,,,,,,,,,,,,,w,1,1.318,1.549969215,1,1,10,3,43,3,1,,,,,,,,,,,,,,
,,,,,,,,,,,right.png,,p,right,610dd74ebf5c4e1977a3e54e,2021-10-22_16h29.07.144,arrow_simon_punish,2021.1.2,Win32,60.0024001,,,,,,,,,,,,,,p,1,1.871,1.983766015,1,1,11,0,44,1,1,,,,,,,,,,,,,,
,,,,,,,,,,,left.png,,w,right,610dd74ebf5c4e1977a3e54e,2021-10-22_16h29.07.144,arrow_simon_punish,2021.1.2,Win32,60.0024001,,,,,,,,,,,,,,w,1,1.535,2.427741796,0,1,11,1,45,3,1,,,,,,,,,,,,,,
,,,,,,,,,,,right.png,,p,left,610dd74ebf5c4e1977a3e54e,2021-10-22_16h29.07.144,arrow_simon_punish,2021.1.2,Win32,60.0024001,,,,,,,,,,,,,,w,0,1.278,2.229830243,1,1,11,2,46,0,1,,,,,,,,,,,,,,
,,,,,,,,,,,left.png,,w,right,610dd74ebf5c4e1977a3e54e,2021-10-22_16h29.07.144,arrow_simon_punish,2021.1.2,Win32,60.0024001,,,,,,,,,,,,,,p,0,1.651,2.38227151,1,1,11,3,47,3,1,,,,,,,,,,,,,,
,,,,,,,,,,,left.png,,w,right,610dd74ebf5c4e1977a3e54e,2021-10-22_16h29.07.144,arrow_simon_punish,2021.1.2,Win32,60.0024001,,,,,,,,,,,,,,w,1,1.329,1.844704783,1,1,12,0,48,3,1,,,,,,,,,,,,,,
,,,,,,,,,,,right.png,,p,right,610dd74ebf5c4e1977a3e54e,2021-10-22_16h29.07.144,arrow_simon_punish,2021.1.2,Win32,60.0024001,,,,,,,,,,,,,,p,1,1.493,1.912919179,0,1,12,1,49,1,1,,,,,,,,,,,,,,
,,,,,,,,,,,left.png,,w,left,610dd74ebf5c4e1977a3e54e,2021-10-22_16h29.07.144,arrow_simon_punish,2021.1.2,Win32,60.0024001,,,,,,,,,,,,,,w,1,1.029,2.277927411,1,1,12,2,50,2,1,,,,,,,,,,,,,,
,,,,,,,,,,,right.png,,p,left,610dd74ebf5c4e1977a3e54e,2021-10-22_16h29.07.144,arrow_simon_punish,2021.1.2,Win32,60.0024001,,,,,,,,,,,,,,p,1,1.424,1.741483634,0,1,12,3,51,0,1,,,,,,,,,,,,,,
,,,,,,,,,,,left.png,,w,left,610dd74ebf5c4e1977a3e54e,2021-10-22_16h29.07.144,arrow_simon_punish,2021.1.2,Win32,60.0024001,,,,,,,,,,,,,,w,1,1.611,1.839469876,1,1,13,0,52,2,1,,,,,,,,,,,,,,
,,,,,,,,,,,left.png,,w,right,610dd74ebf5c4e1977a3e54e,2021-10-22_16h29.07.144,arrow_simon_punish,2021.1.2,Win32,60.0024001,,,,,,,,,,,,,,w,1,1.662,1.823247095,1,1,13,1,53,3,1,,,,,,,,,,,,,,
,,,,,,,,,,,right.png,,p,left,610dd74ebf5c4e1977a3e54e,2021-10-22_16h29.07.144,arrow_simon_punish,2021.1.2,Win32,60.0024001,,,,,,,,,,,,,,p,1,1.377,1.67468605,1,1,13,2,54,0,1,,,,,,,,,,,,,,
,,,,,,,,,,,right.png,,p,right,610dd74ebf5c4e1977a3e54e,2021-10-22_16h29.07.144,arrow_simon_punish,2021.1.2,Win32,60.0024001,,,,,,,,,,,,,,w,0,1.564,2.29385533,1,1,13,3,55,1,1,,,,,,,,,,,,,,
,,,,,,,,,,,right.png,,p,left,610dd74ebf5c4e1977a3e54e,2021-10-22_16h29.07.144,arrow_simon_punish,2021.1.2,Win32,60.0024001,,,,,,,,,,,,,,p,1,1.721,2.257596683,1,1,14,0,56,0,1,,,,,,,,,,,,,,
,,,,,,,,,,,left.png,,w,right,610dd74ebf5c4e1977a3e54e,2021-10-22_16h29.07.144,arrow_simon_punish,2021.1.2,Win32,60.0024001,,,,,,,,,,,,,,w,1,1.391,1.891370059,1,1,14,1,57,3,1,,,,,,,,,,,,,,
,,,,,,,,,,,left.png,,w,left,610dd74ebf5c4e1977a3e54e,2021-10-22_16h29.07.144,arrow_simon_punish,2021.1.2,Win32,60.0024001,,,,,,,,,,,,,,w,1,1.55,2.367746519,0,1,14,2,58,2,1,,,,,,,,,,,,,,
,,,,,,,,,,,right.png,,p,right,610dd74ebf5c4e1977a3e54e,2021-10-22_16h29.07.144,arrow_simon_punish,2021.1.2,Win32,60.0024001,,,,,,,,,,,,,,w,0,1.628,2.409984859,1,1,14,3,59,1,1,,,,,,,,,,,,,,
,,,,,,,,,,,,,,,610dd74ebf5c4e1977a3e54e,2021-10-22_16h29.07.144,arrow_simon_punish,2021.1.2,Win32,60.0024001,,,,,,,,,,,,,,,,,,,,,,,,,space,16.277,6,2,0,4,0,1,1,,,,,
,,,,,,,,,,,right.png,,p,left,610dd74ebf5c4e1977a3e54e,2021-10-22_16h29.07.144,arrow_simon_punish,2021.1.2,Win32,60.0024001,,,,,,,,,,,,,,w,0,1.278,2.220394726,1,5,0,0,0,0,1,,,,,,,,,,,,,,
,,,,,,,,,,,right.png,,p,left,610dd74ebf5c4e1977a3e54e,2021-10-22_16h29.07.144,arrow_simon_punish,2021.1.2,Win32,60.0024001,,,,,,,,,,,,,,p,1,1.766,2.104144608,1,5,0,1,1,0,1,,,,,,,,,,,,,,
,,,,,,,,,,,right.png,,p,left,610dd74ebf5c4e1977a3e54e,2021-10-22_16h29.07.144,arrow_simon_punish,2021.1.2,Win32,60.0024001,,,,,,,,,,,,,,p,1,1.702,2.104629129,1,5,0,2,2,0,1,,,,,,,,,,,,,,
,,,,,,,,,,,right.png,,p,left,610dd74ebf5c4e1977a3e54e,2021-10-22_16h29.07.144,arrow_simon_punish,2021.1.2,Win32,60.0024001,,,,,,,,,,,,,,p,1,1.585,2.032650259,0,5,0,3,3,0,1,,,,,,,,,,,,,,
,,,,,,,,,,,left.png,,w,left,610dd74ebf5c4e1977a3e54e,2021-10-22_16h29.07.144,arrow_simon_punish,2021.1.2,Win32,60.0024001,,,,,,,,,,,,,,p,0,1.351,2.013042823,1,5,1,0,4,2,1,,,,,,,,,,,,,,
,,,,,,,,,,,right.png,,p,left,610dd74ebf5c4e1977a3e54e,2021-10-22_16h29.07.144,arrow_simon_punish,2021.1.2,Win32,60.0024001,,,,,,,,,,,,,,p,1,1.402,1.607721614,0,5,1,1,5,0,1,,,,,,,,,,,,,,
,,,,,,,,,,,right.png,,p,right,610dd74ebf5c4e1977a3e54e,2021-10-22_16h29.07.144,arrow_simon_punish,2021.1.2,Win32,60.0024001,,,,,,,,,,,,,,p,1,1.588,1.835323097,0,5,1,2,6,1,1,,,,,,,,,,,,,,
,,,,,,,,,,,right.png,,p,left,610dd74ebf5c4e1977a3e54e,2021-10-22_16h29.07.144,arrow_simon_punish,2021.1.2,Win32,60.0024001,,,,,,,,,,,,,,p,1,1.618,1.96162571,1,5,1,3,7,0,1,,,,,,,,,,,,,,
,,,,,,,,,,,right.png,,p,right,610dd74ebf5c4e1977a3e54e,2021-10-22_16h29.07.144,arrow_simon_punish,2021.1.2,Win32,60.0024001,,,,,,,,,,,,,,p,1,1.784,2.356888804,1,5,2,0,8,1,1,,,,,,,,,,,,,,
,,,,,,,,,,,right.png,,p,right,610dd74ebf5c4e1977a3e54e,2021-10-22_16h29.07.144,arrow_simon_punish,2021.1.2,Win32,60.0024001,,,,,,,,,,,,,,p,1,1.486,1.792316762,0,5,2,1,9,1,1,,,,,,,,,,,,,,
,,,,,,,,,,,left.png,,w,left,610dd74ebf5c4e1977a3e54e,2021-10-22_16h29.07.144,arrow_simon_punish,2021.1.2,Win32,60.0024001,,,,,,,,,,,,,,w,1,1.546,1.951594859,0,5,2,2,10,2,1,,,,,,,,,,,,,,
,,,,,,,,,,,left.png,,w,right,610dd74ebf5c4e1977a3e54e,2021-10-22_16h29.07.144,arrow_simon_punish,2021.1.2,Win32,60.0024001,,,,,,,,,,,,,,p,0,1.757,2.407618965,1,5,2,3,11,3,1,,,,,,,,,,,,,,
,,,,,,,,,,,left.png,,w,right,610dd74ebf5c4e1977a3e54e,2021-10-22_16h29.07.144,arrow_simon_punish,2021.1.2,Win32,60.0024001,,,,,,,,,,,,,,w,1,1.701,2.099395135,1,5,3,0,12,3,1,,,,,,,,,,,,,,
,,,,,,,,,,,right.png,,p,right,610dd74ebf5c4e1977a3e54e,2021-10-22_16h29.07.144,arrow_simon_punish,2021.1.2,Win32,60.0024001,,,,,,,,,,,,,,p,1,1.669,2.28259088,1,5,3,1,13,1,1,,,,,,,,,,,,,,
,,,,,,,,,,,left.png,,w,right,610dd74ebf5c4e1977a3e54e,2021-10-22_16h29.07.144,arrow_simon_punish,2021.1.2,Win32,60.0024001,,,,,,,,,,,,,,w,1,1.437,1.889075103,0,5,3,2,14,3,1,,,,,,,,,,,,,,
,,,,,,,,,,,left.png,,w,right,610dd74ebf5c4e1977a3e54e,2021-10-22_16h29.07.144,arrow_simon_punish,2021.1.2,Win32,60.0024001,,,,,,,,,,,,,,w,1,1.293,1.505920205,1,5,3,3,15,3,1,,,,,,,,,,,,,,
,,,,,,,,,,,right.png,,p,right,610dd74ebf5c4e1977a3e54e,2021-10-22_16h29.07.144,arrow_simon_punish,2021.1.2,Win32,60.0024001,,,,,,,,,,,,,,w,0,1.528,2.346566401,1,5,4,0,16,1,1,,,,,,,,,,,,,,
,,,,,,,,,,,right.png,,p,right,610dd74ebf5c4e1977a3e54e,2021-10-22_16h29.07.144,arrow_simon_punish,2021.1.2,Win32,60.0024001,,,,,,,,,,,,,,p,1,1.674,2.013547851,1,5,4,1,17,1,1,,,,,,,,,,,,,,
,,,,,,,,,,,right.png,,p,left,610dd74ebf5c4e1977a3e54e,2021-10-22_16h29.07.144,arrow_simon_punish,2021.1.2,Win32,60.0024001,,,,,,,,,,,,,,p,1,1.59,2.486644611,0,5,4,2,18,0,1,,,,,,,,,,,,,,
,,,,,,,,,,,right.png,,p,left,610dd74ebf5c4e1977a3e54e,2021-10-22_16h29.07.144,arrow_simon_punish,2021.1.2,Win32,60.0024001,,,,,,,,,,,,,,p,1,1.369,1.521391003,1,5,4,3,19,0,1,,,,,,,,,,,,,,
,,,,,,,,,,,right.png,,p,left,610dd74ebf5c4e1977a3e54e,2021-10-22_16h29.07.144,arrow_simon_punish,2021.1.2,Win32,60.0024001,,,,,,,,,,,,,,p,1,1.584,2.393220634,0,5,5,0,20,0,1,,,,,,,,,,,,,,
,,,,,,,,,,,left.png,,w,left,610dd74ebf5c4e1977a3e54e,2021-10-22_16h29.07.144,arrow_simon_punish,2021.1.2,Win32,60.0024001,,,,,,,,,,,,,,w,1,1.623,1.999162648,1,5,5,1,21,2,1,,,,,,,,,,,,,,
,,,,,,,,,,,right.png,,p,right,610dd74ebf5c4e1977a3e54e,2021-10-22_16h29.07.144,arrow_simon_punish,2021.1.2,Win32,60.0024001,,,,,,,,,,,,,,p,1,1.433,1.750189521,0,5,5,2,22,1,1,,,,,,,,,,,,,,
,,,,,,,,,,,right.png,,p,right,610dd74ebf5c4e1977a3e54e,2021-10-22_16h29.07.144,arrow_simon_punish,2021.1.2,Win32,60.0024001,,,,,,,,,,,,,,p,1,1.438,1.573150771,0,5,5,3,23,1,1,,,,,,,,,,,,,,
,,,,,,,,,,,right.png,,p,left,610dd74ebf5c4e1977a3e54e,2021-10-22_16h29.07.144,arrow_simon_punish,2021.1.2,Win32,60.0024001,,,,,,,,,,,,,,p,1,1.678,2.040870084,1,5,6,0,24,0,1,,,,,,,,,,,,,,
,,,,,,,,,,,left.png,,w,right,610dd74ebf5c4e1977a3e54e,2021-10-22_16h29.07.144,arrow_simon_punish,2021.1.2,Win32,60.0024001,,,,,,,,,,,,,,p,0,1.578,2.321372347,1,5,6,1,25,3,1,,,,,,,,,,,,,,
,,,,,,,,,,,left.png,,w,left,610dd74ebf5c4e1977a3e54e,2021-10-22_16h29.07.144,arrow_simon_punish,2021.1.2,Win32,60.0024001,,,,,,,,,,,,,,w,1,1.774,2.17193189,1,5,6,2,26,2,1,,,,,,,,,,,,,,
,,,,,,,,,,,right.png,,p,left,610dd74ebf5c4e1977a3e54e,2021-10-22_16h29.07.144,arrow_simon_punish,2021.1.2,Win32,60.0024001,,,,,,,,,,,,,,w,0,1.677,2.25273984,1,5,6,3,27,0,1,,,,,,,,,,,,,,
,,,,,,,,,,,left.png,,w,right,610dd74ebf5c4e1977a3e54e,2021-10-22_16h29.07.144,arrow_simon_punish,2021.1.2,Win32,60.0024001,,,,,,,,,,,,,,p,0,1.228,1.701832344,1,5,7,0,28,3,1,,,,,,,,,,,,,,
,,,,,,,,,,,left.png,,w,left,610dd74ebf5c4e1977a3e54e,2021-10-22_16h29.07.144,arrow_simon_punish,2021.1.2,Win32,60.0024001,,,,,,,,,,,,,,p,0,1.732,2.184892315,1,5,7,1,29,2,1,,,,,,,,,,,,,,
,,,,,,,,,,,left.png,,w,right,610dd74ebf5c4e1977a3e54e,2021-10-22_16h29.07.144,arrow_simon_punish,2021.1.2,Win32,60.0024001,,,,,,,,,,,,,,w,1,1.726,2.010733602,1,5,7,2,30,3,1,,,,,,,,,,,,,,
,,,,,,,,,,,right.png,,p,left,610dd74ebf5c4e1977a3e54e,2021-10-22_16h29.07.144,arrow_simon_punish,2021.1.2,Win32,60.0024001,,,,,,,,,,,,,,p,1,1.703,2.037785532,1,5,7,3,31,0,1,,,,,,,,,,,,,,
,,,,,,,,,,,right.png,,p,left,610dd74ebf5c4e1977a3e54e,2021-10-22_16h29.07.144,arrow_simon_punish,2021.1.2,Win32,60.0024001,,,,,,,,,,,,,,p,1,1.395,1.641797102,1,5,8,0,32,0,1,,,,,,,,,,,,,,
,,,,,,,,,,,left.png,,w,right,610dd74ebf5c4e1977a3e54e,2021-10-22_16h29.07.144,arrow_simon_punish,2021.1.2,Win32,60.0024001,,,,,,,,,,,,,,w,1,1.555,2.246385633,0,5,8,1,33,3,1,,,,,,,,,,,,,,
,,,,,,,,,,,right.png,,p,right,610dd74ebf5c4e1977a3e54e,2021-10-22_16h29.07.144,arrow_simon_punish,2021.1.2,Win32,60.0024001,,,,,,,,,,,,,,p,1,1.722,2.441464332,1,5,8,2,34,1,1,,,,,,,,,,,,,,
,,,,,,,,,,,left.png,,w,left,610dd74ebf5c4e1977a3e54e,2021-10-22_16h29.07.144,arrow_simon_punish,2021.1.2,Win32,60.0024001,,,,,,,,,,,,,,w,1,1.772,2.443940219,1,5,8,3,35,2,1,,,,,,,,,,,,,,
,,,,,,,,,,,right.png,,p,right,610dd74ebf5c4e1977a3e54e,2021-10-22_16h29.07.144,arrow_simon_punish,2021.1.2,Win32,60.0024001,,,,,,,,,,,,,,p,1,1.604,2.19003536,1,5,9,0,36,1,1,,,,,,,,,,,,,,
,,,,,,,,,,,right.png,,p,left,610dd74ebf5c4e1977a3e54e,2021-10-22_16h29.07.144,arrow_simon_punish,2021.1.2,Win32,60.0024001,,,,,,,,,,,,,,p,1,1.619,2.013254306,1,5,9,1,37,0,1,,,,,,,,,,,,,,
,,,,,,,,,,,left.png,,w,right,610dd74ebf5c4e1977a3e54e,2021-10-22_16h29.07.144,arrow_simon_punish,2021.1.2,Win32,60.0024001,,,,,,,,,,,,,,w,1,1.563,1.601380207,0,5,9,2,38,3,1,,,,,,,,,,,,,,
,,,,,,,,,,,left.png,,w,right,610dd74ebf5c4e1977a3e54e,2021-10-22_16h29.07.144,arrow_simon_punish,2021.1.2,Win32,60.0024001,,,,,,,,,,,,,,w,1,1.752,2.190110945,1,5,9,3,39,3,1,,,,,,,,,,,,,,
,,,,,,,,,,,left.png,,w,right,610dd74ebf5c4e1977a3e54e,2021-10-22_16h29.07.144,arrow_simon_punish,2021.1.2,Win32,60.0024001,,,,,,,,,,,,,,w,1,1.653,1.924179564,1,5,10,0,40,3,1,,,,,,,,,,,,,,
,,,,,,,,,,,left.png,,w,left,610dd74ebf5c4e1977a3e54e,2021-10-22_16h29.07.144,arrow_simon_punish,2021.1.2,Win32,60.0024001,,,,,,,,,,,,,,w,1,1.556,1.677967475,0,5,10,1,41,2,1,,,,,,,,,,,,,,
,,,,,,,,,,,left.png,,w,left,610dd74ebf5c4e1977a3e54e,2021-10-22_16h29.07.144,arrow_simon_punish,2021.1.2,Win32,60.0024001,,,,,,,,,,,,,,w,1,1.563,1.550395966,0,5,10,2,42,2,1,,,,,,,,,,,,,,
,,,,,,,,,,,left.png,,w,right,610dd74ebf5c4e1977a3e54e,2021-10-22_16h29.07.144,arrow_simon_punish,2021.1.2,Win32,60.0024001,,,,,,,,,,,,,,w,1,1.471,1.624779016,0,5,10,3,43,3,1,,,,,,,,,,,,,,
,,,,,,,,,,,left.png,,w,left,610dd74ebf5c4e1977a3e54e,2021-10-22_16h29.07.144,arrow_simon_punish,2021.1.2,Win32,60.0024001,,,,,,,,,,,,,,w,1,1.252,1.641928767,1,5,11,0,44,2,1,,,,,,,,,,,,,,
,,,,,,,,,,,left.png,,w,left,610dd74ebf5c4e1977a3e54e,2021-10-22_16h29.07.144,arrow_simon_punish,2021.1.2,Win32,60.0024001,,,,,,,,,,,,,,w,1,1.601,1.627657909,1,5,11,1,45,2,1,,,,,,,,,,,,,,
,,,,,,,,,,,left.png,,w,left,610dd74ebf5c4e1977a3e54e,2021-10-22_16h29.07.144,arrow_simon_punish,2021.1.2,Win32,60.0024001,,,,,,,,,,,,,,w,1,1.661,2.28262703,1,5,11,2,46,2,1,,,,,,,,,,,,,,
,,,,,,,,,,,right.png,,p,right,610dd74ebf5c4e1977a3e54e,2021-10-22_16h29.07.144,arrow_simon_punish,2021.1.2,Win32,60.0024001,,,,,,,,,,,,,,p,1,1.603,1.88345258,1,5,11,3,47,1,1,,,,,,,,,,,,,,
,,,,,,,,,,,left.png,,w,left,610dd74ebf5c4e1977a3e54e,2021-10-22_16h29.07.144,arrow_simon_punish,2021.1.2,Win32,60.0024001,,,,,,,,,,,,,,w,1,1.588,1.731562486,0,5,12,0,48,2,1,,,,,,,,,,,,,,
,,,,,,,,,,,left.png,,w,right,610dd74ebf5c4e1977a3e54e,2021-10-22_16h29.07.144,arrow_simon_punish,2021.1.2,Win32,60.0024001,,,,,,,,,,,,,,w,1,1.538,1.858687824,0,5,12,1,49,3,1,,,,,,,,,,,,,,
,,,,,,,,,,,right.png,,p,left,610dd74ebf5c4e1977a3e54e,2021-10-22_16h29.07.144,arrow_simon_punish,2021.1.2,Win32,60.0024001,,,,,,,,,,,,,,p,1,1.53,1.613854808,0,5,12,2,50,0,1,,,,,,,,,,,,,,
,,,,,,,,,,,left.png,,w,left,610dd74ebf5c4e1977a3e54e,2021-10-22_16h29.07.144,arrow_simon_punish,2021.1.2,Win32,60.0024001,,,,,,,,,,,,,,w,1,1.764,2.236600175,1,5,12,3,51,2,1,,,,,,,,,,,,,,
,,,,,,,,,,,right.png,,p,right,610dd74ebf5c4e1977a3e54e,2021-10-22_16h29.07.144,arrow_simon_punish,2021.1.2,Win32,60.0024001,,,,,,,,,,,,,,p,1,2.122,2.3411887,1,5,13,0,52,1,1,,,,,,,,,,,,,,
,,,,,,,,,,,right.png,,p,right,610dd74ebf5c4e1977a3e54e,2021-10-22_16h29.07.144,arrow_simon_punish,2021.1.2,Win32,60.0024001,,,,,,,,,,,,,,w,0,1.688,2.421701394,1,5,13,1,53,1,1,,,,,,,,,,,,,,
,,,,,,,,,,,right.png,,p,right,610dd74ebf5c4e1977a3e54e,2021-10-22_16h29.07.144,arrow_simon_punish,2021.1.2,Win32,60.0024001,,,,,,,,,,,,,,p,1,1.311,1.954932364,1,5,13,2,54,1,1,,,,,,,,,,,,,,
,,,,,,,,,,,left.png,,w,right,610dd74ebf5c4e1977a3e54e,2021-10-22_16h29.07.144,arrow_simon_punish,2021.1.2,Win32,60.0024001,,,,,,,,,,,,,,p,0,1.686,2.339486108,1,5,13,3,55,3,1,,,,,,,,,,,,,,
,,,,,,,,,,,left.png,,w,left,610dd74ebf5c4e1977a3e54e,2021-10-22_16h29.07.144,arrow_simon_punish,2021.1.2,Win32,60.0024001,,,,,,,,,,,,,,w,1,1.929,2.475074971,1,5,14,0,56,2,1,,,,,,,,,,,,,,
,,,,,,,,,,,left.png,,w,right,610dd74ebf5c4e1977a3e54e,2021-10-22_16h29.07.144,arrow_simon_punish,2021.1.2,Win32,60.0024001,,,,,,,,,,,,,,w,1,1.253,1.659663601,1,5,14,1,57,3,1,,,,,,,,,,,,,,
,,,,,,,,,,,left.png,,w,left,610dd74ebf5c4e1977a3e54e,2021-10-22_16h29.07.144,arrow_simon_punish,2021.1.2,Win32,60.0024001,,,,,,,,,,,,,,w,1,1.423,1.503356437,0,5,14,2,58,2,1,,,,,,,,,,,,,,
,,,,,,,,,,,right.png,,p,right,610dd74ebf5c4e1977a3e54e,2021-10-22_16h29.07.144,arrow_simon_punish,2021.1.2,Win32,60.0024001,,,,,,,,,,,,,,p,1,1.762,1.817725977,1,5,14,3,59,1,1,,,,,,,,,,,,,,
,,,,,,,,,,,,,,,610dd74ebf5c4e1977a3e54e,2021-10-22_16h29.07.144,arrow_simon_punish,2021.1.2,Win32,60.0024001,,,,,,,,,,,,,,,,,,,,,,,,,space,25.4,7,2,1,5,1,1,5,,,,,
,,,,,,,,,,,left.png,,w,left,610dd74ebf5c4e1977a3e54e,2021-10-22_16h29.07.144,arrow_simon_punish,2021.1.2,Win32,60.0024001,,,,,,,,,,,,,,w,1,1.72,1.824176931,1,1,0,0,0,2,1,,,,,,,,,,,,,,
,,,,,,,,,,,right.png,,p,right,610dd74ebf5c4e1977a3e54e,2021-10-22_16h29.07.144,arrow_simon_punish,2021.1.2,Win32,60.0024001,,,,,,,,,,,,,,p,1,1.465,1.71106712,0,1,0,1,1,1,1,,,,,,,,,,,,,,
,,,,,,,,,,,right.png,,p,right,610dd74ebf5c4e1977a3e54e,2021-10-22_16h29.07.144,arrow_simon_punish,2021.1.2,Win32,60.0024001,,,,,,,,,,,,,,p,1,1.631,1.921034709,1,1,0,2,2,1,1,,,,,,,,,,,,,,
,,,,,,,,,,,left.png,,w,right,610dd74ebf5c4e1977a3e54e,2021-10-22_16h29.07.144,arrow_simon_punish,2021.1.2,Win32,60.0024001,,,,,,,,,,,,,,w,1,1.655,2.355028905,1,1,0,3,3,3,1,,,,,,,,,,,,,,
,,,,,,,,,,,right.png,,p,right,610dd74ebf5c4e1977a3e54e,2021-10-22_16h29.07.144,arrow_simon_punish,2021.1.2,Win32,60.0024001,,,,,,,,,,,,,,w,0,1.689,2.424074434,1,1,1,0,4,1,1,,,,,,,,,,,,,,
,,,,,,,,,,,left.png,,w,right,610dd74ebf5c4e1977a3e54e,2021-10-22_16h29.07.144,arrow_simon_punish,2021.1.2,Win32,60.0024001,,,,,,,,,,,,,,w,1,1.528,1.561740834,0,1,1,1,5,3,1,,,,,,,,,,,,,,
,,,,,,,,,,,right.png,,p,left,610dd74ebf5c4e1977a3e54e,2021-10-22_16h29.07.144,arrow_simon_punish,2021.1.2,Win32,60.0024001,,,,,,,,,,,,,,p,1,1.664,1.894709981,1,1,1,2,6,0,1,,,,,,,,,,,,,,
,,,,,,,,,,,right.png,,p,left,610dd74ebf5c4e1977a3e54e,2021-10-22_16h29.07.144,arrow_simon_punish,2021.1.2,Win32,60.0024001,,,,,,,,,,,,,,p,1,1.321,1.507559144,1,1,1,3,7,0,1,,,,,,,,,,,,,,
,,,,,,,,,,,left.png,,w,left,610dd74ebf5c4e1977a3e54e,2021-10-22_16h29.07.144,arrow_simon_punish,2021.1.2,Win32,60.0024001,,,,,,,,,,,,,,w,1,1.587,1.890344316,0,1,2,0,8,2,1,,,,,,,,,,,,,,
,,,,,,,,,,,left.png,,w,right,610dd74ebf5c4e1977a3e54e,2021-10-22_16h29.07.144,arrow_simon_punish,2021.1.2,Win32,60.0024001,,,,,,,,,,,,,,w,1,1.788,1.765189826,1,1,2,1,9,3,1,,,,,,,,,,,,,,
,,,,,,,,,,,right.png,,p,right,610dd74ebf5c4e1977a3e54e,2021-10-22_16h29.07.144,arrow_simon_punish,2021.1.2,Win32,60.0024001,,,,,,,,,,,,,,p,1,1.719,2.02491043,1,1,2,2,10,1,1,,,,,,,,,,,,,,
,,,,,,,,,,,right.png,,p,left,610dd74ebf5c4e1977a3e54e,2021-10-22_16h29.07.144,arrow_simon_punish,2021.1.2,Win32,60.0024001,,,,,,,,,,,,,,p,1,1.711,2.485866456,1,1,2,3,11,0,1,,,,,,,,,,,,,,
,,,,,,,,,,,right.png,,p,left,610dd74ebf5c4e1977a3e54e,2021-10-22_16h29.07.144,arrow_simon_punish,2021.1.2,Win32,60.0024001,,,,,,,,,,,,,,p,1,1.725,2.007473662,1,1,3,0,12,0,1,,,,,,,,,,,,,,
,,,,,,,,,,,right.png,,p,left,610dd74ebf5c4e1977a3e54e,2021-10-22_16h29.07.144,arrow_simon_punish,2021.1.2,Win32,60.0024001,,,,,,,,,,,,,,p,1,1.569,2.366211529,0,1,3,1,13,0,1,,,,,,,,,,,,,,
,,,,,,,,,,,right.png,,p,left,610dd74ebf5c4e1977a3e54e,2021-10-22_16h29.07.144,arrow_simon_punish,2021.1.2,Win32,60.0024001,,,,,,,,,,,,,,p,1,1.303,2.288046418,1,1,3,2,14,0,1,,,,,,,,,,,,,,
,,,,,,,,,,,left.png,,w,right,610dd74ebf5c4e1977a3e54e,2021-10-22_16h29.07.144,arrow_simon_punish,2021.1.2,Win32,60.0024001,,,,,,,,,,,,,,p,0,1.599,2.435639829,1,1,3,3,15,3,1,,,,,,,,,,,,,,
,,,,,,,,,,,right.png,,p,right,610dd74ebf5c4e1977a3e54e,2021-10-22_16h29.07.144,arrow_simon_punish,2021.1.2,Win32,60.0024001,,,,,,,,,,,,,,p,1,1.571,1.625911432,0,1,4,0,16,1,1,,,,,,,,,,,,,,
,,,,,,,,,,,right.png,,p,right,610dd74ebf5c4e1977a3e54e,2021-10-22_16h29.07.144,arrow_simon_punish,2021.1.2,Win32,60.0024001,,,,,,,,,,,,,,p,1,1.557,2.336488801,0,1,4,1,17,1,1,,,,,,,,,,,,,,
,,,,,,,,,,,right.png,,p,left,610dd74ebf5c4e1977a3e54e,2021-10-22_16h29.07.144,arrow_simon_punish,2021.1.2,Win32,60.0024001,,,,,,,,,,,,,,w,0,1.52,2.129985221,1,1,4,2,18,0,1,,,,,,,,,,,,,,
,,,,,,,,,,,left.png,,w,left,610dd74ebf5c4e1977a3e54e,2021-10-22_16h29.07.144,arrow_simon_punish,2021.1.2,Win32,60.0024001,,,,,,,,,,,,,,w,1,1.72,2.008387583,1,1,4,3,19,2,1,,,,,,,,,,,,,,
,,,,,,,,,,,left.png,,w,left,610dd74ebf5c4e1977a3e54e,2021-10-22_16h29.07.144,arrow_simon_punish,2021.1.2,Win32,60.0024001,,,,,,,,,,,,,,w,1,1.565,1.596204677,0,1,5,0,20,2,1,,,,,,,,,,,,,,
,,,,,,,,,,,left.png,,w,left,610dd74ebf5c4e1977a3e54e,2021-10-22_16h29.07.144,arrow_simon_punish,2021.1.2,Win32,60.0024001,,,,,,,,,,,,,,w,1,1.669,2.022452524,1,1,5,1,21,2,1,,,,,,,,,,,,,,
,,,,,,,,,,,left.png,,w,left,610dd74ebf5c4e1977a3e54e,2021-10-22_16h29.07.144,arrow_simon_punish,2021.1.2,Win32,60.0024001,,,,,,,,,,,,,,w,1,1.685,2.139922916,1,1,5,2,22,2,1,,,,,,,,,,,,,,
,,,,,,,,,,,left.png,,w,right,610dd74ebf5c4e1977a3e54e,2021-10-22_16h29.07.144,arrow_simon_punish,2021.1.2,Win32,60.0024001,,,,,,,,,,,,,,w,1,1.531,2.435118183,0,1,5,3,23,3,1,,,,,,,,,,,,,,
,,,,,,,,,,,left.png,,w,right,610dd74ebf5c4e1977a3e54e,2021-10-22_16h29.07.144,arrow_simon_punish,2021.1.2,Win32,60.0024001,,,,,,,,,,,,,,w,1,1.486,2.346056071,0,1,6,0,24,3,1,,,,,,,,,,,,,,
,,,,,,,,,,,right.png,,p,left,610dd74ebf5c4e1977a3e54e,2021-10-22_16h29.07.144,arrow_simon_punish,2021.1.2,Win32,60.0024001,,,,,,,,,,,,,,p,1,1.391,1.697786247,1,1,6,1,25,0,1,,,,,,,,,,,,,,
,,,,,,,,,,,left.png,,w,right,610dd74ebf5c4e1977a3e54e,2021-10-22_16h29.07.144,arrow_simon_punish,2021.1.2,Win32,60.0024001,,,,,,,,,,,,,,w,1,1.735,2.288699521,1,1,6,2,26,3,1,,,,,,,,,,,,,,
,,,,,,,,,,,right.png,,p,right,610dd74ebf5c4e1977a3e54e,2021-10-22_16h29.07.144,arrow_simon_punish,2021.1.2,Win32,60.0024001,,,,,,,,,,,,,,p,1,1.328,1.558280252,1,1,6,3,27,1,1,,,,,,,,,,,,,,
,,,,,,,,,,,left.png,,w,right,610dd74ebf5c4e1977a3e54e,2021-10-22_16h29.07.144,arrow_simon_punish,2021.1.2,Win32,60.0024001,,,,,,,,,,,,,,p,0,1.555,2.220030774,1,1,7,0,28,3,1,,,,,,,,,,,,,,
,,,,,,,,,,,right.png,,p,right,610dd74ebf5c4e1977a3e54e,2021-10-22_16h29.07.144,arrow_simon_punish,2021.1.2,Win32,60.0024001,,,,,,,,,,,,,,p,1,1.36,1.543558923,1,1,7,1,29,1,1,,,,,,,,,,,,,,
,,,,,,,,,,,left.png,,w,left,610dd74ebf5c4e1977a3e54e,2021-10-22_16h29.07.144,arrow_simon_punish,2021.1.2,Win32,60.0024001,,,,,,,,,,,,,,w,1,1.522,2.161046833,0,1,7,2,30,2,1,,,,,,,,,,,,,,
,,,,,,,,,,,right.png,,p,right,610dd74ebf5c4e1977a3e54e,2021-10-22_16h29.07.144,arrow_simon_punish,2021.1.2,Win32,60.0024001,,,,,,,,,,,,,,p,1,1.316,1.890119265,1,1,7,3,31,1,1,,,,,,,,,,,,,,
,,,,,,,,,,,right.png,,p,left,610dd74ebf5c4e1977a3e54e,2021-10-22_16h29.07.144,arrow_simon_punish,2021.1.2,Win32,60.0024001,,,,,,,,,,,,,,p,1,1.534,1.654374275,0,1,8,0,32,0,1,,,,,,,,,,,,,,
,,,,,,,,,,,left.png,,w,left,610dd74ebf5c4e1977a3e54e,2021-10-22_16h29.07.144,arrow_simon_punish,2021.1.2,Win32,60.0024001,,,,,,,,,,,,,,w,1,1.704,1.922295829,1,1,8,1,33,2,1,,,,,,,,,,,,,,
,,,,,,,,,,,right.png,,p,right,610dd74ebf5c4e1977a3e54e,2021-10-22_16h29.07.144,arrow_simon_punish,2021.1.2,Win32,60.0024001,,,,,,,,,,,,,,p,1,1.51,1.832779617,0,1,8,2,34,1,1,,,,,,,,,,,,,,
,,,,,,,,,,,right.png,,p,left,610dd74ebf5c4e1977a3e54e,2021-10-22_16h29.07.144,arrow_simon_punish,2021.1.2,Win32,60.0024001,,,,,,,,,,,,,,p,1,1.436,1.634988603,0,1,8,3,35,0,1,,,,,,,,,,,,,,
,,,,,,,,,,,left.png,,w,right,610dd74ebf5c4e1977a3e54e,2021-10-22_16h29.07.144,arrow_simon_punish,2021.1.2,Win32,60.0024001,,,,,,,,,,,,,,p,0,1.569,2.378106769,1,1,9,0,36,3,1,,,,,,,,,,,,,,
,,,,,,,,,,,right.png,,p,right,610dd74ebf5c4e1977a3e54e,2021-10-22_16h29.07.144,arrow_simon_punish,2021.1.2,Win32,60.0024001,,,,,,,,,,,,,,p,1,1.435,1.608091404,0,1,9,1,37,1,1,,,,,,,,,,,,,,
,,,,,,,,,,,right.png,,p,right,610dd74ebf5c4e1977a3e54e,2021-10-22_16h29.07.144,arrow_simon_punish,2021.1.2,Win32,60.0024001,,,,,,,,,,,,,,p,1,1.458,1.749448944,0,1,9,2,38,1,1,,,,,,,,,,,,,,
,,,,,,,,,,,right.png,,p,left,610dd74ebf5c4e1977a3e54e,2021-10-22_16h29.07.144,arrow_simon_punish,2021.1.2,Win32,60.0024001,,,,,,,,,,,,,,p,1,1.845,2.084229311,1,1,9,3,39,0,1,,,,,,,,,,,,,,
,,,,,,,,,,,left.png,,w,right,610dd74ebf5c4e1977a3e54e,2021-10-22_16h29.07.144,arrow_simon_punish,2021.1.2,Win32,60.0024001,,,,,,,,,,,,,,w,1,1.731,1.800434683,1,1,10,0,40,3,1,,,,,,,,,,,,,,
,,,,,,,,,,,right.png,,p,right,610dd74ebf5c4e1977a3e54e,2021-10-22_16h29.07.144,arrow_simon_punish,2021.1.2,Win32,60.0024001,,,,,,,,,,,,,,w,0,1.445,2.408634549,1,1,10,1,41,1,1,,,,,,,,,,,,,,
,,,,,,,,,,,left.png,,w,left,610dd74ebf5c4e1977a3e54e,2021-10-22_16h29.07.144,arrow_simon_punish,2021.1.2,Win32,60.0024001,,,,,,,,,,,,,,w,1,1.555,1.987434786,0,1,10,2,42,2,1,,,,,,,,,,,,,,
,,,,,,,,,,,right.png,,p,right,610dd74ebf5c4e1977a3e54e,2021-10-22_16h29.07.144,arrow_simon_punish,2021.1.2,Win32,60.0024001,,,,,,,,,,,,,,p,1,1.571,2.169701084,0,1,10,3,43,1,1,,,,,,,,,,,,,,
,,,,,,,,,,,left.png,,w,right,610dd74ebf5c4e1977a3e54e,2021-10-22_16h29.07.144,arrow_simon_punish,2021.1.2,Win32,60.0024001,,,,,,,,,,,,,,w,1,1.497,1.954302076,0,1,11,0,44,3,1,,,,,,,,,,,,,,
,,,,,,,,,,,left.png,,w,right,610dd74ebf5c4e1977a3e54e,2021-10-22_16h29.07.144,arrow_simon_punish,2021.1.2,Win32,60.0024001,,,,,,,,,,,,,,w,1,1.456,1.774154806,0,1,11,1,45,3,1,,,,,,,,,,,,,,
,,,,,,,,,,,left.png,,w,left,610dd74ebf5c4e1977a3e54e,2021-10-22_16h29.07.144,arrow_simon_punish,2021.1.2,Win32,60.0024001,,,,,,,,,,,,,,w,1,1.478,1.649231636,0,1,11,2,46,2,1,,,,,,,,,,,,,,
,,,,,,,,,,,left.png,,w,left,610dd74ebf5c4e1977a3e54e,2021-10-22_16h29.07.144,arrow_simon_punish,2021.1.2,Win32,60.0024001,,,,,,,,,,,,,,w,1,1.358,1.545916378,1,1,11,3,47,2,1,,,,,,,,,,,,,,
,,,,,,,,,,,right.png,,p,right,610dd74ebf5c4e1977a3e54e,2021-10-22_16h29.07.144,arrow_simon_punish,2021.1.2,Win32,60.0024001,,,,,,,,,,,,,,p,1,1.455,1.778318232,0,1,12,0,48,1,1,,,,,,,,,,,,,,
,,,,,,,,,,,right.png,,p,left,610dd74ebf5c4e1977a3e54e,2021-10-22_16h29.07.144,arrow_simon_punish,2021.1.2,Win32,60.0024001,,,,,,,,,,,,,,w,0,1.607,2.190642249,1,1,12,1,49,0,1,,,,,,,,,,,,,,
,,,,,,,,,,,right.png,,p,left,610dd74ebf5c4e1977a3e54e,2021-10-22_16h29.07.144,arrow_simon_punish,2021.1.2,Win32,60.0024001,,,,,,,,,,,,,,p,1,1.435,1.621025126,0,1,12,2,50,0,1,,,,,,,,,,,,,,
,,,,,,,,,,,left.png,,w,right,610dd74ebf5c4e1977a3e54e,2021-10-22_16h29.07.144,arrow_simon_punish,2021.1.2,Win32,60.0024001,,,,,,,,,,,,,,w,1,1.517,1.993568624,0,1,12,3,51,3,1,,,,,,,,,,,,,,
,,,,,,,,,,,right.png,,p,left,610dd74ebf5c4e1977a3e54e,2021-10-22_16h29.07.144,arrow_simon_punish,2021.1.2,Win32,60.0024001,,,,,,,,,,,,,,w,0,1.804,2.465817449,1,1,13,0,52,0,1,,,,,,,,,,,,,,
,,,,,,,,,,,left.png,,w,right,610dd74ebf5c4e1977a3e54e,2021-10-22_16h29.07.144,arrow_simon_punish,2021.1.2,Win32,60.0024001,,,,,,,,,,,,,,w,1,1.985,2.184162772,1,1,13,1,53,3,1,,,,,,,,,,,,,,
,,,,,,,,,,,left.png,,w,left,610dd74ebf5c4e1977a3e54e,2021-10-22_16h29.07.144,arrow_simon_punish,2021.1.2,Win32,60.0024001,,,,,,,,,,,,,,w,1,1.426,2.456508655,0,1,13,2,54,2,1,,,,,,,,,,,,,,
,,,,,,,,,,,left.png,,w,left,610dd74ebf5c4e1977a3e54e,2021-10-22_16h29.07.144,arrow_simon_punish,2021.1.2,Win32,60.0024001,,,,,,,,,,,,,,w,1,1.682,2.347003847,1,1,13,3,55,2,1,,,,,,,,,,,,,,
,,,,,,,,,,,left.png,,w,left,610dd74ebf5c4e1977a3e54e,2021-10-22_16h29.07.144,arrow_simon_punish,2021.1.2,Win32,60.0024001,,,,,,,,,,,,,,w,1,1.288,2.171623077,1,1,14,0,56,2,1,,,,,,,,,,,,,,
,,,,,,,,,,,right.png,,p,left,610dd74ebf5c4e1977a3e54e,2021-10-22_16h29.07.144,arrow_simon_punish,2021.1.2,Win32,60.0024001,,,,,,,,,,,,,,w,0,1.471,2.395742973,1,1,14,1,57,0,1,,,,,,,,,,,,,,
,,,,,,,,,,,left.png,,w,right,610dd74ebf5c4e1977a3e54e,2021-10-22_16h29.07.144,arrow_simon_punish,2021.1.2,Win32,60.0024001,,,,,,,,,,,,,,p,0,1.606,2.088948086,1,1,14,2,58,3,1,,,,,,,,,,,,,,
,,,,,,,,,,,left.png,,w,left,610dd74ebf5c4e1977a3e54e,2021-10-22_16h29.07.144,arrow_simon_punish,2021.1.2,Win32,60.0024001,,,,,,,,,,,,,,w,1,1.083,1.850741931,1,1,14,3,59,2,1,,,,,,,,,,,,,,
,,,,,,,,,,,,,,,610dd74ebf5c4e1977a3e54e,2021-10-22_16h29.07.144,arrow_simon_punish,2021.1.2,Win32,60.0024001,,,,,,,,,,,,,,,,,,,,,,,,,space,42.377,8,3,0,6,0,1,1,,,,,
,,,,,,,,,,,right.png,,p,right,610dd74ebf5c4e1977a3e54e,2021-10-22_16h29.07.144,arrow_simon_punish,2021.1.2,Win32,60.0024001,,,,,,,,,,,,,,p,1,1.25,1.591357934,1,5,0,0,0,1,1,,,,,,,,,,,,,,
,,,,,,,,,,,left.png,,w,left,610dd74ebf5c4e1977a3e54e,2021-10-22_16h29.07.144,arrow_simon_punish,2021.1.2,Win32,60.0024001,,,,,,,,,,,,,,w,1,1.603,1.54117943,1,5,0,1,1,2,1,,,,,,,,,,,,,,
,,,,,,,,,,,left.png,,w,right,610dd74ebf5c4e1977a3e54e,2021-10-22_16h29.07.144,arrow_simon_punish,2021.1.2,Win32,60.0024001,,,,,,,,,,,,,,w,1,1.642,1.982169238,1,5,0,2,2,3,1,,,,,,,,,,,,,,
,,,,,,,,,,,right.png,,p,left,610dd74ebf5c4e1977a3e54e,2021-10-22_16h29.07.144,arrow_simon_punish,2021.1.2,Win32,60.0024001,,,,,,,,,,,,,,p,1,1.291,1.527321562,1,5,0,3,3,0,1,,,,,,,,,,,,,,
,,,,,,,,,,,right.png,,p,left,610dd74ebf5c4e1977a3e54e,2021-10-22_16h29.07.144,arrow_simon_punish,2021.1.2,Win32,60.0024001,,,,,,,,,,,,,,p,1,1.619,2.071457966,1,5,1,0,4,0,1,,,,,,,,,,,,,,
,,,,,,,,,,,left.png,,w,left,610dd74ebf5c4e1977a3e54e,2021-10-22_16h29.07.144,arrow_simon_punish,2021.1.2,Win32,60.0024001,,,,,,,,,,,,,,w,1,1.567,2.158650719,0,5,1,1,5,2,1,,,,,,,,,,,,,,
,,,,,,,,,,,right.png,,p,right,610dd74ebf5c4e1977a3e54e,2021-10-22_16h29.07.144,arrow_simon_punish,2021.1.2,Win32,60.0024001,,,,,,,,,,,,,,p,1,1.488,1.829154946,0,5,1,2,6,1,1,,,,,,,,,,,,,,
,,,,,,,,,,,left.png,,w,left,610dd74ebf5c4e1977a3e54e,2021-10-22_16h29.07.144,arrow_simon_punish,2021.1.2,Win32,60.0024001,,,,,,,,,,,,,,w,1,1.576,2.352118362,0,5,1,3,7,2,1,,,,,,,,,,,,,,
,,,,,,,,,,,left.png,,w,right,610dd74ebf5c4e1977a3e54e,2021-10-22_16h29.07.144,arrow_simon_punish,2021.1.2,Win32,60.0024001,,,,,,,,,,,,,,w,1,1.54,2.281369547,0,5,2,0,8,3,1,,,,,,,,,,,,,,
,,,,,,,,,,,right.png,,p,left,610dd74ebf5c4e1977a3e54e,2021-10-22_16h29.07.144,arrow_simon_punish,2021.1.2,Win32,60.0024001,,,,,,,,,,,,,,p,1,1.354,1.594179506,1,5,2,1,9,0,1,,,,,,,,,,,,,,
,,,,,,,,,,,right.png,,p,right,610dd74ebf5c4e1977a3e54e,2021-10-22_16h29.07.144,arrow_simon_punish,2021.1.2,Win32,60.0024001,,,,,,,,,,,,,,p,1,1.828,1.537149245,1,5,2,2,10,1,1,,,,,,,,,,,,,,
,,,,,,,,,,,left.png,,w,left,610dd74ebf5c4e1977a3e54e,2021-10-22_16h29.07.144,arrow_simon_punish,2021.1.2,Win32,60.0024001,,,,,,,,,,,,,,w,1,1.496,1.843709471,0,5,2,3,11,2,1,,,,,,,,,,,,,,
,,,,,,,,,,,right.png,,p,right,610dd74ebf5c4e1977a3e54e,2021-10-22_16h29.07.144,arrow_simon_punish,2021.1.2,Win32,60.0024001,,,,,,,,,,,,,,w,0,1.57,2.241121853,1,5,3,0,12,1,1,,,,,,,,,,,,,,
,,,,,,,,,,,right.png,,p,right,610dd74ebf5c4e1977a3e54e,2021-10-22_16h29.07.144,arrow_simon_punish,2021.1.2,Win32,60.0024001,,,,,,,,,,,,,,p,1,1.456,2.025132061,0,5,3,1,13,1,1,,,,,,,,,,,,,,
