instruct_resp_simon.keys,instruct_resp_simon.corr,instruct_resp_simon.rt,trial_resp_simon.keys,trial_resp_simon.corr,trial_resp_simon.rt,trials_train_simon.thisRepN,trials_train_simon.thisTrialN,trials_train_simon.thisN,trials_train_simon.thisIndex,trials_train_simon.ran,target_file,target_pos,target_resp,target_side,participant,date,expName,psychopyVersion,OS,frameRate,instruct_resp_timing.keys,instruct_resp_timing.corr,instruct_resp_timing.rt,trial_resp_timing.keys,trial_resp_timing.rt,trials_train_timing.thisRepN,trials_train_timing.thisTrialN,trials_train_timing.thisN,trials_train_timing.thisIndex,trials_train_timing.ran,instruct_resp.keys,instruct_resp.corr,instruct_resp.rt,trial_resp.keys,trial_resp.corr,trial_resp.rt,target_onset,err,pun,trials.thisRepN,trials.thisTrialN,trials.thisN,trials.thisIndex,trials.ran,block_note_resp.keys,block_note_resp.rt,block_num,blocks.thisRepN,blocks.thisTrialN,blocks.thisN,blocks.thisIndex,blocks.ran,punish,complete_resp.keys,complete_resp.rt,raffle_trial,raffle_err,raffle_rew
space,0,26.5403,p,1,0.6477,0,0,0,1,1,right.png,,p,right,61118740f276fed33c6e6894,2021-10-27_12h17.04.904,arrow_simon_punish,2021.1.2,Win32,59.77643613,,,,,,,,,,,,,,,,,,,,,,,,,,,,,,,,,,,,,,
,,,w,1,1.5158,0,1,1,3,1,left.png,,w,right,61118740f276fed33c6e6894,2021-10-27_12h17.04.904,arrow_simon_punish,2021.1.2,Win32,59.77643613,,,,,,,,,,,,,,,,,,,,,,,,,,,,,,,,,,,,,,
,,,w,0,1.2681,0,2,2,0,1,right.png,,p,left,61118740f276fed33c6e6894,2021-10-27_12h17.04.904,arrow_simon_punish,2021.1.2,Win32,59.77643613,,,,,,,,,,,,,,,,,,,,,,,,,,,,,,,,,,,,,,
,,,w,1,1.6187,0,3,3,2,1,left.png,,w,left,61118740f276fed33c6e6894,2021-10-27_12h17.04.904,arrow_simon_punish,2021.1.2,Win32,59.77643613,,,,,,,,,,,,,,,,,,,,,,,,,,,,,,,,,,,,,,
,,,p,1,1.4047,1,0,4,1,1,right.png,,p,right,61118740f276fed33c6e6894,2021-10-27_12h17.04.904,arrow_simon_punish,2021.1.2,Win32,59.77643613,,,,,,,,,,,,,,,,,,,,,,,,,,,,,,,,,,,,,,
,,,p,1,0.6327,1,1,5,0,1,right.png,,p,left,61118740f276fed33c6e6894,2021-10-27_12h17.04.904,arrow_simon_punish,2021.1.2,Win32,59.77643613,,,,,,,,,,,,,,,,,,,,,,,,,,,,,,,,,,,,,,
,,,w,1,0.8647,1,2,6,2,1,left.png,,w,left,61118740f276fed33c6e6894,2021-10-27_12h17.04.904,arrow_simon_punish,2021.1.2,Win32,59.77643613,,,,,,,,,,,,,,,,,,,,,,,,,,,,,,,,,,,,,,
,,,w,1,1.0736,1,3,7,3,1,left.png,,w,right,61118740f276fed33c6e6894,2021-10-27_12h17.04.904,arrow_simon_punish,2021.1.2,Win32,59.77643613,,,,,,,,,,,,,,,,,,,,,,,,,,,,,,,,,,,,,,
,,,p,1,1.0303,2,0,8,0,1,right.png,,p,left,61118740f276fed33c6e6894,2021-10-27_12h17.04.904,arrow_simon_punish,2021.1.2,Win32,59.77643613,,,,,,,,,,,,,,,,,,,,,,,,,,,,,,,,,,,,,,
,,,w,1,0.8656,2,1,9,2,1,left.png,,w,left,61118740f276fed33c6e6894,2021-10-27_12h17.04.904,arrow_simon_punish,2021.1.2,Win32,59.77643613,,,,,,,,,,,,,,,,,,,,,,,,,,,,,,,,,,,,,,
,,,p,1,1.5408,2,2,10,1,1,right.png,,p,right,61118740f276fed33c6e6894,2021-10-27_12h17.04.904,arrow_simon_punish,2021.1.2,Win32,59.77643613,,,,,,,,,,,,,,,,,,,,,,,,,,,,,,,,,,,,,,
,,,w,1,0.9549,2,3,11,3,1,left.png,,w,right,61118740f276fed33c6e6894,2021-10-27_12h17.04.904,arrow_simon_punish,2021.1.2,Win32,59.77643613,,,,,,,,,,,,,,,,,,,,,,,,,,,,,,,,,,,,,,
,,,p,1,0.489,3,0,12,1,1,right.png,,p,right,61118740f276fed33c6e6894,2021-10-27_12h17.04.904,arrow_simon_punish,2021.1.2,Win32,59.77643613,,,,,,,,,,,,,,,,,,,,,,,,,,,,,,,,,,,,,,
,,,w,1,0.5337,3,1,13,2,1,left.png,,w,left,61118740f276fed33c6e6894,2021-10-27_12h17.04.904,arrow_simon_punish,2021.1.2,Win32,59.77643613,,,,,,,,,,,,,,,,,,,,,,,,,,,,,,,,,,,,,,
,,,p,1,0.7359,3,2,14,0,1,right.png,,p,left,61118740f276fed33c6e6894,2021-10-27_12h17.04.904,arrow_simon_punish,2021.1.2,Win32,59.77643613,,,,,,,,,,,,,,,,,,,,,,,,,,,,,,,,,,,,,,
,,,w,1,0.8966,3,3,15,3,1,left.png,,w,right,61118740f276fed33c6e6894,2021-10-27_12h17.04.904,arrow_simon_punish,2021.1.2,Win32,59.77643613,,,,,,,,,,,,,,,,,,,,,,,,,,,,,,,,,,,,,,
,,,w,1,1.2867,4,0,16,2,1,left.png,,w,left,61118740f276fed33c6e6894,2021-10-27_12h17.04.904,arrow_simon_punish,2021.1.2,Win32,59.77643613,,,,,,,,,,,,,,,,,,,,,,,,,,,,,,,,,,,,,,
,,,p,1,0.7191,4,1,17,1,1,right.png,,p,right,61118740f276fed33c6e6894,2021-10-27_12h17.04.904,arrow_simon_punish,2021.1.2,Win32,59.77643613,,,,,,,,,,,,,,,,,,,,,,,,,,,,,,,,,,,,,,
,,,p,1,1.4176,4,2,18,0,1,right.png,,p,left,61118740f276fed33c6e6894,2021-10-27_12h17.04.904,arrow_simon_punish,2021.1.2,Win32,59.77643613,,,,,,,,,,,,,,,,,,,,,,,,,,,,,,,,,,,,,,
,,,w,1,0.5568,4,3,19,3,1,left.png,,w,right,61118740f276fed33c6e6894,2021-10-27_12h17.04.904,arrow_simon_punish,2021.1.2,Win32,59.77643613,,,,,,,,,,,,,,,,,,,,,,,,,,,,,,,,,,,,,,
,,,w,1,1.5209,5,0,20,2,1,left.png,,w,left,61118740f276fed33c6e6894,2021-10-27_12h17.04.904,arrow_simon_punish,2021.1.2,Win32,59.77643613,,,,,,,,,,,,,,,,,,,,,,,,,,,,,,,,,,,,,,
,,,p,0,0.5139,5,1,21,3,1,left.png,,w,right,61118740f276fed33c6e6894,2021-10-27_12h17.04.904,arrow_simon_punish,2021.1.2,Win32,59.77643613,,,,,,,,,,,,,,,,,,,,,,,,,,,,,,,,,,,,,,
,,,p,1,1.0876,5,2,22,1,1,right.png,,p,right,61118740f276fed33c6e6894,2021-10-27_12h17.04.904,arrow_simon_punish,2021.1.2,Win32,59.77643613,,,,,,,,,,,,,,,,,,,,,,,,,,,,,,,,,,,,,,
,,,p,1,1.476,5,3,23,0,1,right.png,,p,left,61118740f276fed33c6e6894,2021-10-27_12h17.04.904,arrow_simon_punish,2021.1.2,Win32,59.77643613,,,,,,,,,,,,,,,,,,,,,,,,,,,,,,,,,,,,,,
,,,p,1,0.6486,6,0,24,1,1,right.png,,p,right,61118740f276fed33c6e6894,2021-10-27_12h17.04.904,arrow_simon_punish,2021.1.2,Win32,59.77643613,,,,,,,,,,,,,,,,,,,,,,,,,,,,,,,,,,,,,,
,,,w,1,0.4554,6,1,25,2,1,left.png,,w,left,61118740f276fed33c6e6894,2021-10-27_12h17.04.904,arrow_simon_punish,2021.1.2,Win32,59.77643613,,,,,,,,,,,,,,,,,,,,,,,,,,,,,,,,,,,,,,
,,,w,1,1.4028,6,2,26,3,1,left.png,,w,right,61118740f276fed33c6e6894,2021-10-27_12h17.04.904,arrow_simon_punish,2021.1.2,Win32,59.77643613,,,,,,,,,,,,,,,,,,,,,,,,,,,,,,,,,,,,,,
,,,w,0,0.8229,6,3,27,0,1,right.png,,p,left,61118740f276fed33c6e6894,2021-10-27_12h17.04.904,arrow_simon_punish,2021.1.2,Win32,59.77643613,,,,,,,,,,,,,,,,,,,,,,,,,,,,,,,,,,,,,,
,,,w,1,0.7613,7,0,28,3,1,left.png,,w,right,61118740f276fed33c6e6894,2021-10-27_12h17.04.904,arrow_simon_punish,2021.1.2,Win32,59.77643613,,,,,,,,,,,,,,,,,,,,,,,,,,,,,,,,,,,,,,
,,,p,1,0.97,7,1,29,0,1,right.png,,p,left,61118740f276fed33c6e6894,2021-10-27_12h17.04.904,arrow_simon_punish,2021.1.2,Win32,59.77643613,,,,,,,,,,,,,,,,,,,,,,,,,,,,,,,,,,,,,,
,,,p,0,1.3378,7,2,30,2,1,left.png,,w,left,61118740f276fed33c6e6894,2021-10-27_12h17.04.904,arrow_simon_punish,2021.1.2,Win32,59.77643613,,,,,,,,,,,,,,,,,,,,,,,,,,,,,,,,,,,,,,
,,,p,1,1.1856,7,3,31,1,1,right.png,,p,right,61118740f276fed33c6e6894,2021-10-27_12h17.04.904,arrow_simon_punish,2021.1.2,Win32,59.77643613,,,,,,,,,,,,,,,,,,,,,,,,,,,,,,,,,,,,,,
,,,w,1,0.9867,8,0,32,3,1,left.png,,w,right,61118740f276fed33c6e6894,2021-10-27_12h17.04.904,arrow_simon_punish,2021.1.2,Win32,59.77643613,,,,,,,,,,,,,,,,,,,,,,,,,,,,,,,,,,,,,,
,,,p,1,1.0707,8,1,33,1,1,right.png,,p,right,61118740f276fed33c6e6894,2021-10-27_12h17.04.904,arrow_simon_punish,2021.1.2,Win32,59.77643613,,,,,,,,,,,,,,,,,,,,,,,,,,,,,,,,,,,,,,
,,,w,1,1.3954,8,2,34,2,1,left.png,,w,left,61118740f276fed33c6e6894,2021-10-27_12h17.04.904,arrow_simon_punish,2021.1.2,Win32,59.77643613,,,,,,,,,,,,,,,,,,,,,,,,,,,,,,,,,,,,,,
,,,p,1,0.5833,8,3,35,0,1,right.png,,p,left,61118740f276fed33c6e6894,2021-10-27_12h17.04.904,arrow_simon_punish,2021.1.2,Win32,59.77643613,,,,,,,,,,,,,,,,,,,,,,,,,,,,,,,,,,,,,,
,,,w,1,0.9172,9,0,36,3,1,left.png,,w,right,61118740f276fed33c6e6894,2021-10-27_12h17.04.904,arrow_simon_punish,2021.1.2,Win32,59.77643613,,,,,,,,,,,,,,,,,,,,,,,,,,,,,,,,,,,,,,
,,,p,1,0.5943,9,1,37,0,1,right.png,,p,left,61118740f276fed33c6e6894,2021-10-27_12h17.04.904,arrow_simon_punish,2021.1.2,Win32,59.77643613,,,,,,,,,,,,,,,,,,,,,,,,,,,,,,,,,,,,,,
,,,p,0,0.9201,9,2,38,2,1,left.png,,w,left,61118740f276fed33c6e6894,2021-10-27_12h17.04.904,arrow_simon_punish,2021.1.2,Win32,59.77643613,,,,,,,,,,,,,,,,,,,,,,,,,,,,,,,,,,,,,,
,,,p,1,0.7842,9,3,39,1,1,right.png,,p,right,61118740f276fed33c6e6894,2021-10-27_12h17.04.904,arrow_simon_punish,2021.1.2,Win32,59.77643613,,,,,,,,,,,,,,,,,,,,,,,,,,,,,,,,,,,,,,
,,,,,,,,,,,,,,,61118740f276fed33c6e6894,2021-10-27_12h17.04.904,arrow_simon_punish,2021.1.2,Win32,59.77643613,space,0,21.2454,p,2.5428,0,0,0,0,1,,,,,,,,,,,,,,,,,,,,,,,,,,,,
,,,,,,,,,,,,,,,61118740f276fed33c6e6894,2021-10-27_12h17.04.904,arrow_simon_punish,2021.1.2,Win32,59.77643613,,,,w,2.3305,1,0,1,0,1,,,,,,,,,,,,,,,,,,,,,,,,,,,,
,,,,,,,,,,,,,,,61118740f276fed33c6e6894,2021-10-27_12h17.04.904,arrow_simon_punish,2021.1.2,Win32,59.77643613,,,,p,2.337,2,0,2,0,1,,,,,,,,,,,,,,,,,,,,,,,,,,,,
,,,,,,,,,,,,,,,61118740f276fed33c6e6894,2021-10-27_12h17.04.904,arrow_simon_punish,2021.1.2,Win32,59.77643613,,,,w,2.4741,3,0,3,0,1,,,,,,,,,,,,,,,,,,,,,,,,,,,,
,,,,,,,,,,,,,,,61118740f276fed33c6e6894,2021-10-27_12h17.04.904,arrow_simon_punish,2021.1.2,Win32,59.77643613,,,,p,2.5061,4,0,4,0,1,,,,,,,,,,,,,,,,,,,,,,,,,,,,
,,,,,,,,,,,,,,,61118740f276fed33c6e6894,2021-10-27_12h17.04.904,arrow_simon_punish,2021.1.2,Win32,59.77643613,,,,w,2.4563,5,0,5,0,1,,,,,,,,,,,,,,,,,,,,,,,,,,,,
,,,,,,,,,,,,,,,61118740f276fed33c6e6894,2021-10-27_12h17.04.904,arrow_simon_punish,2021.1.2,Win32,59.77643613,,,,p,2.5031,6,0,6,0,1,,,,,,,,,,,,,,,,,,,,,,,,,,,,
,,,,,,,,,,,,,,,61118740f276fed33c6e6894,2021-10-27_12h17.04.904,arrow_simon_punish,2021.1.2,Win32,59.77643613,,,,w,2.5286,7,0,7,0,1,,,,,,,,,,,,,,,,,,,,,,,,,,,,
,,,,,,,,,,,,,,,61118740f276fed33c6e6894,2021-10-27_12h17.04.904,arrow_simon_punish,2021.1.2,Win32,59.77643613,,,,p,2.4464,8,0,8,0,1,,,,,,,,,,,,,,,,,,,,,,,,,,,,
,,,,,,,,,,,,,,,61118740f276fed33c6e6894,2021-10-27_12h17.04.904,arrow_simon_punish,2021.1.2,Win32,59.77643613,,,,w,2.4733,9,0,9,0,1,,,,,,,,,,,,,,,,,,,,,,,,,,,,
,,,,,,,,,,,,,,,61118740f276fed33c6e6894,2021-10-27_12h17.04.904,arrow_simon_punish,2021.1.2,Win32,59.77643613,,,,p,2.5014,10,0,10,0,1,,,,,,,,,,,,,,,,,,,,,,,,,,,,
,,,,,,,,,,,,,,,61118740f276fed33c6e6894,2021-10-27_12h17.04.904,arrow_simon_punish,2021.1.2,Win32,59.77643613,,,,w,2.5535,11,0,11,0,1,,,,,,,,,,,,,,,,,,,,,,,,,,,,
,,,,,,,,,,,,,,,61118740f276fed33c6e6894,2021-10-27_12h17.04.904,arrow_simon_punish,2021.1.2,Win32,59.77643613,,,,p,2.5469,12,0,12,0,1,,,,,,,,,,,,,,,,,,,,,,,,,,,,
,,,,,,,,,,,,,,,61118740f276fed33c6e6894,2021-10-27_12h17.04.904,arrow_simon_punish,2021.1.2,Win32,59.77643613,,,,w,2.5204,13,0,13,0,1,,,,,,,,,,,,,,,,,,,,,,,,,,,,
,,,,,,,,,,,,,,,61118740f276fed33c6e6894,2021-10-27_12h17.04.904,arrow_simon_punish,2021.1.2,Win32,59.77643613,,,,p,2.5403,14,0,14,0,1,,,,,,,,,,,,,,,,,,,,,,,,,,,,
,,,,,,,,,,,,,,,61118740f276fed33c6e6894,2021-10-27_12h17.04.904,arrow_simon_punish,2021.1.2,Win32,59.77643613,,,,w,2.5033,15,0,15,0,1,,,,,,,,,,,,,,,,,,,,,,,,,,,,
,,,,,,,,,,,,,,,61118740f276fed33c6e6894,2021-10-27_12h17.04.904,arrow_simon_punish,2021.1.2,Win32,59.77643613,,,,p,2.9732,16,0,16,0,1,,,,,,,,,,,,,,,,,,,,,,,,,,,,
,,,,,,,,,,,,,,,61118740f276fed33c6e6894,2021-10-27_12h17.04.904,arrow_simon_punish,2021.1.2,Win32,59.77643613,,,,p,2.4953,17,0,17,0,1,,,,,,,,,,,,,,,,,,,,,,,,,,,,
,,,,,,,,,,,,,,,61118740f276fed33c6e6894,2021-10-27_12h17.04.904,arrow_simon_punish,2021.1.2,Win32,59.77643613,,,,w,2.5171,18,0,18,0,1,,,,,,,,,,,,,,,,,,,,,,,,,,,,
,,,,,,,,,,,,,,,61118740f276fed33c6e6894,2021-10-27_12h17.04.904,arrow_simon_punish,2021.1.2,Win32,59.77643613,,,,p,2.4447,19,0,19,0,1,,,,,,,,,,,,,,,,,,,,,,,,,,,,
,,,,,,,,,,,,,,,61118740f276fed33c6e6894,2021-10-27_12h17.04.904,arrow_simon_punish,2021.1.2,Win32,59.77643613,,,,w,2.4579,20,0,20,0,1,,,,,,,,,,,,,,,,,,,,,,,,,,,,
,,,,,,,,,,,,,,,61118740f276fed33c6e6894,2021-10-27_12h17.04.904,arrow_simon_punish,2021.1.2,Win32,59.77643613,,,,p,2.438,21,0,21,0,1,,,,,,,,,,,,,,,,,,,,,,,,,,,,
,,,,,,,,,,,,,,,61118740f276fed33c6e6894,2021-10-27_12h17.04.904,arrow_simon_punish,2021.1.2,Win32,59.77643613,,,,w,2.5364,22,0,22,0,1,,,,,,,,,,,,,,,,,,,,,,,,,,,,
,,,,,,,,,,,,,,,61118740f276fed33c6e6894,2021-10-27_12h17.04.904,arrow_simon_punish,2021.1.2,Win32,59.77643613,,,,p,2.4721,23,0,23,0,1,,,,,,,,,,,,,,,,,,,,,,,,,,,,
,,,,,,,,,,,,,,,61118740f276fed33c6e6894,2021-10-27_12h17.04.904,arrow_simon_punish,2021.1.2,Win32,59.77643613,,,,w,2.602,24,0,24,0,1,,,,,,,,,,,,,,,,,,,,,,,,,,,,
,,,,,,,,,,,,,,,61118740f276fed33c6e6894,2021-10-27_12h17.04.904,arrow_simon_punish,2021.1.2,Win32,59.77643613,,,,p,2.4756,25,0,25,0,1,,,,,,,,,,,,,,,,,,,,,,,,,,,,
,,,,,,,,,,,,,,,61118740f276fed33c6e6894,2021-10-27_12h17.04.904,arrow_simon_punish,2021.1.2,Win32,59.77643613,,,,w,2.4896,26,0,26,0,1,,,,,,,,,,,,,,,,,,,,,,,,,,,,
,,,,,,,,,,,,,,,61118740f276fed33c6e6894,2021-10-27_12h17.04.904,arrow_simon_punish,2021.1.2,Win32,59.77643613,,,,p,2.5209,27,0,27,0,1,,,,,,,,,,,,,,,,,,,,,,,,,,,,
,,,,,,,,,,,,,,,61118740f276fed33c6e6894,2021-10-27_12h17.04.904,arrow_simon_punish,2021.1.2,Win32,59.77643613,,,,w,2.488,28,0,28,0,1,,,,,,,,,,,,,,,,,,,,,,,,,,,,
,,,,,,,,,,,,,,,61118740f276fed33c6e6894,2021-10-27_12h17.04.904,arrow_simon_punish,2021.1.2,Win32,59.77643613,,,,p,2.6368,29,0,29,0,1,,,,,,,,,,,,,,,,,,,,,,,,,,,,
,,,,,,,,,,,,,,,61118740f276fed33c6e6894,2021-10-27_12h17.04.904,arrow_simon_punish,2021.1.2,Win32,59.77643613,,,,w,2.4574,30,0,30,0,1,,,,,,,,,,,,,,,,,,,,,,,,,,,,
,,,,,,,,,,,,,,,61118740f276fed33c6e6894,2021-10-27_12h17.04.904,arrow_simon_punish,2021.1.2,Win32,59.77643613,,,,p,2.4534,31,0,31,0,1,,,,,,,,,,,,,,,,,,,,,,,,,,,,
,,,,,,,,,,,,,,,61118740f276fed33c6e6894,2021-10-27_12h17.04.904,arrow_simon_punish,2021.1.2,Win32,59.77643613,,,,w,2.4247,32,0,32,0,1,,,,,,,,,,,,,,,,,,,,,,,,,,,,
,,,,,,,,,,,,,,,61118740f276fed33c6e6894,2021-10-27_12h17.04.904,arrow_simon_punish,2021.1.2,Win32,59.77643613,,,,p,2.429,33,0,33,0,1,,,,,,,,,,,,,,,,,,,,,,,,,,,,
,,,,,,,,,,,,,,,61118740f276fed33c6e6894,2021-10-27_12h17.04.904,arrow_simon_punish,2021.1.2,Win32,59.77643613,,,,w,2.4884,34,0,34,0,1,,,,,,,,,,,,,,,,,,,,,,,,,,,,
,,,,,,,,,,,,,,,61118740f276fed33c6e6894,2021-10-27_12h17.04.904,arrow_simon_punish,2021.1.2,Win32,59.77643613,,,,p,2.37,35,0,35,0,1,,,,,,,,,,,,,,,,,,,,,,,,,,,,
,,,,,,,,,,,,,,,61118740f276fed33c6e6894,2021-10-27_12h17.04.904,arrow_simon_punish,2021.1.2,Win32,59.77643613,,,,w,2.4695,36,0,36,0,1,,,,,,,,,,,,,,,,,,,,,,,,,,,,
,,,,,,,,,,,,,,,61118740f276fed33c6e6894,2021-10-27_12h17.04.904,arrow_simon_punish,2021.1.2,Win32,59.77643613,,,,p,2.4782,37,0,37,0,1,,,,,,,,,,,,,,,,,,,,,,,,,,,,
,,,,,,,,,,,,,,,61118740f276fed33c6e6894,2021-10-27_12h17.04.904,arrow_simon_punish,2021.1.2,Win32,59.77643613,,,,w,2.5254,38,0,38,0,1,,,,,,,,,,,,,,,,,,,,,,,,,,,,
,,,,,,,,,,,,,,,61118740f276fed33c6e6894,2021-10-27_12h17.04.904,arrow_simon_punish,2021.1.2,Win32,59.77643613,,,,p,2.5071,39,0,39,0,1,,,,,,,,,,,,,,,,,,,,,,,,,,,,
,,,,,,,,,,,,,,,61118740f276fed33c6e6894,2021-10-27_12h17.04.904,arrow_simon_punish,2021.1.2,Win32,59.77643613,,,,w,2.5423,40,0,40,0,1,,,,,,,,,,,,,,,,,,,,,,,,,,,,
,,,,,,,,,,,,,,,61118740f276fed33c6e6894,2021-10-27_12h17.04.904,arrow_simon_punish,2021.1.2,Win32,59.77643613,,,,p,2.4424,41,0,41,0,1,,,,,,,,,,,,,,,,,,,,,,,,,,,,
,,,,,,,,,,,,,,,61118740f276fed33c6e6894,2021-10-27_12h17.04.904,arrow_simon_punish,2021.1.2,Win32,59.77643613,,,,w,2.6223,42,0,42,0,1,,,,,,,,,,,,,,,,,,,,,,,,,,,,
,,,,,,,,,,,,,,,61118740f276fed33c6e6894,2021-10-27_12h17.04.904,arrow_simon_punish,2021.1.2,Win32,59.77643613,,,,p,2.4377,43,0,43,0,1,,,,,,,,,,,,,,,,,,,,,,,,,,,,
,,,,,,,,,,,,,,,61118740f276fed33c6e6894,2021-10-27_12h17.04.904,arrow_simon_punish,2021.1.2,Win32,59.77643613,,,,w,2.4584,44,0,44,0,1,,,,,,,,,,,,,,,,,,,,,,,,,,,,
,,,,,,,,,,,,,,,61118740f276fed33c6e6894,2021-10-27_12h17.04.904,arrow_simon_punish,2021.1.2,Win32,59.77643613,,,,p,2.4976,45,0,45,0,1,,,,,,,,,,,,,,,,,,,,,,,,,,,,
,,,,,,,,,,,,,,,61118740f276fed33c6e6894,2021-10-27_12h17.04.904,arrow_simon_punish,2021.1.2,Win32,59.77643613,,,,w,2.4553,46,0,46,0,1,,,,,,,,,,,,,,,,,,,,,,,,,,,,
,,,,,,,,,,,,,,,61118740f276fed33c6e6894,2021-10-27_12h17.04.904,arrow_simon_punish,2021.1.2,Win32,59.77643613,,,,p,2.4861,47,0,47,0,1,,,,,,,,,,,,,,,,,,,,,,,,,,,,
,,,,,,,,,,,,,,,61118740f276fed33c6e6894,2021-10-27_12h17.04.904,arrow_simon_punish,2021.1.2,Win32,59.77643613,,,,w,2.4402,48,0,48,0,1,,,,,,,,,,,,,,,,,,,,,,,,,,,,
,,,,,,,,,,,,,,,61118740f276fed33c6e6894,2021-10-27_12h17.04.904,arrow_simon_punish,2021.1.2,Win32,59.77643613,,,,p,2.3693,49,0,49,0,1,,,,,,,,,,,,,,,,,,,,,,,,,,,,
,,,,,,,,,,,,,,,61118740f276fed33c6e6894,2021-10-27_12h17.04.904,arrow_simon_punish,2021.1.2,Win32,59.77643613,,,,w,2.4697,50,0,50,0,1,,,,,,,,,,,,,,,,,,,,,,,,,,,,
,,,,,,,,,,,,,,,61118740f276fed33c6e6894,2021-10-27_12h17.04.904,arrow_simon_punish,2021.1.2,Win32,59.77643613,,,,p,2.4386,51,0,51,0,1,,,,,,,,,,,,,,,,,,,,,,,,,,,,
,,,,,,,,,,,,,,,61118740f276fed33c6e6894,2021-10-27_12h17.04.904,arrow_simon_punish,2021.1.2,Win32,59.77643613,,,,w,2.4697,52,0,52,0,1,,,,,,,,,,,,,,,,,,,,,,,,,,,,
,,,,,,,,,,,,,,,61118740f276fed33c6e6894,2021-10-27_12h17.04.904,arrow_simon_punish,2021.1.2,Win32,59.77643613,,,,p,2.5542,53,0,53,0,1,,,,,,,,,,,,,,,,,,,,,,,,,,,,
,,,,,,,,,,,,,,,61118740f276fed33c6e6894,2021-10-27_12h17.04.904,arrow_simon_punish,2021.1.2,Win32,59.77643613,,,,w,2.4851,54,0,54,0,1,,,,,,,,,,,,,,,,,,,,,,,,,,,,
,,,,,,,,,,,,,,,61118740f276fed33c6e6894,2021-10-27_12h17.04.904,arrow_simon_punish,2021.1.2,Win32,59.77643613,,,,p,2.5869,55,0,55,0,1,,,,,,,,,,,,,,,,,,,,,,,,,,,,
,,,,,,,,,,,,,,,61118740f276fed33c6e6894,2021-10-27_12h17.04.904,arrow_simon_punish,2021.1.2,Win32,59.77643613,,,,w,2.4456,56,0,56,0,1,,,,,,,,,,,,,,,,,,,,,,,,,,,,
,,,,,,,,,,,,,,,61118740f276fed33c6e6894,2021-10-27_12h17.04.904,arrow_simon_punish,2021.1.2,Win32,59.77643613,,,,p,2.5124,57,0,57,0,1,,,,,,,,,,,,,,,,,,,,,,,,,,,,
,,,,,,,,,,,,,,,61118740f276fed33c6e6894,2021-10-27_12h17.04.904,arrow_simon_punish,2021.1.2,Win32,59.77643613,,,,w,2.4776,58,0,58,0,1,,,,,,,,,,,,,,,,,,,,,,,,,,,,
,,,,,,,,,,,,,,,61118740f276fed33c6e6894,2021-10-27_12h17.04.904,arrow_simon_punish,2021.1.2,Win32,59.77643613,,,,p,2.5277,59,0,59,0,1,,,,,,,,,,,,,,,,,,,,,,,,,,,,
,,,,,,,,,,,right.png,,p,right,61118740f276fed33c6e6894,2021-10-27_12h17.04.904,arrow_simon_punish,2021.1.2,Win32,59.77643613,,,,,,,,,,,space,0,88.838,p,1,1.5014,2.413573089,0,1,0,0,0,1,1,,,,,,,,,,,,,,
,,,,,,,,,,,right.png,,p,left,61118740f276fed33c6e6894,2021-10-27_12h17.04.904,arrow_simon_punish,2021.1.2,Win32,59.77643613,,,,,,,,,,,,,,w,0,1.5534,2.292508766,1,1,0,1,1,0,1,,,,,,,,,,,,,,
,,,,,,,,,,,left.png,,w,right,61118740f276fed33c6e6894,2021-10-27_12h17.04.904,arrow_simon_punish,2021.1.2,Win32,59.77643613,,,,,,,,,,,,,,p,0,1.3689,1.649473568,1,1,0,2,2,3,1,,,,,,,,,,,,,,
,,,,,,,,,,,left.png,,w,left,61118740f276fed33c6e6894,2021-10-27_12h17.04.904,arrow_simon_punish,2021.1.2,Win32,59.77643613,,,,,,,,,,,,,,w,1,1.6441,2.388774883,1,1,0,3,3,2,1,,,,,,,,,,,,,,
,,,,,,,,,,,left.png,,w,left,61118740f276fed33c6e6894,2021-10-27_12h17.04.904,arrow_simon_punish,2021.1.2,Win32,59.77643613,,,,,,,,,,,,,,p,0,1.5017,2.265370962,1,1,1,0,4,2,1,,,,,,,,,,,,,,
,,,,,,,,,,,right.png,,p,right,61118740f276fed33c6e6894,2021-10-27_12h17.04.904,arrow_simon_punish,2021.1.2,Win32,59.77643613,,,,,,,,,,,,,,w,0,1.404,2.332005059,1,1,1,1,5,1,1,,,,,,,,,,,,,,
,,,,,,,,,,,right.png,,p,left,61118740f276fed33c6e6894,2021-10-27_12h17.04.904,arrow_simon_punish,2021.1.2,Win32,59.77643613,,,,,,,,,,,,,,w,0,1.3557,1.882565502,1,1,1,2,6,0,1,,,,,,,,,,,,,,
,,,,,,,,,,,right.png,,p,left,61118740f276fed33c6e6894,2021-10-27_12h17.04.904,arrow_simon_punish,2021.1.2,Win32,59.77643613,,,,,,,,,,,,,,w,0,1.4793,1.55584916,1,1,1,3,7,0,1,,,,,,,,,,,,,,
,,,,,,,,,,,left.png,,w,left,61118740f276fed33c6e6894,2021-10-27_12h17.04.904,arrow_simon_punish,2021.1.2,Win32,59.77643613,,,,,,,,,,,,,,w,1,1.3678,1.808706447,1,1,2,0,8,2,1,,,,,,,,,,,,,,
,,,,,,,,,,,left.png,,w,right,61118740f276fed33c6e6894,2021-10-27_12h17.04.904,arrow_simon_punish,2021.1.2,Win32,59.77643613,,,,,,,,,,,,,,w,1,1.4593,2.048334113,0,1,2,1,9,3,1,,,,,,,,,,,,,,
,,,,,,,,,,,right.png,,p,right,61118740f276fed33c6e6894,2021-10-27_12h17.04.904,arrow_simon_punish,2021.1.2,Win32,59.77643613,,,,,,,,,,,,,,p,1,1.3221,1.90729937,1,1,2,2,10,1,1,,,,,,,,,,,,,,
,,,,,,,,,,,left.png,,w,left,61118740f276fed33c6e6894,2021-10-27_12h17.04.904,arrow_simon_punish,2021.1.2,Win32,59.77643613,,,,,,,,,,,,,,w,1,1.6613,2.275536621,1,1,2,3,11,2,1,,,,,,,,,,,,,,
,,,,,,,,,,,left.png,,w,right,61118740f276fed33c6e6894,2021-10-27_12h17.04.904,arrow_simon_punish,2021.1.2,Win32,59.77643613,,,,,,,,,,,,,,w,1,1.5027,1.6987262,0,1,3,0,12,3,1,,,,,,,,,,,,,,
,,,,,,,,,,,right.png,,p,left,61118740f276fed33c6e6894,2021-10-27_12h17.04.904,arrow_simon_punish,2021.1.2,Win32,59.77643613,,,,,,,,,,,,,,p,1,1.471,1.621840157,0,1,3,1,13,0,1,,,,,,,,,,,,,,
,,,,,,,,,,,left.png,,w,right,61118740f276fed33c6e6894,2021-10-27_12h17.04.904,arrow_simon_punish,2021.1.2,Win32,59.77643613,,,,,,,,,,,,,,w,1,1.4031,1.505152551,0,1,3,2,14,3,1,,,,,,,,,,,,,,
,,,,,,,,,,,right.png,,p,right,61118740f276fed33c6e6894,2021-10-27_12h17.04.904,arrow_simon_punish,2021.1.2,Win32,59.77643613,,,,,,,,,,,,,,p,1,1.4684,2.068904808,0,1,3,3,15,1,1,,,,,,,,,,,,,,
,,,,,,,,,,,left.png,,w,right,61118740f276fed33c6e6894,2021-10-27_12h17.04.904,arrow_simon_punish,2021.1.2,Win32,59.77643613,,,,,,,,,,,,,,w,1,1.5214,2.078460718,0,1,4,0,16,3,1,,,,,,,,,,,,,,
,,,,,,,,,,,right.png,,p,left,61118740f276fed33c6e6894,2021-10-27_12h17.04.904,arrow_simon_punish,2021.1.2,Win32,59.77643613,,,,,,,,,,,,,,p,1,1.4696,1.620434288,0,1,4,1,17,0,1,,,,,,,,,,,,,,
,,,,,,,,,,,right.png,,p,right,61118740f276fed33c6e6894,2021-10-27_12h17.04.904,arrow_simon_punish,2021.1.2,Win32,59.77643613,,,,,,,,,,,,,,p,1,1.5358,2.119138532,0,1,4,2,18,1,1,,,,,,,,,,,,,,
,,,,,,,,,,,left.png,,w,left,61118740f276fed33c6e6894,2021-10-27_12h17.04.904,arrow_simon_punish,2021.1.2,Win32,59.77643613,,,,,,,,,,,,,,w,1,1.4368,1.739554821,0,1,4,3,19,2,1,,,,,,,,,,,,,,
,,,,,,,,,,,left.png,,w,right,61118740f276fed33c6e6894,2021-10-27_12h17.04.904,arrow_simon_punish,2021.1.2,Win32,59.77643613,,,,,,,,,,,,,,w,1,1.5096,1.979992239,0,1,5,0,20,3,1,,,,,,,,,,,,,,
,,,,,,,,,,,right.png,,p,right,61118740f276fed33c6e6894,2021-10-27_12h17.04.904,arrow_simon_punish,2021.1.2,Win32,59.77643613,,,,,,,,,,,,,,p,1,1.5896,2.032699926,0,1,5,1,21,1,1,,,,,,,,,,,,,,
,,,,,,,,,,,left.png,,w,right,61118740f276fed33c6e6894,2021-10-27_12h17.04.904,arrow_simon_punish,2021.1.2,Win32,59.77643613,,,,,,,,,,,,,,w,1,1.5239,1.561412099,0,1,5,2,22,3,1,,,,,,,,,,,,,,
,,,,,,,,,,,right.png,,p,left,61118740f276fed33c6e6894,2021-10-27_12h17.04.904,arrow_simon_punish,2021.1.2,Win32,59.77643613,,,,,,,,,,,,,,p,1,1.3749,2.08066023,1,1,5,3,23,0,1,,,,,,,,,,,,,,
,,,,,,,,,,,right.png,,p,right,61118740f276fed33c6e6894,2021-10-27_12h17.04.904,arrow_simon_punish,2021.1.2,Win32,59.77643613,,,,,,,,,,,,,,p,1,1.652,2.331926255,1,1,6,0,24,1,1,,,,,,,,,,,,,,
,,,,,,,,,,,right.png,,p,left,61118740f276fed33c6e6894,2021-10-27_12h17.04.904,arrow_simon_punish,2021.1.2,Win32,59.77643613,,,,,,,,,,,,,,p,1,1.5227,1.691084616,0,1,6,1,25,0,1,,,,,,,,,,,,,,
,,,,,,,,,,,left.png,,w,left,61118740f276fed33c6e6894,2021-10-27_12h17.04.904,arrow_simon_punish,2021.1.2,Win32,59.77643613,,,,,,,,,,,,,,w,1,1.4833,1.542391173,0,1,6,2,26,2,1,,,,,,,,,,,,,,
,,,,,,,,,,,left.png,,w,left,61118740f276fed33c6e6894,2021-10-27_12h17.04.904,arrow_simon_punish,2021.1.2,Win32,59.77643613,,,,,,,,,,,,,,p,0,1.5083,2.356523958,1,1,6,3,27,2,1,,,,,,,,,,,,,,
,,,,,,,,,,,right.png,,p,right,61118740f276fed33c6e6894,2021-10-27_12h17.04.904,arrow_simon_punish,2021.1.2,Win32,59.77643613,,,,,,,,,,,,,,p,1,1.553,1.573461487,0,1,7,0,28,1,1,,,,,,,,,,,,,,
,,,,,,,,,,,right.png,,p,right,61118740f276fed33c6e6894,2021-10-27_12h17.04.904,arrow_simon_punish,2021.1.2,Win32,59.77643613,,,,,,,,,,,,,,p,1,1.4523,1.908794311,0,1,7,1,29,1,1,,,,,,,,,,,,,,
,,,,,,,,,,,right.png,,p,left,61118740f276fed33c6e6894,2021-10-27_12h17.04.904,arrow_simon_punish,2021.1.2,Win32,59.77643613,,,,,,,,,,,,,,p,1,1.4048,1.803561797,0,1,7,2,30,0,1,,,,,,,,,,,,,,
,,,,,,,,,,,right.png,,p,left,61118740f276fed33c6e6894,2021-10-27_12h17.04.904,arrow_simon_punish,2021.1.2,Win32,59.77643613,,,,,,,,,,,,,,p,1,1.4989,1.992276044,0,1,7,3,31,0,1,,,,,,,,,,,,,,
,,,,,,,,,,,left.png,,w,left,61118740f276fed33c6e6894,2021-10-27_12h17.04.904,arrow_simon_punish,2021.1.2,Win32,59.77643613,,,,,,,,,,,,,,w,1,1.3717,1.608023736,1,1,8,0,32,2,1,,,,,,,,,,,,,,
,,,,,,,,,,,left.png,,w,right,61118740f276fed33c6e6894,2021-10-27_12h17.04.904,arrow_simon_punish,2021.1.2,Win32,59.77643613,,,,,,,,,,,,,,w,1,1.603,2.190874191,1,1,8,1,33,3,1,,,,,,,,,,,,,,
,,,,,,,,,,,left.png,,w,right,61118740f276fed33c6e6894,2021-10-27_12h17.04.904,arrow_simon_punish,2021.1.2,Win32,59.77643613,,,,,,,,,,,,,,w,1,1.4243,2.026972428,0,1,8,2,34,3,1,,,,,,,,,,,,,,
,,,,,,,,,,,right.png,,p,right,61118740f276fed33c6e6894,2021-10-27_12h17.04.904,arrow_simon_punish,2021.1.2,Win32,59.77643613,,,,,,,,,,,,,,p,1,1.5364,1.71793244,0,1,8,3,35,1,1,,,,,,,,,,,,,,
,,,,,,,,,,,right.png,,p,right,61118740f276fed33c6e6894,2021-10-27_12h17.04.904,arrow_simon_punish,2021.1.2,Win32,59.77643613,,,,,,,,,,,,,,p,1,1.6491,2.38808257,1,1,9,0,36,1,1,,,,,,,,,,,,,,
,,,,,,,,,,,left.png,,w,right,61118740f276fed33c6e6894,2021-10-27_12h17.04.904,arrow_simon_punish,2021.1.2,Win32,59.77643613,,,,,,,,,,,,,,p,0,1.7438,2.444174747,1,1,9,1,37,3,1,,,,,,,,,,,,,,
,,,,,,,,,,,left.png,,w,left,61118740f276fed33c6e6894,2021-10-27_12h17.04.904,arrow_simon_punish,2021.1.2,Win32,59.77643613,,,,,,,,,,,,,,p,0,1.4759,2.362904014,1,1,9,2,38,2,1,,,,,,,,,,,,,,
,,,,,,,,,,,left.png,,w,left,61118740f276fed33c6e6894,2021-10-27_12h17.04.904,arrow_simon_punish,2021.1.2,Win32,59.77643613,,,,,,,,,,,,,,w,1,1.5805,2.258787562,0,1,9,3,39,2,1,,,,,,,,,,,,,,
,,,,,,,,,,,right.png,,p,right,61118740f276fed33c6e6894,2021-10-27_12h17.04.904,arrow_simon_punish,2021.1.2,Win32,59.77643613,,,,,,,,,,,,,,p,1,1.5592,1.585148851,0,1,10,0,40,1,1,,,,,,,,,,,,,,
,,,,,,,,,,,left.png,,w,left,61118740f276fed33c6e6894,2021-10-27_12h17.04.904,arrow_simon_punish,2021.1.2,Win32,59.77643613,,,,,,,,,,,,,,w,1,1.4428,1.889803851,0,1,10,1,41,2,1,,,,,,,,,,,,,,
,,,,,,,,,,,left.png,,w,left,61118740f276fed33c6e6894,2021-10-27_12h17.04.904,arrow_simon_punish,2021.1.2,Win32,59.77643613,,,,,,,,,,,,,,w,1,1.4881,1.952806596,0,1,10,2,42,2,1,,,,,,,,,,,,,,
,,,,,,,,,,,left.png,,w,right,61118740f276fed33c6e6894,2021-10-27_12h17.04.904,arrow_simon_punish,2021.1.2,Win32,59.77643613,,,,,,,,,,,,,,w,1,1.4029,1.831874736,0,1,10,3,43,3,1,,,,,,,,,,,,,,
,,,,,,,,,,,right.png,,p,left,61118740f276fed33c6e6894,2021-10-27_12h17.04.904,arrow_simon_punish,2021.1.2,Win32,59.77643613,,,,,,,,,,,,,,p,1,1.4372,1.852766951,0,1,11,0,44,0,1,,,,,,,,,,,,,,
,,,,,,,,,,,left.png,,w,right,61118740f276fed33c6e6894,2021-10-27_12h17.04.904,arrow_simon_punish,2021.1.2,Win32,59.77643613,,,,,,,,,,,,,,w,1,1.3552,1.824467709,1,1,11,1,45,3,1,,,,,,,,,,,,,,
,,,,,,,,,,,right.png,,p,left,61118740f276fed33c6e6894,2021-10-27_12h17.04.904,arrow_simon_punish,2021.1.2,Win32,59.77643613,,,,,,,,,,,,,,p,1,1.2767,1.948702242,1,1,11,2,46,0,1,,,,,,,,,,,,,,
,,,,,,,,,,,left.png,,w,left,61118740f276fed33c6e6894,2021-10-27_12h17.04.904,arrow_simon_punish,2021.1.2,Win32,59.77643613,,,,,,,,,,,,,,w,1,1.5391,2.067453082,0,1,11,3,47,2,1,,,,,,,,,,,,,,
,,,,,,,,,,,left.png,,w,left,61118740f276fed33c6e6894,2021-10-27_12h17.04.904,arrow_simon_punish,2021.1.2,Win32,59.77643613,,,,,,,,,,,,,,w,1,1.4724,2.14797204,0,1,12,0,48,2,1,,,,,,,,,,,,,,
,,,,,,,,,,,left.png,,w,left,61118740f276fed33c6e6894,2021-10-27_12h17.04.904,arrow_simon_punish,2021.1.2,Win32,59.77643613,,,,,,,,,,,,,,w,1,1.3871,2.051592141,1,1,12,1,49,2,1,,,,,,,,,,,,,,
,,,,,,,,,,,right.png,,p,left,61118740f276fed33c6e6894,2021-10-27_12h17.04.904,arrow_simon_punish,2021.1.2,Win32,59.77643613,,,,,,,,,,,,,,p,1,1.3534,1.555417516,1,1,12,2,50,0,1,,,,,,,,,,,,,,
,,,,,,,,,,,right.png,,p,right,61118740f276fed33c6e6894,2021-10-27_12h17.04.904,arrow_simon_punish,2021.1.2,Win32,59.77643613,,,,,,,,,,,,,,p,1,1.5699,1.859823676,0,1,12,3,51,1,1,,,,,,,,,,,,,,
,,,,,,,,,,,left.png,,w,right,61118740f276fed33c6e6894,2021-10-27_12h17.04.904,arrow_simon_punish,2021.1.2,Win32,59.77643613,,,,,,,,,,,,,,w,1,1.4856,2.084174186,0,1,13,0,52,3,1,,,,,,,,,,,,,,
,,,,,,,,,,,right.png,,p,left,61118740f276fed33c6e6894,2021-10-27_12h17.04.904,arrow_simon_punish,2021.1.2,Win32,59.77643613,,,,,,,,,,,,,,p,1,1.4541,2.005927086,0,1,13,1,53,0,1,,,,,,,,,,,,,,
,,,,,,,,,,,left.png,,w,right,61118740f276fed33c6e6894,2021-10-27_12h17.04.904,arrow_simon_punish,2021.1.2,Win32,59.77643613,,,,,,,,,,,,,,w,1,1.4842,1.895499562,0,1,13,2,54,3,1,,,,,,,,,,,,,,
,,,,,,,,,,,left.png,,w,right,61118740f276fed33c6e6894,2021-10-27_12h17.04.904,arrow_simon_punish,2021.1.2,Win32,59.77643613,,,,,,,,,,,,,,w,1,1.6408,2.055267408,1,1,13,3,55,3,1,,,,,,,,,,,,,,
,,,,,,,,,,,right.png,,p,right,61118740f276fed33c6e6894,2021-10-27_12h17.04.904,arrow_simon_punish,2021.1.2,Win32,59.77643613,,,,,,,,,,,,,,w,0,1.4354,2.029554929,1,1,14,0,56,1,1,,,,,,,,,,,,,,
,,,,,,,,,,,right.png,,p,right,61118740f276fed33c6e6894,2021-10-27_12h17.04.904,arrow_simon_punish,2021.1.2,Win32,59.77643613,,,,,,,,,,,,,,p,1,1.3448,1.751345584,1,1,14,1,57,1,1,,,,,,,,,,,,,,
,,,,,,,,,,,right.png,,p,left,61118740f276fed33c6e6894,2021-10-27_12h17.04.904,arrow_simon_punish,2021.1.2,Win32,59.77643613,,,,,,,,,,,,,,p,1,1.3929,1.754878508,1,1,14,2,58,0,1,,,,,,,,,,,,,,
,,,,,,,,,,,right.png,,p,left,61118740f276fed33c6e6894,2021-10-27_12h17.04.904,arrow_simon_punish,2021.1.2,Win32,59.77643613,,,,,,,,,,,,,,p,1,1.555,1.893128715,0,1,14,3,59,0,1,,,,,,,,,,,,,,
,,,,,,,,,,,,,,,61118740f276fed33c6e6894,2021-10-27_12h17.04.904,arrow_simon_punish,2021.1.2,Win32,59.77643613,,,,,,,,,,,,,,,,,,,,,,,,,space,80.4945,2,0,0,0,0,1,1,,,,,
,,,,,,,,,,,left.png,,w,left,61118740f276fed33c6e6894,2021-10-27_12h17.04.904,arrow_simon_punish,2021.1.2,Win32,59.77643613,,,,,,,,,,,,,,w,1,1.5095,2.172855042,0,5,0,0,0,2,1,,,,,,,,,,,,,,
,,,,,,,,,,,left.png,,w,left,61118740f276fed33c6e6894,2021-10-27_12h17.04.904,arrow_simon_punish,2021.1.2,Win32,59.77643613,,,,,,,,,,,,,,p,0,1.5875,2.492410896,1,5,0,1,1,2,1,,,,,,,,,,,,,,
,,,,,,,,,,,right.png,,p,left,61118740f276fed33c6e6894,2021-10-27_12h17.04.904,arrow_simon_punish,2021.1.2,Win32,59.77643613,,,,,,,,,,,,,,p,1,1.5218,2.012698343,0,5,0,2,2,0,1,,,,,,,,,,,,,,
,,,,,,,,,,,left.png,,w,right,61118740f276fed33c6e6894,2021-10-27_12h17.04.904,arrow_simon_punish,2021.1.2,Win32,59.77643613,,,,,,,,,,,,,,w,1,1.4187,1.653041914,0,5,0,3,3,3,1,,,,,,,,,,,,,,
,,,,,,,,,,,right.png,,p,left,61118740f276fed33c6e6894,2021-10-27_12h17.04.904,arrow_simon_punish,2021.1.2,Win32,59.77643613,,,,,,,,,,,,,,p,1,1.51,2.167980911,0,5,1,0,4,0,1,,,,,,,,,,,,,,
,,,,,,,,,,,right.png,,p,right,61118740f276fed33c6e6894,2021-10-27_12h17.04.904,arrow_simon_punish,2021.1.2,Win32,59.77643613,,,,,,,,,,,,,,p,1,1.4793,2.103440463,0,5,1,1,5,1,1,,,,,,,,,,,,,,
,,,,,,,,,,,left.png,,w,right,61118740f276fed33c6e6894,2021-10-27_12h17.04.904,arrow_simon_punish,2021.1.2,Win32,59.77643613,,,,,,,,,,,,,,w,1,1.5001,2.10874221,0,5,1,2,6,3,1,,,,,,,,,,,,,,
,,,,,,,,,,,left.png,,w,right,61118740f276fed33c6e6894,2021-10-27_12h17.04.904,arrow_simon_punish,2021.1.2,Win32,59.77643613,,,,,,,,,,,,,,w,1,1.5064,1.721404602,0,5,1,3,7,3,1,,,,,,,,,,,,,,
,,,,,,,,,,,right.png,,p,left,61118740f276fed33c6e6894,2021-10-27_12h17.04.904,arrow_simon_punish,2021.1.2,Win32,59.77643613,,,,,,,,,,,,,,p,1,1.4454,2.083657941,0,5,2,0,8,0,1,,,,,,,,,,,,,,
,,,,,,,,,,,left.png,,w,left,61118740f276fed33c6e6894,2021-10-27_12h17.04.904,arrow_simon_punish,2021.1.2,Win32,59.77643613,,,,,,,,,,,,,,p,0,1.5016,2.069869301,1,5,2,1,9,2,1,,,,,,,,,,,,,,
,,,,,,,,,,,left.png,,w,left,61118740f276fed33c6e6894,2021-10-27_12h17.04.904,arrow_simon_punish,2021.1.2,Win32,59.77643613,,,,,,,,,,,,,,w,1,1.5119,2.007497243,0,5,2,2,10,2,1,,,,,,,,,,,,,,
,,,,,,,,,,,right.png,,p,left,61118740f276fed33c6e6894,2021-10-27_12h17.04.904,arrow_simon_punish,2021.1.2,Win32,59.77643613,,,,,,,,,,,,,,p,1,1.6791,2.32441902,1,5,2,3,11,0,1,,,,,,,,,,,,,,
,,,,,,,,,,,left.png,,w,left,61118740f276fed33c6e6894,2021-10-27_12h17.04.904,arrow_simon_punish,2021.1.2,Win32,59.77643613,,,,,,,,,,,,,,w,1,1.5204,1.929753759,0,5,3,0,12,2,1,,,,,,,,,,,,,,
,,,,,,,,,,,left.png,,w,left,61118740f276fed33c6e6894,2021-10-27_12h17.04.904,arrow_simon_punish,2021.1.2,Win32,59.77643613,,,,,,,,,,,,,,w,1,1.6625,2.402696327,1,5,3,1,13,2,1,,,,,,,,,,,,,,
,,,,,,,,,,,left.png,,w,left,61118740f276fed33c6e6894,2021-10-27_12h17.04.904,arrow_simon_punish,2021.1.2,Win32,59.77643613,,,,,,,,,,,,,,p,0,1.6041,2.418709212,1,5,3,2,14,2,1,,,,,,,,,,,,,,
,,,,,,,,,,,right.png,,p,left,61118740f276fed33c6e6894,2021-10-27_12h17.04.904,arrow_simon_punish,2021.1.2,Win32,59.77643613,,,,,,,,,,,,,,w,0,1.4546,2.158311507,1,5,3,3,15,0,1,,,,,,,,,,,,,,
,,,,,,,,,,,left.png,,w,left,61118740f276fed33c6e6894,2021-10-27_12h17.04.904,arrow_simon_punish,2021.1.2,Win32,59.77643613,,,,,,,,,,,,,,w,1,1.4897,2.008831071,0,5,4,0,16,2,1,,,,,,,,,,,,,,
,,,,,,,,,,,right.png,,p,right,61118740f276fed33c6e6894,2021-10-27_12h17.04.904,arrow_simon_punish,2021.1.2,Win32,59.77643613,,,,,,,,,,,,,,p,1,1.5247,2.437311293,0,5,4,1,17,1,1,,,,,,,,,,,,,,
,,,,,,,,,,,right.png,,p,right,61118740f276fed33c6e6894,2021-10-27_12h17.04.904,arrow_simon_punish,2021.1.2,Win32,59.77643613,,,,,,,,,,,,,,p,1,1.4799,2.164896619,0,5,4,2,18,1,1,,,,,,,,,,,,,,
,,,,,,,,,,,left.png,,w,left,61118740f276fed33c6e6894,2021-10-27_12h17.04.904,arrow_simon_punish,2021.1.2,Win32,59.77643613,,,,,,,,,,,,,,w,1,1.4928,2.11028908,0,5,4,3,19,2,1,,,,,,,,,,,,,,
,,,,,,,,,,,right.png,,p,right,61118740f276fed33c6e6894,2021-10-27_12h17.04.904,arrow_simon_punish,2021.1.2,Win32,59.77643613,,,,,,,,,,,,,,p,1,1.4862,1.575017825,0,5,5,0,20,1,1,,,,,,,,,,,,,,
,,,,,,,,,,,right.png,,p,left,61118740f276fed33c6e6894,2021-10-27_12h17.04.904,arrow_simon_punish,2021.1.2,Win32,59.77643613,,,,,,,,,,,,,,p,1,1.5948,2.377189066,0,5,5,1,21,0,1,,,,,,,,,,,,,,
,,,,,,,,,,,right.png,,p,left,61118740f276fed33c6e6894,2021-10-27_12h17.04.904,arrow_simon_punish,2021.1.2,Win32,59.77643613,,,,,,,,,,,,,,p,1,1.4555,1.74687639,0,5,5,2,22,0,1,,,,,,,,,,,,,,
,,,,,,,,,,,right.png,,p,left,61118740f276fed33c6e6894,2021-10-27_12h17.04.904,arrow_simon_punish,2021.1.2,Win32,59.77643613,,,,,,,,,,,,,,p,1,1.5668,2.045515377,0,5,5,3,23,0,1,,,,,,,,,,,,,,
,,,,,,,,,,,left.png,,w,left,61118740f276fed33c6e6894,2021-10-27_12h17.04.904,arrow_simon_punish,2021.1.2,Win32,59.77643613,,,,,,,,,,,,,,w,1,1.3691,1.998485404,1,5,6,0,24,2,1,,,,,,,,,,,,,,
,,,,,,,,,,,right.png,,p,right,61118740f276fed33c6e6894,2021-10-27_12h17.04.904,arrow_simon_punish,2021.1.2,Win32,59.77643613,,,,,,,,,,,,,,p,1,1.5009,1.751106182,0,5,6,1,25,1,1,,,,,,,,,,,,,,
,,,,,,,,,,,left.png,,w,left,61118740f276fed33c6e6894,2021-10-27_12h17.04.904,arrow_simon_punish,2021.1.2,Win32,59.77643613,,,,,,,,,,,,,,w,1,1.4647,1.601285547,0,5,6,2,26,2,1,,,,,,,,,,,,,,
,,,,,,,,,,,left.png,,w,right,61118740f276fed33c6e6894,2021-10-27_12h17.04.904,arrow_simon_punish,2021.1.2,Win32,59.77643613,,,,,,,,,,,,,,w,1,1.4803,1.682388042,0,5,6,3,27,3,1,,,,,,,,,,,,,,
,,,,,,,,,,,right.png,,p,left,61118740f276fed33c6e6894,2021-10-27_12h17.04.904,arrow_simon_punish,2021.1.2,Win32,59.77643613,,,,,,,,,,,,,,p,1,1.5227,1.555482848,0,5,7,0,28,0,1,,,,,,,,,,,,,,
,,,,,,,,,,,right.png,,p,right,61118740f276fed33c6e6894,2021-10-27_12h17.04.904,arrow_simon_punish,2021.1.2,Win32,59.77643613,,,,,,,,,,,,,,p,1,1.5525,1.920279691,0,5,7,1,29,1,1,,,,,,,,,,,,,,
,,,,,,,,,,,right.png,,p,left,61118740f276fed33c6e6894,2021-10-27_12h17.04.904,arrow_simon_punish,2021.1.2,Win32,59.77643613,,,,,,,,,,,,,,p,1,1.4987,1.986080435,0,5,7,2,30,0,1,,,,,,,,,,,,,,
,,,,,,,,,,,left.png,,w,right,61118740f276fed33c6e6894,2021-10-27_12h17.04.904,arrow_simon_punish,2021.1.2,Win32,59.77643613,,,,,,,,,,,,,,w,1,1.6228,2.33921512,1,5,7,3,31,3,1,,,,,,,,,,,,,,
,,,,,,,,,,,left.png,,w,right,61118740f276fed33c6e6894,2021-10-27_12h17.04.904,arrow_simon_punish,2021.1.2,Win32,59.77643613,,,,,,,,,,,,,,w,1,1.5704,2.116556188,0,5,8,0,32,3,1,,,,,,,,,,,,,,
,,,,,,,,,,,right.png,,p,right,61118740f276fed33c6e6894,2021-10-27_12h17.04.904,arrow_simon_punish,2021.1.2,Win32,59.77643613,,,,,,,,,,,,,,p,1,1.5058,2.172168586,0,5,8,1,33,1,1,,,,,,,,,,,,,,
,,,,,,,,,,,right.png,,p,right,61118740f276fed33c6e6894,2021-10-27_12h17.04.904,arrow_simon_punish,2021.1.2,Win32,59.77643613,,,,,,,,,,,,,,p,1,1.5435,2.257464511,0,5,8,2,34,1,1,,,,,,,,,,,,,,
,,,,,,,,,,,left.png,,w,right,61118740f276fed33c6e6894,2021-10-27_12h17.04.904,arrow_simon_punish,2021.1.2,Win32,59.77643613,,,,,,,,,,,,,,p,0,1.5574,2.293684071,1,5,8,3,35,3,1,,,,,,,,,,,,,,
,,,,,,,,,,,left.png,,w,right,61118740f276fed33c6e6894,2021-10-27_12h17.04.904,arrow_simon_punish,2021.1.2,Win32,59.77643613,,,,,,,,,,,,,,w,1,1.3699,1.775701909,1,5,9,0,36,3,1,,,,,,,,,,,,,,
,,,,,,,,,,,right.png,,p,right,61118740f276fed33c6e6894,2021-10-27_12h17.04.904,arrow_simon_punish,2021.1.2,Win32,59.77643613,,,,,,,,,,,,,,p,1,1.5392,2.219703875,0,5,9,1,37,1,1,,,,,,,,,,,,,,
,,,,,,,,,,,right.png,,p,right,61118740f276fed33c6e6894,2021-10-27_12h17.04.904,arrow_simon_punish,2021.1.2,Win32,59.77643613,,,,,,,,,,,,,,p,1,1.489,2.009242139,0,5,9,2,38,1,1,,,,,,,,,,,,,,
,,,,,,,,,,,left.png,,w,right,61118740f276fed33c6e6894,2021-10-27_12h17.04.904,arrow_simon_punish,2021.1.2,Win32,59.77643613,,,,,,,,,,,,,,w,1,1.4685,1.721118992,0,5,9,3,39,3,1,,,,,,,,,,,,,,
,,,,,,,,,,,left.png,,w,right,61118740f276fed33c6e6894,2021-10-27_12h17.04.904,arrow_simon_punish,2021.1.2,Win32,59.77643613,,,,,,,,,,,,,,w,1,1.4367,1.543879577,0,5,10,0,40,3,1,,,,,,,,,,,,,,
,,,,,,,,,,,left.png,,w,right,61118740f276fed33c6e6894,2021-10-27_12h17.04.904,arrow_simon_punish,2021.1.2,Win32,59.77643613,,,,,,,,,,,,,,w,1,1.3532,1.664542314,1,5,10,1,41,3,1,,,,,,,,,,,,,,
,,,,,,,,,,,right.png,,p,right,61118740f276fed33c6e6894,2021-10-27_12h17.04.904,arrow_simon_punish,2021.1.2,Win32,59.77643613,,,,,,,,,,,,,,w,0,1.4175,2.444498116,1,5,10,2,42,1,1,,,,,,,,,,,,,,
,,,,,,,,,,,right.png,,p,right,61118740f276fed33c6e6894,2021-10-27_12h17.04.904,arrow_simon_punish,2021.1.2,Win32,59.77643613,,,,,,,,,,,,,,p,1,1.5526,2.350527649,0,5,10,3,43,1,1,,,,,,,,,,,,,,
,,,,,,,,,,,right.png,,p,left,61118740f276fed33c6e6894,2021-10-27_12h17.04.904,arrow_simon_punish,2021.1.2,Win32,59.77643613,,,,,,,,,,,,,,p,1,1.5099,2.484709232,0,5,11,0,44,0,1,,,,,,,,,,,,,,
,,,,,,,,,,,left.png,,w,left,61118740f276fed33c6e6894,2021-10-27_12h17.04.904,arrow_simon_punish,2021.1.2,Win32,59.77643613,,,,,,,,,,,,,,w,1,1.4328,2.322129239,0,5,11,1,45,2,1,,,,,,,,,,,,,,
,,,,,,,,,,,right.png,,p,right,61118740f276fed33c6e6894,2021-10-27_12h17.04.904,arrow_simon_punish,2021.1.2,Win32,59.77643613,,,,,,,,,,,,,,p,1,1.2222,1.753199361,1,5,11,2,46,1,1,,,,,,,,,,,,,,
,,,,,,,,,,,left.png,,w,left,61118740f276fed33c6e6894,2021-10-27_12h17.04.904,arrow_simon_punish,2021.1.2,Win32,59.77643613,,,,,,,,,,,,,,w,1,1.3681,1.521262661,1,5,11,3,47,2,1,,,,,,,,,,,,,,
,,,,,,,,,,,left.png,,w,right,61118740f276fed33c6e6894,2021-10-27_12h17.04.904,arrow_simon_punish,2021.1.2,Win32,59.77643613,,,,,,,,,,,,,,w,1,1.4524,1.705835646,0,5,12,0,48,3,1,,,,,,,,,,,,,,
,,,,,,,,,,,left.png,,w,right,61118740f276fed33c6e6894,2021-10-27_12h17.04.904,arrow_simon_punish,2021.1.2,Win32,59.77643613,,,,,,,,,,,,,,w,1,1.3987,1.843103817,1,5,12,1,49,3,1,,,,,,,,,,,,,,
,,,,,,,,,,,left.png,,w,right,61118740f276fed33c6e6894,2021-10-27_12h17.04.904,arrow_simon_punish,2021.1.2,Win32,59.77643613,,,,,,,,,,,,,,w,1,1.4849,1.810710135,0,5,12,2,50,3,1,,,,,,,,,,,,,,
,,,,,,,,,,,right.png,,p,left,61118740f276fed33c6e6894,2021-10-27_12h17.04.904,arrow_simon_punish,2021.1.2,Win32,59.77643613,,,,,,,,,,,,,,p,1,1.4397,2.440233184,0,5,12,3,51,0,1,,,,,,,,,,,,,,
,,,,,,,,,,,right.png,,p,right,61118740f276fed33c6e6894,2021-10-27_12h17.04.904,arrow_simon_punish,2021.1.2,Win32,59.77643613,,,,,,,,,,,,,,p,1,1.4897,1.875814922,0,5,13,0,52,1,1,,,,,,,,,,,,,,
,,,,,,,,,,,right.png,,p,left,61118740f276fed33c6e6894,2021-10-27_12h17.04.904,arrow_simon_punish,2021.1.2,Win32,59.77643613,,,,,,,,,,,,,,p,1,1.5625,2.013214003,0,5,13,1,53,0,1,,,,,,,,,,,,,,
,,,,,,,,,,,left.png,,w,left,61118740f276fed33c6e6894,2021-10-27_12h17.04.904,arrow_simon_punish,2021.1.2,Win32,59.77643613,,,,,,,,,,,,,,p,0,1.5042,2.29715206,1,5,13,2,54,2,1,,,,,,,,,,,,,,
,,,,,,,,,,,right.png,,p,right,61118740f276fed33c6e6894,2021-10-27_12h17.04.904,arrow_simon_punish,2021.1.2,Win32,59.77643613,,,,,,,,,,,,,,p,1,1.4528,1.709703757,0,5,13,3,55,1,1,,,,,,,,,,,,,,
,,,,,,,,,,,right.png,,p,left,61118740f276fed33c6e6894,2021-10-27_12h17.04.904,arrow_simon_punish,2021.1.2,Win32,59.77643613,,,,,,,,,,,,,,p,1,1.4364,1.997553309,0,5,14,0,56,0,1,,,,,,,,,,,,,,
,,,,,,,,,,,left.png,,w,right,61118740f276fed33c6e6894,2021-10-27_12h17.04.904,arrow_simon_punish,2021.1.2,Win32,59.77643613,,,,,,,,,,,,,,w,1,1.3932,1.862775325,1,5,14,1,57,3,1,,,,,,,,,,,,,,
,,,,,,,,,,,left.png,,w,left,61118740f276fed33c6e6894,2021-10-27_12h17.04.904,arrow_simon_punish,2021.1.2,Win32,59.77643613,,,,,,,,,,,,,,p,0,1.4532,2.433982154,1,5,14,2,58,2,1,,,,,,,,,,,,,,
,,,,,,,,,,,right.png,,p,left,61118740f276fed33c6e6894,2021-10-27_12h17.04.904,arrow_simon_punish,2021.1.2,Win32,59.77643613,,,,,,,,,,,,,,p,1,1.5379,2.133000974,0,5,14,3,59,0,1,,,,,,,,,,,,,,
,,,,,,,,,,,,,,,61118740f276fed33c6e6894,2021-10-27_12h17.04.904,arrow_simon_punish,2021.1.2,Win32,59.77643613,,,,,,,,,,,,,,,,,,,,,,,,,space,2.0633,3,0,1,1,1,1,5,,,,,
,,,,,,,,,,,right.png,,p,left,61118740f276fed33c6e6894,2021-10-27_12h17.04.904,arrow_simon_punish,2021.1.2,Win32,59.77643613,,,,,,,,,,,,,,p,1,1.399,1.686779199,1,1,0,0,0,0,1,,,,,,,,,,,,,,
,,,,,,,,,,,left.png,,w,left,61118740f276fed33c6e6894,2021-10-27_12h17.04.904,arrow_simon_punish,2021.1.2,Win32,59.77643613,,,,,,,,,,,,,,w,1,1.5891,1.564058805,0,1,0,1,1,2,1,,,,,,,,,,,,,,
,,,,,,,,,,,left.png,,w,right,61118740f276fed33c6e6894,2021-10-27_12h17.04.904,arrow_simon_punish,2021.1.2,Win32,59.77643613,,,,,,,,,,,,,,w,1,1.6187,1.785210987,1,1,0,2,2,3,1,,,,,,,,,,,,,,
,,,,,,,,,,,left.png,,w,left,61118740f276fed33c6e6894,2021-10-27_12h17.04.904,arrow_simon_punish,2021.1.2,Win32,59.77643613,,,,,,,,,,,,,,w,1,1.4746,1.948921365,0,1,0,3,3,2,1,,,,,,,,,,,,,,
,,,,,,,,,,,left.png,,w,left,61118740f276fed33c6e6894,2021-10-27_12h17.04.904,arrow_simon_punish,2021.1.2,Win32,59.77643613,,,,,,,,,,,,,,w,1,1.5152,1.545156439,0,1,1,0,4,2,1,,,,,,,,,,,,,,
,,,,,,,,,,,left.png,,w,right,61118740f276fed33c6e6894,2021-10-27_12h17.04.904,arrow_simon_punish,2021.1.2,Win32,59.77643613,,,,,,,,,,,,,,p,0,1.5377,2.423035972,1,1,1,1,5,3,1,,,,,,,,,,,,,,
,,,,,,,,,,,right.png,,p,left,61118740f276fed33c6e6894,2021-10-27_12h17.04.904,arrow_simon_punish,2021.1.2,Win32,59.77643613,,,,,,,,,,,,,,p,1,1.4706,1.717988716,0,1,1,2,6,0,1,,,,,,,,,,,,,,
,,,,,,,,,,,left.png,,w,left,61118740f276fed33c6e6894,2021-10-27_12h17.04.904,arrow_simon_punish,2021.1.2,Win32,59.77643613,,,,,,,,,,,,,,w,1,1.4061,1.887343043,0,1,1,3,7,2,1,,,,,,,,,,,,,,
,,,,,,,,,,,left.png,,w,left,61118740f276fed33c6e6894,2021-10-27_12h17.04.904,arrow_simon_punish,2021.1.2,Win32,59.77643613,,,,,,,,,,,,,,w,1,1.5531,2.121582246,0,1,2,0,8,2,1,,,,,,,,,,,,,,
,,,,,,,,,,,left.png,,w,right,61118740f276fed33c6e6894,2021-10-27_12h17.04.904,arrow_simon_punish,2021.1.2,Win32,59.77643613,,,,,,,,,,,,,,p,0,1.4699,2.208387887,1,1,2,1,9,3,1,,,,,,,,,,,,,,
,,,,,,,,,,,left.png,,w,right,61118740f276fed33c6e6894,2021-10-27_12h17.04.904,arrow_simon_punish,2021.1.2,Win32,59.77643613,,,,,,,,,,,,,,p,0,1.6334,2.392099196,1,1,2,2,10,3,1,,,,,,,,,,,,,,
,,,,,,,,,,,right.png,,p,left,61118740f276fed33c6e6894,2021-10-27_12h17.04.904,arrow_simon_punish,2021.1.2,Win32,59.77643613,,,,,,,,,,,,,,p,1,0.9863,1.550487185,1,1,2,3,11,0,1,,,,,,,,,,,,,,
,,,,,,,,,,,right.png,,p,right,61118740f276fed33c6e6894,2021-10-27_12h17.04.904,arrow_simon_punish,2021.1.2,Win32,59.77643613,,,,,,,,,,,,,,p,1,1.4363,1.522805051,0,1,3,0,12,1,1,,,,,,,,,,,,,,
,,,,,,,,,,,right.png,,p,left,61118740f276fed33c6e6894,2021-10-27_12h17.04.904,arrow_simon_punish,2021.1.2,Win32,59.77643613,,,,,,,,,,,,,,p,1,1.392,1.866080464,1,1,3,1,13,0,1,,,,,,,,,,,,,,
,,,,,,,,,,,right.png,,p,left,61118740f276fed33c6e6894,2021-10-27_12h17.04.904,arrow_simon_punish,2021.1.2,Win32,59.77643613,,,,,,,,,,,,,,p,1,1.4946,2.134080646,0,1,3,2,14,0,1,,,,,,,,,,,,,,
,,,,,,,,,,,right.png,,p,left,61118740f276fed33c6e6894,2021-10-27_12h17.04.904,arrow_simon_punish,2021.1.2,Win32,59.77643613,,,,,,,,,,,,,,p,1,1.5205,1.564989976,0,1,3,3,15,0,1,,,,,,,,,,,,,,
,,,,,,,,,,,right.png,,p,left,61118740f276fed33c6e6894,2021-10-27_12h17.04.904,arrow_simon_punish,2021.1.2,Win32,59.77643613,,,,,,,,,,,,,,p,1,1.5342,1.992629786,0,1,4,0,16,0,1,,,,,,,,,,,,,,
,,,,,,,,,,,left.png,,w,left,61118740f276fed33c6e6894,2021-10-27_12h17.04.904,arrow_simon_punish,2021.1.2,Win32,59.77643613,,,,,,,,,,,,,,w,1,1.4216,1.882267642,0,1,4,1,17,2,1,,,,,,,,,,,,,,
,,,,,,,,,,,right.png,,p,left,61118740f276fed33c6e6894,2021-10-27_12h17.04.904,arrow_simon_punish,2021.1.2,Win32,59.77643613,,,,,,,,,,,,,,p,1,1.5366,2.488266615,0,1,4,2,18,0,1,,,,,,,,,,,,,,
,,,,,,,,,,,left.png,,w,left,61118740f276fed33c6e6894,2021-10-27_12h17.04.904,arrow_simon_punish,2021.1.2,Win32,59.77643613,,,,,,,,,,,,,,w,1,1.4695,1.7637339,0,1,4,3,19,2,1,,,,,,,,,,,,,,
,,,,,,,,,,,left.png,,w,right,61118740f276fed33c6e6894,2021-10-27_12h17.04.904,arrow_simon_punish,2021.1.2,Win32,59.77643613,,,,,,,,,,,,,,p,0,1.0231,2.340700106,1,1,5,0,20,3,1,,,,,,,,,,,,,,
,,,,,,,,,,,right.png,,p,right,61118740f276fed33c6e6894,2021-10-27_12h17.04.904,arrow_simon_punish,2021.1.2,Win32,59.77643613,,,,,,,,,,,,,,p,1,1.4212,1.832590377,0,1,5,1,21,1,1,,,,,,,,,,,,,,
,,,,,,,,,,,left.png,,w,right,61118740f276fed33c6e6894,2021-10-27_12h17.04.904,arrow_simon_punish,2021.1.2,Win32,59.77643613,,,,,,,,,,,,,,w,1,1.3655,1.750418471,1,1,5,2,22,3,1,,,,,,,,,,,,,,
,,,,,,,,,,,right.png,,p,right,61118740f276fed33c6e6894,2021-10-27_12h17.04.904,arrow_simon_punish,2021.1.2,Win32,59.77643613,,,,,,,,,,,,,,p,1,1.4522,1.91008473,0,1,5,3,23,1,1,,,,,,,,,,,,,,
,,,,,,,,,,,left.png,,w,left,61118740f276fed33c6e6894,2021-10-27_12h17.04.904,arrow_simon_punish,2021.1.2,Win32,59.77643613,,,,,,,,,,,,,,w,1,1.5744,1.816970103,0,1,6,0,24,2,1,,,,,,,,,,,,,,
,,,,,,,,,,,right.png,,p,left,61118740f276fed33c6e6894,2021-10-27_12h17.04.904,arrow_simon_punish,2021.1.2,Win32,59.77643613,,,,,,,,,,,,,,p,1,1.4381,2.429107819,0,1,6,1,25,0,1,,,,,,,,,,,,,,
,,,,,,,,,,,left.png,,w,left,61118740f276fed33c6e6894,2021-10-27_12h17.04.904,arrow_simon_punish,2021.1.2,Win32,59.77643613,,,,,,,,,,,,,,w,1,1.4639,2.356058829,0,1,6,2,26,2,1,,,,,,,,,,,,,,
,,,,,,,,,,,left.png,,w,right,61118740f276fed33c6e6894,2021-10-27_12h17.04.904,arrow_simon_punish,2021.1.2,Win32,59.77643613,,,,,,,,,,,,,,p,0,1.4215,2.162180293,1,1,6,3,27,3,1,,,,,,,,,,,,,,
,,,,,,,,,,,left.png,,w,left,61118740f276fed33c6e6894,2021-10-27_12h17.04.904,arrow_simon_punish,2021.1.2,Win32,59.77643613,,,,,,,,,,,,,,w,1,1.3934,1.817445921,1,1,7,0,28,2,1,,,,,,,,,,,,,,
,,,,,,,,,,,left.png,,w,right,61118740f276fed33c6e6894,2021-10-27_12h17.04.904,arrow_simon_punish,2021.1.2,Win32,59.77643613,,,,,,,,,,,,,,w,1,1.641,2.138970499,1,1,7,1,29,3,1,,,,,,,,,,,,,,
,,,,,,,,,,,right.png,,p,left,61118740f276fed33c6e6894,2021-10-27_12h17.04.904,arrow_simon_punish,2021.1.2,Win32,59.77643613,,,,,,,,,,,,,,p,1,1.4131,1.546473019,0,1,7,2,30,0,1,,,,,,,,,,,,,,
,,,,,,,,,,,right.png,,p,left,61118740f276fed33c6e6894,2021-10-27_12h17.04.904,arrow_simon_punish,2021.1.2,Win32,59.77643613,,,,,,,,,,,,,,p,1,1.3844,1.755074145,1,1,7,3,31,0,1,,,,,,,,,,,,,,
,,,,,,,,,,,left.png,,w,right,61118740f276fed33c6e6894,2021-10-27_12h17.04.904,arrow_simon_punish,2021.1.2,Win32,59.77643613,,,,,,,,,,,,,,w,1,1.64,2.282523059,1,1,8,0,32,3,1,,,,,,,,,,,,,,
,,,,,,,,,,,right.png,,p,right,61118740f276fed33c6e6894,2021-10-27_12h17.04.904,arrow_simon_punish,2021.1.2,Win32,59.77643613,,,,,,,,,,,,,,p,1,1.3533,1.556073879,1,1,8,1,33,1,1,,,,,,,,,,,,,,
,,,,,,,,,,,right.png,,p,right,61118740f276fed33c6e6894,2021-10-27_12h17.04.904,arrow_simon_punish,2021.1.2,Win32,59.77643613,,,,,,,,,,,,,,w,0,1.4237,2.282073909,1,1,8,2,34,1,1,,,,,,,,,,,,,,
,,,,,,,,,,,right.png,,p,right,61118740f276fed33c6e6894,2021-10-27_12h17.04.904,arrow_simon_punish,2021.1.2,Win32,59.77643613,,,,,,,,,,,,,,p,1,1.4208,1.837677391,0,1,8,3,35,1,1,,,,,,,,,,,,,,
,,,,,,,,,,,left.png,,w,right,61118740f276fed33c6e6894,2021-10-27_12h17.04.904,arrow_simon_punish,2021.1.2,Win32,59.77643613,,,,,,,,,,,,,,w,1,1.4384,1.964571077,0,1,9,0,36,3,1,,,,,,,,,,,,,,
,,,,,,,,,,,right.png,,p,right,61118740f276fed33c6e6894,2021-10-27_12h17.04.904,arrow_simon_punish,2021.1.2,Win32,59.77643613,,,,,,,,,,,,,,p,1,1.4774,2.155524425,0,1,9,1,37,1,1,,,,,,,,,,,,,,
,,,,,,,,,,,right.png,,p,right,61118740f276fed33c6e6894,2021-10-27_12h17.04.904,arrow_simon_punish,2021.1.2,Win32,59.77643613,,,,,,,,,,,,,,p,1,1.4471,1.925600382,0,1,9,2,38,1,1,,,,,,,,,,,,,,
,,,,,,,,,,,left.png,,w,left,61118740f276fed33c6e6894,2021-10-27_12h17.04.904,arrow_simon_punish,2021.1.2,Win32,59.77643613,,,,,,,,,,,,,,w,1,1.5383,1.885143354,0,1,9,3,39,2,1,,,,,,,,,,,,,,
,,,,,,,,,,,right.png,,p,right,61118740f276fed33c6e6894,2021-10-27_12h17.04.904,arrow_simon_punish,2021.1.2,Win32,59.77643613,,,,,,,,,,,,,,p,1,1.3746,2.040149881,1,1,10,0,40,1,1,,,,,,,,,,,,,,
,,,,,,,,,,,left.png,,w,left,61118740f276fed33c6e6894,2021-10-27_12h17.04.904,arrow_simon_punish,2021.1.2,Win32,59.77643613,,,,,,,,,,,,,,w,1,1.4065,1.713272438,0,1,10,1,41,2,1,,,,,,,,,,,,,,
,,,,,,,,,,,right.png,,p,right,61118740f276fed33c6e6894,2021-10-27_12h17.04.904,arrow_simon_punish,2021.1.2,Win32,59.77643613,,,,,,,,,,,,,,p,1,1.4547,1.858476091,0,1,10,2,42,1,1,,,,,,,,,,,,,,
,,,,,,,,,,,right.png,,p,right,61118740f276fed33c6e6894,2021-10-27_12h17.04.904,arrow_simon_punish,2021.1.2,Win32,59.77643613,,,,,,,,,,,,,,w,0,1.526,2.301815357,1,1,10,3,43,1,1,,,,,,,,,,,,,,
,,,,,,,,,,,left.png,,w,right,61118740f276fed33c6e6894,2021-10-27_12h17.04.904,arrow_simon_punish,2021.1.2,Win32,59.77643613,,,,,,,,,,,,,,w,1,1.3775,1.920430213,1,1,11,0,44,3,1,,,,,,,,,,,,,,
,,,,,,,,,,,left.png,,w,left,61118740f276fed33c6e6894,2021-10-27_12h17.04.904,arrow_simon_punish,2021.1.2,Win32,59.77643613,,,,,,,,,,,,,,w,1,1.3388,1.661053514,1,1,11,1,45,2,1,,,,,,,,,,,,,,
,,,,,,,,,,,right.png,,p,right,61118740f276fed33c6e6894,2021-10-27_12h17.04.904,arrow_simon_punish,2021.1.2,Win32,59.77643613,,,,,,,,,,,,,,p,1,1.6756,2.427271297,1,1,11,2,46,1,1,,,,,,,,,,,,,,
,,,,,,,,,,,right.png,,p,right,61118740f276fed33c6e6894,2021-10-27_12h17.04.904,arrow_simon_punish,2021.1.2,Win32,59.77643613,,,,,,,,,,,,,,p,1,1.5199,1.591269141,0,1,11,3,47,1,1,,,,,,,,,,,,,,
,,,,,,,,,,,right.png,,p,left,61118740f276fed33c6e6894,2021-10-27_12h17.04.904,arrow_simon_punish,2021.1.2,Win32,59.77643613,,,,,,,,,,,,,,p,1,1.4527,1.99286163,0,1,12,0,48,0,1,,,,,,,,,,,,,,
,,,,,,,,,,,left.png,,w,right,61118740f276fed33c6e6894,2021-10-27_12h17.04.904,arrow_simon_punish,2021.1.2,Win32,59.77643613,,,,,,,,,,,,,,w,1,1.4846,1.549487798,0,1,12,1,49,3,1,,,,,,,,,,,,,,
,,,,,,,,,,,right.png,,p,left,61118740f276fed33c6e6894,2021-10-27_12h17.04.904,arrow_simon_punish,2021.1.2,Win32,59.77643613,,,,,,,,,,,,,,p,1,1.4194,2.076926534,0,1,12,2,50,0,1,,,,,,,,,,,,,,
,,,,,,,,,,,right.png,,p,right,61118740f276fed33c6e6894,2021-10-27_12h17.04.904,arrow_simon_punish,2021.1.2,Win32,59.77643613,,,,,,,,,,,,,,p,1,1.5514,2.184129917,0,1,12,3,51,1,1,,,,,,,,,,,,,,
,,,,,,,,,,,left.png,,w,right,61118740f276fed33c6e6894,2021-10-27_12h17.04.904,arrow_simon_punish,2021.1.2,Win32,59.77643613,,,,,,,,,,,,,,w,1,1.3524,1.709757377,1,1,13,0,52,3,1,,,,,,,,,,,,,,
,,,,,,,,,,,right.png,,p,right,61118740f276fed33c6e6894,2021-10-27_12h17.04.904,arrow_simon_punish,2021.1.2,Win32,59.77643613,,,,,,,,,,,,,,p,1,1.3832,2.132503382,1,1,13,1,53,1,1,,,,,,,,,,,,,,
,,,,,,,,,,,left.png,,w,left,61118740f276fed33c6e6894,2021-10-27_12h17.04.904,arrow_simon_punish,2021.1.2,Win32,59.77643613,,,,,,,,,,,,,,w,1,1.2278,1.629306411,1,1,13,2,54,2,1,,,,,,,,,,,,,,
,,,,,,,,,,,left.png,,w,left,61118740f276fed33c6e6894,2021-10-27_12h17.04.904,arrow_simon_punish,2021.1.2,Win32,59.77643613,,,,,,,,,,,,,,p,0,1.6535,2.449142698,1,1,13,3,55,2,1,,,,,,,,,,,,,,
,,,,,,,,,,,left.png,,w,right,61118740f276fed33c6e6894,2021-10-27_12h17.04.904,arrow_simon_punish,2021.1.2,Win32,59.77643613,,,,,,,,,,,,,,w,1,1.5039,1.976764701,0,1,14,0,56,3,1,,,,,,,,,,,,,,
,,,,,,,,,,,right.png,,p,left,61118740f276fed33c6e6894,2021-10-27_12h17.04.904,arrow_simon_punish,2021.1.2,Win32,59.77643613,,,,,,,,,,,,,,p,1,1.4081,2.464540693,0,1,14,1,57,0,1,,,,,,,,,,,,,,
,,,,,,,,,,,right.png,,p,left,61118740f276fed33c6e6894,2021-10-27_12h17.04.904,arrow_simon_punish,2021.1.2,Win32,59.77643613,,,,,,,,,,,,,,p,1,1.5088,2.092711659,0,1,14,2,58,0,1,,,,,,,,,,,,,,
,,,,,,,,,,,left.png,,w,right,61118740f276fed33c6e6894,2021-10-27_12h17.04.904,arrow_simon_punish,2021.1.2,Win32,59.77643613,,,,,,,,,,,,,,w,1,1.4528,2.024691011,0,1,14,3,59,3,1,,,,,,,,,,,,,,
,,,,,,,,,,,,,,,61118740f276fed33c6e6894,2021-10-27_12h17.04.904,arrow_simon_punish,2021.1.2,Win32,59.77643613,,,,,,,,,,,,,,,,,,,,,,,,,space,1.2283,4,1,0,2,0,1,1,,,,,
,,,,,,,,,,,left.png,,w,right,61118740f276fed33c6e6894,2021-10-27_12h17.04.904,arrow_simon_punish,2021.1.2,Win32,59.77643613,,,,,,,,,,,,,,w,1,1.4934,2.095125441,0,5,0,0,0,3,1,,,,,,,,,,,,,,
,,,,,,,,,,,left.png,,w,left,61118740f276fed33c6e6894,2021-10-27_12h17.04.904,arrow_simon_punish,2021.1.2,Win32,59.77643613,,,,,,,,,,,,,,p,0,1.4684,2.207466663,1,5,0,1,1,2,1,,,,,,,,,,,,,,
,,,,,,,,,,,left.png,,w,right,61118740f276fed33c6e6894,2021-10-27_12h17.04.904,arrow_simon_punish,2021.1.2,Win32,59.77643613,,,,,,,,,,,,,,w,1,1.4618,2.062904175,0,5,0,2,2,3,1,,,,,,,,,,,,,,
,,,,,,,,,,,left.png,,w,left,61118740f276fed33c6e6894,2021-10-27_12h17.04.904,arrow_simon_punish,2021.1.2,Win32,59.77643613,,,,,,,,,,,,,,p,0,1.4225,2.213565957,1,5,0,3,3,2,1,,,,,,,,,,,,,,
,,,,,,,,,,,right.png,,p,left,61118740f276fed33c6e6894,2021-10-27_12h17.04.904,arrow_simon_punish,2021.1.2,Win32,59.77643613,,,,,,,,,,,,,,p,1,1.5228,1.828107592,0,5,1,0,4,0,1,,,,,,,,,,,,,,
,,,,,,,,,,,right.png,,p,left,61118740f276fed33c6e6894,2021-10-27_12h17.04.904,arrow_simon_punish,2021.1.2,Win32,59.77643613,,,,,,,,,,,,,,p,1,1.3852,1.976523979,1,5,1,1,5,0,1,,,,,,,,,,,,,,
,,,,,,,,,,,right.png,,p,left,61118740f276fed33c6e6894,2021-10-27_12h17.04.904,arrow_simon_punish,2021.1.2,Win32,59.77643613,,,,,,,,,,,,,,p,1,1.4813,2.133460068,0,5,1,2,6,0,1,,,,,,,,,,,,,,
,,,,,,,,,,,left.png,,w,left,61118740f276fed33c6e6894,2021-10-27_12h17.04.904,arrow_simon_punish,2021.1.2,Win32,59.77643613,,,,,,,,,,,,,,w,1,1.5328,1.957167158,0,5,1,3,7,2,1,,,,,,,,,,,,,,
,,,,,,,,,,,right.png,,p,left,61118740f276fed33c6e6894,2021-10-27_12h17.04.904,arrow_simon_punish,2021.1.2,Win32,59.77643613,,,,,,,,,,,,,,p,1,1.4785,1.792551659,0,5,2,0,8,0,1,,,,,,,,,,,,,,
,,,,,,,,,,,left.png,,w,left,61118740f276fed33c6e6894,2021-10-27_12h17.04.904,arrow_simon_punish,2021.1.2,Win32,59.77643613,,,,,,,,,,,,,,w,1,1.5045,2.271336104,0,5,2,1,9,2,1,,,,,,,,,,,,,,
,,,,,,,,,,,left.png,,w,right,61118740f276fed33c6e6894,2021-10-27_12h17.04.904,arrow_simon_punish,2021.1.2,Win32,59.77643613,,,,,,,,,,,,,,p,0,1.3894,2.264678076,1,5,2,2,10,3,1,,,,,,,,,,,,,,
,,,,,,,,,,,right.png,,p,right,61118740f276fed33c6e6894,2021-10-27_12h17.04.904,arrow_simon_punish,2021.1.2,Win32,59.77643613,,,,,,,,,,,,,,p,1,1.4867,1.691115704,0,5,2,3,11,1,1,,,,,,,,,,,,,,
,,,,,,,,,,,left.png,,w,right,61118740f276fed33c6e6894,2021-10-27_12h17.04.904,arrow_simon_punish,2021.1.2,Win32,59.77643613,,,,,,,,,,,,,,w,1,1.6041,2.314071031,1,5,3,0,12,3,1,,,,,,,,,,,,,,
,,,,,,,,,,,left.png,,w,right,61118740f276fed33c6e6894,2021-10-27_12h17.04.904,arrow_simon_punish,2021.1.2,Win32,59.77643613,,,,,,,,,,,,,,w,1,1.49,2.006175833,0,5,3,1,13,3,1,,,,,,,,,,,,,,
,,,,,,,,,,,right.png,,p,right,61118740f276fed33c6e6894,2021-10-27_12h17.04.904,arrow_simon_punish,2021.1.2,Win32,59.77643613,,,,,,,,,,,,,,p,1,1.5393,2.014715147,0,5,3,2,14,1,1,,,,,,,,,,,,,,
,,,,,,,,,,,left.png,,w,right,61118740f276fed33c6e6894,2021-10-27_12h17.04.904,arrow_simon_punish,2021.1.2,Win32,59.77643613,,,,,,,,,,,,,,w,1,1.4877,2.106876886,0,5,3,3,15,3,1,,,,,,,,,,,,,,
,,,,,,,,,,,right.png,,p,right,61118740f276fed33c6e6894,2021-10-27_12h17.04.904,arrow_simon_punish,2021.1.2,Win32,59.77643613,,,,,,,,,,,,,,p,1,1.4213,2.247914628,0,5,4,0,16,1,1,,,,,,,,,,,,,,
,,,,,,,,,,,left.png,,w,right,61118740f276fed33c6e6894,2021-10-27_12h17.04.904,arrow_simon_punish,2021.1.2,Win32,59.77643613,,,,,,,,,,,,,,w,1,1.4334,1.922070939,0,5,4,1,17,3,1,,,,,,,,,,,,,,
,,,,,,,,,,,right.png,,p,left,61118740f276fed33c6e6894,2021-10-27_12h17.04.904,arrow_simon_punish,2021.1.2,Win32,59.77643613,,,,,,,,,,,,,,p,1,1.4873,1.853650434,0,5,4,2,18,0,1,,,,,,,,,,,,,,
,,,,,,,,,,,left.png,,w,left,61118740f276fed33c6e6894,2021-10-27_12h17.04.904,arrow_simon_punish,2021.1.2,Win32,59.77643613,,,,,,,,,,,,,,w,1,1.4354,1.890795625,0,5,4,3,19,2,1,,,,,,,,,,,,,,
,,,,,,,,,,,left.png,,w,right,61118740f276fed33c6e6894,2021-10-27_12h17.04.904,arrow_simon_punish,2021.1.2,Win32,59.77643613,,,,,,,,,,,,,,w,1,1.503,2.112031075,0,5,5,0,20,3,1,,,,,,,,,,,,,,
,,,,,,,,,,,left.png,,w,left,61118740f276fed33c6e6894,2021-10-27_12h17.04.904,arrow_simon_punish,2021.1.2,Win32,59.77643613,,,,,,,,,,,,,,w,1,1.5524,2.10488874,0,5,5,1,21,2,1,,,,,,,,,,,,,,
,,,,,,,,,,,right.png,,p,right,61118740f276fed33c6e6894,2021-10-27_12h17.04.904,arrow_simon_punish,2021.1.2,Win32,59.77643613,,,,,,,,,,,,,,p,1,1.4861,1.984345625,0,5,5,2,22,1,1,,,,,,,,,,,,,,
,,,,,,,,,,,right.png,,p,left,61118740f276fed33c6e6894,2021-10-27_12h17.04.904,arrow_simon_punish,2021.1.2,Win32,59.77643613,,,,,,,,,,,,,,p,1,1.4697,1.723791606,0,5,5,3,23,0,1,,,,,,,,,,,,,,
,,,,,,,,,,,left.png,,w,right,61118740f276fed33c6e6894,2021-10-27_12h17.04.904,arrow_simon_punish,2021.1.2,Win32,59.77643613,,,,,,,,,,,,,,w,1,1.5809,1.782297343,0,5,6,0,24,3,1,,,,,,,,,,,,,,
,,,,,,,,,,,left.png,,w,left,61118740f276fed33c6e6894,2021-10-27_12h17.04.904,arrow_simon_punish,2021.1.2,Win32,59.77643613,,,,,,,,,,,,,,w,1,1.4189,1.589758644,0,5,6,1,25,2,1,,,,,,,,,,,,,,
,,,,,,,,,,,left.png,,w,left,61118740f276fed33c6e6894,2021-10-27_12h17.04.904,arrow_simon_punish,2021.1.2,Win32,59.77643613,,,,,,,,,,,,,,w,1,1.4694,1.807054757,0,5,6,2,26,2,1,,,,,,,,,,,,,,
,,,,,,,,,,,left.png,,w,right,61118740f276fed33c6e6894,2021-10-27_12h17.04.904,arrow_simon_punish,2021.1.2,Win32,59.77643613,,,,,,,,,,,,,,p,0,1.6526,2.375126294,1,5,6,3,27,3,1,,,,,,,,,,,,,,
,,,,,,,,,,,left.png,,w,left,61118740f276fed33c6e6894,2021-10-27_12h17.04.904,arrow_simon_punish,2021.1.2,Win32,59.77643613,,,,,,,,,,,,,,w,1,1.4987,2.197073581,0,5,7,0,28,2,1,,,,,,,,,,,,,,
,,,,,,,,,,,left.png,,w,left,61118740f276fed33c6e6894,2021-10-27_12h17.04.904,arrow_simon_punish,2021.1.2,Win32,59.77643613,,,,,,,,,,,,,,w,1,1.4004,1.522589338,0,5,7,1,29,2,1,,,,,,,,,,,,,,
,,,,,,,,,,,right.png,,p,left,61118740f276fed33c6e6894,2021-10-27_12h17.04.904,arrow_simon_punish,2021.1.2,Win32,59.77643613,,,,,,,,,,,,,,p,1,1.4926,1.686338233,0,5,7,2,30,0,1,,,,,,,,,,,,,,
,,,,,,,,,,,left.png,,w,left,61118740f276fed33c6e6894,2021-10-27_12h17.04.904,arrow_simon_punish,2021.1.2,Win32,59.77643613,,,,,,,,,,,,,,w,1,1.5195,1.813255751,0,5,7,3,31,2,1,,,,,,,,,,,,,,
,,,,,,,,,,,left.png,,w,right,61118740f276fed33c6e6894,2021-10-27_12h17.04.904,arrow_simon_punish,2021.1.2,Win32,59.77643613,,,,,,,,,,,,,,p,0,1.3932,2.311755489,1,5,8,0,32,3,1,,,,,,,,,,,,,,
,,,,,,,,,,,right.png,,p,left,61118740f276fed33c6e6894,2021-10-27_12h17.04.904,arrow_simon_punish,2021.1.2,Win32,59.77643613,,,,,,,,,,,,,,p,1,1.5191,1.72233857,0,5,8,1,33,0,1,,,,,,,,,,,,,,
,,,,,,,,,,,right.png,,p,left,61118740f276fed33c6e6894,2021-10-27_12h17.04.904,arrow_simon_punish,2021.1.2,Win32,59.77643613,,,,,,,,,,,,,,w,0,1.5128,2.403935189,1,5,8,2,34,0,1,,,,,,,,,,,,,,
,,,,,,,,,,,right.png,,p,left,61118740f276fed33c6e6894,2021-10-27_12h17.04.904,arrow_simon_punish,2021.1.2,Win32,59.77643613,,,,,,,,,,,,,,p,1,1.3955,1.788526547,1,5,8,3,35,0,1,,,,,,,,,,,,,,
,,,,,,,,,,,right.png,,p,left,61118740f276fed33c6e6894,2021-10-27_12h17.04.904,arrow_simon_punish,2021.1.2,Win32,59.77643613,,,,,,,,,,,,,,p,1,1.4231,2.052216002,0,5,9,0,36,0,1,,,,,,,,,,,,,,
,,,,,,,,,,,right.png,,p,left,61118740f276fed33c6e6894,2021-10-27_12h17.04.904,arrow_simon_punish,2021.1.2,Win32,59.77643613,,,,,,,,,,,,,,p,1,1.5702,2.056952579,0,5,9,1,37,0,1,,,,,,,,,,,,,,
,,,,,,,,,,,right.png,,p,right,61118740f276fed33c6e6894,2021-10-27_12h17.04.904,arrow_simon_punish,2021.1.2,Win32,59.77643613,,,,,,,,,,,,,,p,1,1.4217,1.518531047,0,5,9,2,38,1,1,,,,,,,,,,,,,,
,,,,,,,,,,,left.png,,w,right,61118740f276fed33c6e6894,2021-10-27_12h17.04.904,arrow_simon_punish,2021.1.2,Win32,59.77643613,,,,,,,,,,,,,,w,1,1.4062,2.043856147,0,5,9,3,39,3,1,,,,,,,,,,,,,,
,,,,,,,,,,,right.png,,p,right,61118740f276fed33c6e6894,2021-10-27_12h17.04.904,arrow_simon_punish,2021.1.2,Win32,59.77643613,,,,,,,,,,,,,,p,1,1.4889,2.401597664,0,5,10,0,40,1,1,,,,,,,,,,,,,,
,,,,,,,,,,,right.png,,p,right,61118740f276fed33c6e6894,2021-10-27_12h17.04.904,arrow_simon_punish,2021.1.2,Win32,59.77643613,,,,,,,,,,,,,,p,1,1.428,1.508139761,0,5,10,1,41,1,1,,,,,,,,,,,,,,
,,,,,,,,,,,left.png,,w,right,61118740f276fed33c6e6894,2021-10-27_12h17.04.904,arrow_simon_punish,2021.1.2,Win32,59.77643613,,,,,,,,,,,,,,p,0,1.4301,2.136033589,1,5,10,2,42,3,1,,,,,,,,,,,,,,
,,,,,,,,,,,right.png,,p,right,61118740f276fed33c6e6894,2021-10-27_12h17.04.904,arrow_simon_punish,2021.1.2,Win32,59.77643613,,,,,,,,,,,,,,p,1,1.5049,2.211258947,0,5,10,3,43,1,1,,,,,,,,,,,,,,
,,,,,,,,,,,left.png,,w,right,61118740f276fed33c6e6894,2021-10-27_12h17.04.904,arrow_simon_punish,2021.1.2,Win32,59.77643613,,,,,,,,,,,,,,w,1,1.4093,2.032810165,0,5,11,0,44,3,1,,,,,,,,,,,,,,
,,,,,,,,,,,right.png,,p,left,61118740f276fed33c6e6894,2021-10-27_12h17.04.904,arrow_simon_punish,2021.1.2,Win32,59.77643613,,,,,,,,,,,,,,p,1,1.5084,2.295053839,0,5,11,1,45,0,1,,,,,,,,,,,,,,
,,,,,,,,,,,right.png,,p,right,61118740f276fed33c6e6894,2021-10-27_12h17.04.904,arrow_simon_punish,2021.1.2,Win32,59.77643613,,,,,,,,,,,,,,w,0,1.4275,2.396129218,1,5,11,2,46,1,1,,,,,,,,,,,,,,
,,,,,,,,,,,right.png,,p,left,61118740f276fed33c6e6894,2021-10-27_12h17.04.904,arrow_simon_punish,2021.1.2,Win32,59.77643613,,,,,,,,,,,,,,p,1,1.4049,2.018843459,0,5,11,3,47,0,1,,,,,,,,,,,,,,
,,,,,,,,,,,left.png,,w,left,61118740f276fed33c6e6894,2021-10-27_12h17.04.904,arrow_simon_punish,2021.1.2,Win32,59.77643613,,,,,,,,,,,,,,w,1,1.3881,1.689181563,1,5,12,0,48,2,1,,,,,,,,,,,,,,
,,,,,,,,,,,right.png,,p,right,61118740f276fed33c6e6894,2021-10-27_12h17.04.904,arrow_simon_punish,2021.1.2,Win32,59.77643613,,,,,,,,,,,,,,p,1,1.5405,1.610310176,0,5,12,1,49,1,1,,,,,,,,,,,,,,
,,,,,,,,,,,right.png,,p,right,61118740f276fed33c6e6894,2021-10-27_12h17.04.904,arrow_simon_punish,2021.1.2,Win32,59.77643613,,,,,,,,,,,,,,p,1,1.4854,1.555392721,0,5,12,2,50,1,1,,,,,,,,,,,,,,
,,,,,,,,,,,right.png,,p,right,61118740f276fed33c6e6894,2021-10-27_12h17.04.904,arrow_simon_punish,2021.1.2,Win32,59.77643613,,,,,,,,,,,,,,p,1,1.3795,1.623299008,1,5,12,3,51,1,1,,,,,,,,,,,,,,
,,,,,,,,,,,right.png,,p,right,61118740f276fed33c6e6894,2021-10-27_12h17.04.904,arrow_simon_punish,2021.1.2,Win32,59.77643613,,,,,,,,,,,,,,p,1,1.4269,1.935818501,0,5,13,0,52,1,1,,,,,,,,,,,,,,
,,,,,,,,,,,right.png,,p,right,61118740f276fed33c6e6894,2021-10-27_12h17.04.904,arrow_simon_punish,2021.1.2,Win32,59.77643613,,,,,,,,,,,,,,p,1,1.4576,1.961964299,0,5,13,1,53,1,1,,,,,,,,,,,,,,
,,,,,,,,,,,left.png,,w,left,61118740f276fed33c6e6894,2021-10-27_12h17.04.904,arrow_simon_punish,2021.1.2,Win32,59.77643613,,,,,,,,,,,,,,w,1,1.5026,1.756567941,0,5,13,2,54,2,1,,,,,,,,,,,,,,
,,,,,,,,,,,left.png,,w,left,61118740f276fed33c6e6894,2021-10-27_12h17.04.904,arrow_simon_punish,2021.1.2,Win32,59.77643613,,,,,,,,,,,,,,w,1,1.4083,2.026291623,0,5,13,3,55,2,1,,,,,,,,,,,,,,
,,,,,,,,,,,right.png,,p,left,61118740f276fed33c6e6894,2021-10-27_12h17.04.904,arrow_simon_punish,2021.1.2,Win32,59.77643613,,,,,,,,,,,,,,p,1,1.5549,1.817708734,0,5,14,0,56,0,1,,,,,,,,,,,,,,
,,,,,,,,,,,left.png,,w,right,61118740f276fed33c6e6894,2021-10-27_12h17.04.904,arrow_simon_punish,2021.1.2,Win32,59.77643613,,,,,,,,,,,,,,w,1,1.5218,2.153679219,0,5,14,1,57,3,1,,,,,,,,,,,,,,
,,,,,,,,,,,right.png,,p,right,61118740f276fed33c6e6894,2021-10-27_12h17.04.904,arrow_simon_punish,2021.1.2,Win32,59.77643613,,,,,,,,,,,,,,p,1,1.5236,2.174183406,0,5,14,2,58,1,1,,,,,,,,,,,,,,
,,,,,,,,,,,left.png,,w,left,61118740f276fed33c6e6894,2021-10-27_12h17.04.904,arrow_simon_punish,2021.1.2,Win32,59.77643613,,,,,,,,,,,,,,w,1,1.5569,2.152687169,0,5,14,3,59,2,1,,,,,,,,,,,,,,
,,,,,,,,,,,,,,,61118740f276fed33c6e6894,2021-10-27_12h17.04.904,arrow_simon_punish,2021.1.2,Win32,59.77643613,,,,,,,,,,,,,,,,,,,,,,,,,space,108.2106,5,1,1,3,1,1,5,,,,,
,,,,,,,,,,,right.png,,p,left,61118740f276fed33c6e6894,2021-10-27_12h17.04.904,arrow_simon_punish,2021.1.2,Win32,59.77643613,,,,,,,,,,,,,,p,1,1.4541,1.581412129,0,1,0,0,0,0,1,,,,,,,,,,,,,,
,,,,,,,,,,,right.png,,p,right,61118740f276fed33c6e6894,2021-10-27_12h17.04.904,arrow_simon_punish,2021.1.2,Win32,59.77643613,,,,,,,,,,,,,,p,1,1.4938,2.02481774,0,1,0,1,1,1,1,,,,,,,,,,,,,,
,,,,,,,,,,,left.png,,w,left,61118740f276fed33c6e6894,2021-10-27_12h17.04.904,arrow_simon_punish,2021.1.2,Win32,59.77643613,,,,,,,,,,,,,,w,1,1.5073,2.246809406,0,1,0,2,2,2,1,,,,,,,,,,,,,,
,,,,,,,,,,,left.png,,w,right,61118740f276fed33c6e6894,2021-10-27_12h17.04.904,arrow_simon_punish,2021.1.2,Win32,59.77643613,,,,,,,,,,,,,,p,0,1.5392,2.413414812,1,1,0,3,3,3,1,,,,,,,,,,,,,,
,,,,,,,,,,,right.png,,p,left,61118740f276fed33c6e6894,2021-10-27_12h17.04.904,arrow_simon_punish,2021.1.2,Win32,59.77643613,,,,,,,,,,,,,,p,1,1.5024,1.920496284,0,1,1,0,4,0,1,,,,,,,,,,,,,,
,,,,,,,,,,,left.png,,w,right,61118740f276fed33c6e6894,2021-10-27_12h17.04.904,arrow_simon_punish,2021.1.2,Win32,59.77643613,,,,,,,,,,,,,,w,1,1.4281,2.306403649,0,1,1,1,5,3,1,,,,,,,,,,,,,,
,,,,,,,,,,,right.png,,p,right,61118740f276fed33c6e6894,2021-10-27_12h17.04.904,arrow_simon_punish,2021.1.2,Win32,59.77643613,,,,,,,,,,,,,,p,1,1.5535,2.27605336,0,1,1,2,6,1,1,,,,,,,,,,,,,,
,,,,,,,,,,,left.png,,w,left,61118740f276fed33c6e6894,2021-10-27_12h17.04.904,arrow_simon_punish,2021.1.2,Win32,59.77643613,,,,,,,,,,,,,,w,1,1.5036,1.754232002,0,1,1,3,7,2,1,,,,,,,,,,,,,,
,,,,,,,,,,,left.png,,w,left,61118740f276fed33c6e6894,2021-10-27_12h17.04.904,arrow_simon_punish,2021.1.2,Win32,59.77643613,,,,,,,,,,,,,,w,1,1.5323,1.995834287,0,1,2,0,8,2,1,,,,,,,,,,,,,,
,,,,,,,,,,,left.png,,w,left,61118740f276fed33c6e6894,2021-10-27_12h17.04.904,arrow_simon_punish,2021.1.2,Win32,59.77643613,,,,,,,,,,,,,,w,1,1.4586,1.531800659,0,1,2,1,9,2,1,,,,,,,,,,,,,,
,,,,,,,,,,,left.png,,w,right,61118740f276fed33c6e6894,2021-10-27_12h17.04.904,arrow_simon_punish,2021.1.2,Win32,59.77643613,,,,,,,,,,,,,,p,0,1.4858,2.243099831,1,1,2,2,10,3,1,,,,,,,,,,,,,,
,,,,,,,,,,,left.png,,w,left,61118740f276fed33c6e6894,2021-10-27_12h17.04.904,arrow_simon_punish,2021.1.2,Win32,59.77643613,,,,,,,,,,,,,,w,1,1.5532,2.257248918,0,1,2,3,11,2,1,,,,,,,,,,,,,,
,,,,,,,,,,,right.png,,p,left,61118740f276fed33c6e6894,2021-10-27_12h17.04.904,arrow_simon_punish,2021.1.2,Win32,59.77643613,,,,,,,,,,,,,,p,1,1.5026,2.040173347,0,1,3,0,12,0,1,,,,,,,,,,,,,,
,,,,,,,,,,,left.png,,w,right,61118740f276fed33c6e6894,2021-10-27_12h17.04.904,arrow_simon_punish,2021.1.2,Win32,59.77643613,,,,,,,,,,,,,,w,1,1.536,2.360717944,0,1,3,1,13,3,1,,,,,,,,,,,,,,
,,,,,,,,,,,left.png,,w,right,61118740f276fed33c6e6894,2021-10-27_12h17.04.904,arrow_simon_punish,2021.1.2,Win32,59.77643613,,,,,,,,,,,,,,w,1,1.854,1.562396909,1,1,3,2,14,3,1,,,,,,,,,,,,,,
,,,,,,,,,,,right.png,,p,left,61118740f276fed33c6e6894,2021-10-27_12h17.04.904,arrow_simon_punish,2021.1.2,Win32,59.77643613,,,,,,,,,,,,,,p,1,1.5038,1.937835062,0,1,3,3,15,0,1,,,,,,,,,,,,,,
,,,,,,,,,,,right.png,,p,left,61118740f276fed33c6e6894,2021-10-27_12h17.04.904,arrow_simon_punish,2021.1.2,Win32,59.77643613,,,,,,,,,,,,,,w,0,1.437,2.213891692,1,1,4,0,16,0,1,,,,,,,,,,,,,,
,,,,,,,,,,,right.png,,p,right,61118740f276fed33c6e6894,2021-10-27_12h17.04.904,arrow_simon_punish,2021.1.2,Win32,59.77643613,,,,,,,,,,,,,,w,0,1.5194,2.100024235,1,1,4,1,17,1,1,,,,,,,,,,,,,,
,,,,,,,,,,,right.png,,p,right,61118740f276fed33c6e6894,2021-10-27_12h17.04.904,arrow_simon_punish,2021.1.2,Win32,59.77643613,,,,,,,,,,,,,,p,1,1.4534,1.740391077,0,1,4,2,18,1,1,,,,,,,,,,,,,,
,,,,,,,,,,,left.png,,w,left,61118740f276fed33c6e6894,2021-10-27_12h17.04.904,arrow_simon_punish,2021.1.2,Win32,59.77643613,,,,,,,,,,,,,,w,1,1.5196,1.519153668,0,1,4,3,19,2,1,,,,,,,,,,,,,,
,,,,,,,,,,,right.png,,p,right,61118740f276fed33c6e6894,2021-10-27_12h17.04.904,arrow_simon_punish,2021.1.2,Win32,59.77643613,,,,,,,,,,,,,,p,1,1.4515,1.61535715,0,1,5,0,20,1,1,,,,,,,,,,,,,,
,,,,,,,,,,,right.png,,p,right,61118740f276fed33c6e6894,2021-10-27_12h17.04.904,arrow_simon_punish,2021.1.2,Win32,59.77643613,,,,,,,,,,,,,,p,1,1.339,1.850439728,1,1,5,1,21,1,1,,,,,,,,,,,,,,
,,,,,,,,,,,right.png,,p,left,61118740f276fed33c6e6894,2021-10-27_12h17.04.904,arrow_simon_punish,2021.1.2,Win32,59.77643613,,,,,,,,,,,,,,w,0,1.414,2.165055211,1,1,5,2,22,0,1,,,,,,,,,,,,,,
,,,,,,,,,,,right.png,,p,left,61118740f276fed33c6e6894,2021-10-27_12h17.04.904,arrow_simon_punish,2021.1.2,Win32,59.77643613,,,,,,,,,,,,,,p,1,1.8549,1.838787226,1,1,5,3,23,0,1,,,,,,,,,,,,,,
,,,,,,,,,,,left.png,,w,left,61118740f276fed33c6e6894,2021-10-27_12h17.04.904,arrow_simon_punish,2021.1.2,Win32,59.77643613,,,,,,,,,,,,,,w,1,1.3456,1.589681522,1,1,6,0,24,2,1,,,,,,,,,,,,,,
,,,,,,,,,,,left.png,,w,right,61118740f276fed33c6e6894,2021-10-27_12h17.04.904,arrow_simon_punish,2021.1.2,Win32,59.77643613,,,,,,,,,,,,,,w,1,1.4194,1.566577067,0,1,6,1,25,3,1,,,,,,,,,,,,,,
,,,,,,,,,,,right.png,,p,left,61118740f276fed33c6e6894,2021-10-27_12h17.04.904,arrow_simon_punish,2021.1.2,Win32,59.77643613,,,,,,,,,,,,,,p,1,1.4863,2.31114674,0,1,6,2,26,0,1,,,,,,,,,,,,,,
,,,,,,,,,,,left.png,,w,left,61118740f276fed33c6e6894,2021-10-27_12h17.04.904,arrow_simon_punish,2021.1.2,Win32,59.77643613,,,,,,,,,,,,,,w,1,1.4213,2.426529599,0,1,6,3,27,2,1,,,,,,,,,,,,,,
,,,,,,,,,,,right.png,,p,left,61118740f276fed33c6e6894,2021-10-27_12h17.04.904,arrow_simon_punish,2021.1.2,Win32,59.77643613,,,,,,,,,,,,,,p,1,1.5481,1.523781585,0,1,7,0,28,0,1,,,,,,,,,,,,,,
,,,,,,,,,,,left.png,,w,right,61118740f276fed33c6e6894,2021-10-27_12h17.04.904,arrow_simon_punish,2021.1.2,Win32,59.77643613,,,,,,,,,,,,,,w,1,1.4946,1.713001506,0,1,7,1,29,3,1,,,,,,,,,,,,,,
,,,,,,,,,,,right.png,,p,left,61118740f276fed33c6e6894,2021-10-27_12h17.04.904,arrow_simon_punish,2021.1.2,Win32,59.77643613,,,,,,,,,,,,,,p,1,1.5475,2.36608988,0,1,7,2,30,0,1,,,,,,,,,,,,,,
,,,,,,,,,,,left.png,,w,right,61118740f276fed33c6e6894,2021-10-27_12h17.04.904,arrow_simon_punish,2021.1.2,Win32,59.77643613,,,,,,,,,,,,,,p,0,1.3875,2.070256389,1,1,7,3,31,3,1,,,,,,,,,,,,,,
,,,,,,,,,,,left.png,,w,left,61118740f276fed33c6e6894,2021-10-27_12h17.04.904,arrow_simon_punish,2021.1.2,Win32,59.77643613,,,,,,,,,,,,,,w,1,1.3885,1.554475824,1,1,8,0,32,2,1,,,,,,,,,,,,,,
,,,,,,,,,,,left.png,,w,left,61118740f276fed33c6e6894,2021-10-27_12h17.04.904,arrow_simon_punish,2021.1.2,Win32,59.77643613,,,,,,,,,,,,,,w,1,1.535,1.567668292,0,1,8,1,33,2,1,,,,,,,,,,,,,,
,,,,,,,,,,,right.png,,p,right,61118740f276fed33c6e6894,2021-10-27_12h17.04.904,arrow_simon_punish,2021.1.2,Win32,59.77643613,,,,,,,,,,,,,,p,1,1.5375,1.78240357,0,1,8,2,34,1,1,,,,,,,,,,,,,,
,,,,,,,,,,,right.png,,p,right,61118740f276fed33c6e6894,2021-10-27_12h17.04.904,arrow_simon_punish,2021.1.2,Win32,59.77643613,,,,,,,,,,,,,,p,1,1.5616,2.243340181,0,1,8,3,35,1,1,,,,,,,,,,,,,,
,,,,,,,,,,,left.png,,w,right,61118740f276fed33c6e6894,2021-10-27_12h17.04.904,arrow_simon_punish,2021.1.2,Win32,59.77643613,,,,,,,,,,,,,,p,0,1.5727,2.425848,1,1,9,0,36,3,1,,,,,,,,,,,,,,
,,,,,,,,,,,left.png,,w,left,61118740f276fed33c6e6894,2021-10-27_12h17.04.904,arrow_simon_punish,2021.1.2,Win32,59.77643613,,,,,,,,,,,,,,w,1,1.4634,2.211147994,0,1,9,1,37,2,1,,,,,,,,,,,,,,
,,,,,,,,,,,right.png,,p,right,61118740f276fed33c6e6894,2021-10-27_12h17.04.904,arrow_simon_punish,2021.1.2,Win32,59.77643613,,,,,,,,,,,,,,p,1,1.4363,1.850635741,0,1,9,2,38,1,1,,,,,,,,,,,,,,
,,,,,,,,,,,left.png,,w,right,61118740f276fed33c6e6894,2021-10-27_12h17.04.904,arrow_simon_punish,2021.1.2,Win32,59.77643613,,,,,,,,,,,,,,w,1,1.4436,2.099344355,0,1,9,3,39,3,1,,,,,,,,,,,,,,
,,,,,,,,,,,left.png,,w,right,61118740f276fed33c6e6894,2021-10-27_12h17.04.904,arrow_simon_punish,2021.1.2,Win32,59.77643613,,,,,,,,,,,,,,w,1,1.4187,1.778670349,0,1,10,0,40,3,1,,,,,,,,,,,,,,
,,,,,,,,,,,right.png,,p,right,61118740f276fed33c6e6894,2021-10-27_12h17.04.904,arrow_simon_punish,2021.1.2,Win32,59.77643613,,,,,,,,,,,,,,p,1,1.3972,2.087442518,1,1,10,1,41,1,1,,,,,,,,,,,,,,
,,,,,,,,,,,left.png,,w,right,61118740f276fed33c6e6894,2021-10-27_12h17.04.904,arrow_simon_punish,2021.1.2,Win32,59.77643613,,,,,,,,,,,,,,w,1,1.4068,2.045628707,0,1,10,2,42,3,1,,,,,,,,,,,,,,
,,,,,,,,,,,right.png,,p,left,61118740f276fed33c6e6894,2021-10-27_12h17.04.904,arrow_simon_punish,2021.1.2,Win32,59.77643613,,,,,,,,,,,,,,p,1,1.4561,2.154341311,0,1,10,3,43,0,1,,,,,,,,,,,,,,
,,,,,,,,,,,left.png,,w,left,61118740f276fed33c6e6894,2021-10-27_12h17.04.904,arrow_simon_punish,2021.1.2,Win32,59.77643613,,,,,,,,,,,,,,w,1,1.3658,1.538902032,1,1,11,0,44,2,1,,,,,,,,,,,,,,
,,,,,,,,,,,right.png,,p,right,61118740f276fed33c6e6894,2021-10-27_12h17.04.904,arrow_simon_punish,2021.1.2,Win32,59.77643613,,,,,,,,,,,,,,p,1,1.3975,1.867644602,1,1,11,1,45,1,1,,,,,,,,,,,,,,
,,,,,,,,,,,left.png,,w,right,61118740f276fed33c6e6894,2021-10-27_12h17.04.904,arrow_simon_punish,2021.1.2,Win32,59.77643613,,,,,,,,,,,,,,w,1,1.5407,2.498188074,0,1,11,2,46,3,1,,,,,,,,,,,,,,
,,,,,,,,,,,right.png,,p,left,61118740f276fed33c6e6894,2021-10-27_12h17.04.904,arrow_simon_punish,2021.1.2,Win32,59.77643613,,,,,,,,,,,,,,p,1,1.4985,1.730202746,0,1,11,3,47,0,1,,,,,,,,,,,,,,
,,,,,,,,,,,left.png,,w,left,61118740f276fed33c6e6894,2021-10-27_12h17.04.904,arrow_simon_punish,2021.1.2,Win32,59.77643613,,,,,,,,,,,,,,w,1,1.5399,2.212216533,0,1,12,0,48,2,1,,,,,,,,,,,,,,
,,,,,,,,,,,right.png,,p,left,61118740f276fed33c6e6894,2021-10-27_12h17.04.904,arrow_simon_punish,2021.1.2,Win32,59.77643613,,,,,,,,,,,,,,p,1,1.5124,1.887347356,0,1,12,1,49,0,1,,,,,,,,,,,,,,
,,,,,,,,,,,left.png,,w,left,61118740f276fed33c6e6894,2021-10-27_12h17.04.904,arrow_simon_punish,2021.1.2,Win32,59.77643613,,,,,,,,,,,,,,w,1,1.5867,2.404637133,0,1,12,2,50,2,1,,,,,,,,,,,,,,
,,,,,,,,,,,left.png,,w,left,61118740f276fed33c6e6894,2021-10-27_12h17.04.904,arrow_simon_punish,2021.1.2,Win32,59.77643613,,,,,,,,,,,,,,p,0,1.5032,2.254341787,1,1,12,3,51,2,1,,,,,,,,,,,,,,
,,,,,,,,,,,right.png,,p,left,61118740f276fed33c6e6894,2021-10-27_12h17.04.904,arrow_simon_punish,2021.1.2,Win32,59.77643613,,,,,,,,,,,,,,p,1,1.4532,2.477784153,0,1,13,0,52,0,1,,,,,,,,,,,,,,
,,,,,,,,,,,left.png,,w,right,61118740f276fed33c6e6894,2021-10-27_12h17.04.904,arrow_simon_punish,2021.1.2,Win32,59.77643613,,,,,,,,,,,,,,w,1,1.5357,2.17890031,0,1,13,1,53,3,1,,,,,,,,,,,,,,
,,,,,,,,,,,right.png,,p,left,61118740f276fed33c6e6894,2021-10-27_12h17.04.904,arrow_simon_punish,2021.1.2,Win32,59.77643613,,,,,,,,,,,,,,p,1,1.4519,1.638305033,0,1,13,2,54,0,1,,,,,,,,,,,,,,
,,,,,,,,,,,right.png,,p,right,61118740f276fed33c6e6894,2021-10-27_12h17.04.904,arrow_simon_punish,2021.1.2,Win32,59.77643613,,,,,,,,,,,,,,p,1,1.4635,2.018211168,0,1,13,3,55,1,1,,,,,,,,,,,,,,
,,,,,,,,,,,right.png,,p,right,61118740f276fed33c6e6894,2021-10-27_12h17.04.904,arrow_simon_punish,2021.1.2,Win32,59.77643613,,,,,,,,,,,,,,p,1,1.3943,2.043016993,1,1,14,0,56,1,1,,,,,,,,,,,,,,
,,,,,,,,,,,right.png,,p,right,61118740f276fed33c6e6894,2021-10-27_12h17.04.904,arrow_simon_punish,2021.1.2,Win32,59.77643613,,,,,,,,,,,,,,p,1,1.5684,1.634402812,0,1,14,1,57,1,1,,,,,,,,,,,,,,
,,,,,,,,,,,right.png,,p,right,61118740f276fed33c6e6894,2021-10-27_12h17.04.904,arrow_simon_punish,2021.1.2,Win32,59.77643613,,,,,,,,,,,,,,p,1,1.568,2.393169754,0,1,14,2,58,1,1,,,,,,,,,,,,,,
,,,,,,,,,,,left.png,,w,right,61118740f276fed33c6e6894,2021-10-27_12h17.04.904,arrow_simon_punish,2021.1.2,Win32,59.77643613,,,,,,,,,,,,,,w,1,1.315,1.702239074,1,1,14,3,59,3,1,,,,,,,,,,,,,,
,,,,,,,,,,,,,,,61118740f276fed33c6e6894,2021-10-27_12h17.04.904,arrow_simon_punish,2021.1.2,Win32,59.77643613,,,,,,,,,,,,,,,,,,,,,,,,,space,1.2398,6,2,0,4,0,1,1,,,,,
,,,,,,,,,,,left.png,,w,left,61118740f276fed33c6e6894,2021-10-27_12h17.04.904,arrow_simon_punish,2021.1.2,Win32,59.77643613,,,,,,,,,,,,,,w,1,3.1199,1.585909187,1,5,0,0,0,2,1,,,,,,,,,,,,,,
,,,,,,,,,,,left.png,,w,left,61118740f276fed33c6e6894,2021-10-27_12h17.04.904,arrow_simon_punish,2021.1.2,Win32,59.77643613,,,,,,,,,,,,,,w,1,1.6904,2.366436092,1,5,0,1,1,2,1,,,,,,,,,,,,,,
,,,,,,,,,,,right.png,,p,left,61118740f276fed33c6e6894,2021-10-27_12h17.04.904,arrow_simon_punish,2021.1.2,Win32,59.77643613,,,,,,,,,,,,,,p,1,1.5879,2.35301289,0,5,0,2,2,0,1,,,,,,,,,,,,,,
,,,,,,,,,,,left.png,,w,right,61118740f276fed33c6e6894,2021-10-27_12h17.04.904,arrow_simon_punish,2021.1.2,Win32,59.77643613,,,,,,,,,,,,,,w,1,1.5523,2.212231588,0,5,0,3,3,3,1,,,,,,,,,,,,,,
,,,,,,,,,,,left.png,,w,left,61118740f276fed33c6e6894,2021-10-27_12h17.04.904,arrow_simon_punish,2021.1.2,Win32,59.77643613,,,,,,,,,,,,,,w,1,1.5579,1.905216193,0,5,1,0,4,2,1,,,,,,,,,,,,,,
,,,,,,,,,,,left.png,,w,left,61118740f276fed33c6e6894,2021-10-27_12h17.04.904,arrow_simon_punish,2021.1.2,Win32,59.77643613,,,,,,,,,,,,,,w,1,1.508,1.663880738,0,5,1,1,5,2,1,,,,,,,,,,,,,,
,,,,,,,,,,,left.png,,w,right,61118740f276fed33c6e6894,2021-10-27_12h17.04.904,arrow_simon_punish,2021.1.2,Win32,59.77643613,,,,,,,,,,,,,,w,1,1.6528,2.242394055,1,5,1,2,6,3,1,,,,,,,,,,,,,,
,,,,,,,,,,,left.png,,w,left,61118740f276fed33c6e6894,2021-10-27_12h17.04.904,arrow_simon_punish,2021.1.2,Win32,59.77643613,,,,,,,,,,,,,,p,0,1.6054,2.308099435,1,5,1,3,7,2,1,,,,,,,,,,,,,,
,,,,,,,,,,,right.png,,p,right,61118740f276fed33c6e6894,2021-10-27_12h17.04.904,arrow_simon_punish,2021.1.2,Win32,59.77643613,,,,,,,,,,,,,,w,0,1.6368,2.277701593,1,5,2,0,8,1,1,,,,,,,,,,,,,,
,,,,,,,,,,,left.png,,w,left,61118740f276fed33c6e6894,2021-10-27_12h17.04.904,arrow_simon_punish,2021.1.2,Win32,59.77643613,,,,,,,,,,,,,,w,1,1.5366,2.300489707,0,5,2,1,9,2,1,,,,,,,,,,,,,,
,,,,,,,,,,,right.png,,p,left,61118740f276fed33c6e6894,2021-10-27_12h17.04.904,arrow_simon_punish,2021.1.2,Win32,59.77643613,,,,,,,,,,,,,,p,1,1.532,2.179292373,0,5,2,2,10,0,1,,,,,,,,,,,,,,
,,,,,,,,,,,right.png,,p,right,61118740f276fed33c6e6894,2021-10-27_12h17.04.904,arrow_simon_punish,2021.1.2,Win32,59.77643613,,,,,,,,,,,,,,p,1,1.5363,2.00164413,0,5,2,3,11,1,1,,,,,,,,,,,,,,
,,,,,,,,,,,right.png,,p,right,61118740f276fed33c6e6894,2021-10-27_12h17.04.904,arrow_simon_punish,2021.1.2,Win32,59.77643613,,,,,,,,,,,,,,p,1,1.6043,2.183109242,1,5,3,0,12,1,1,,,,,,,,,,,,,,
,,,,,,,,,,,left.png,,w,right,61118740f276fed33c6e6894,2021-10-27_12h17.04.904,arrow_simon_punish,2021.1.2,Win32,59.77643613,,,,,,,,,,,,,,p,0,1.5698,2.289897199,1,5,3,1,13,3,1,,,,,,,,,,,,,,
,,,,,,,,,,,right.png,,p,right,61118740f276fed33c6e6894,2021-10-27_12h17.04.904,arrow_simon_punish,2021.1.2,Win32,59.77643613,,,,,,,,,,,,,,p,1,1.4362,2.16208509,0,5,3,2,14,1,1,,,,,,,,,,,,,,
,,,,,,,,,,,left.png,,w,left,61118740f276fed33c6e6894,2021-10-27_12h17.04.904,arrow_simon_punish,2021.1.2,Win32,59.77643613,,,,,,,,,,,,,,w,1,1.46,1.662124768,0,5,3,3,15,2,1,,,,,,,,,,,,,,
,,,,,,,,,,,left.png,,w,right,61118740f276fed33c6e6894,2021-10-27_12h17.04.904,arrow_simon_punish,2021.1.2,Win32,59.77643613,,,,,,,,,,,,,,w,1,1.5039,1.567398396,0,5,4,0,16,3,1,,,,,,,,,,,,,,
,,,,,,,,,,,right.png,,p,right,61118740f276fed33c6e6894,2021-10-27_12h17.04.904,arrow_simon_punish,2021.1.2,Win32,59.77643613,,,,,,,,,,,,,,p,1,1.523,2.260465707,0,5,4,1,17,1,1,,,,,,,,,,,,,,
,,,,,,,,,,,right.png,,p,left,61118740f276fed33c6e6894,2021-10-27_12h17.04.904,arrow_simon_punish,2021.1.2,Win32,59.77643613,,,,,,,,,,,,,,w,0,1.5405,2.440682598,1,5,4,2,18,0,1,,,,,,,,,,,,,,
,,,,,,,,,,,right.png,,p,left,61118740f276fed33c6e6894,2021-10-27_12h17.04.904,arrow_simon_punish,2021.1.2,Win32,59.77643613,,,,,,,,,,,,,,p,1,1.5575,2.242158668,0,5,4,3,19,0,1,,,,,,,,,,,,,,
,,,,,,,,,,,left.png,,w,left,61118740f276fed33c6e6894,2021-10-27_12h17.04.904,arrow_simon_punish,2021.1.2,Win32,59.77643613,,,,,,,,,,,,,,w,1,1.5369,2.058694827,0,5,5,0,20,2,1,,,,,,,,,,,,,,
,,,,,,,,,,,right.png,,p,right,61118740f276fed33c6e6894,2021-10-27_12h17.04.904,arrow_simon_punish,2021.1.2,Win32,59.77643613,,,,,,,,,,,,,,p,1,1.4729,1.633141793,0,5,5,1,21,1,1,,,,,,,,,,,,,,
,,,,,,,,,,,left.png,,w,right,61118740f276fed33c6e6894,2021-10-27_12h17.04.904,arrow_simon_punish,2021.1.2,Win32,59.77643613,,,,,,,,,,,,,,w,1,1.523,1.756269526,0,5,5,2,22,3,1,,,,,,,,,,,,,,
,,,,,,,,,,,right.png,,p,left,61118740f276fed33c6e6894,2021-10-27_12h17.04.904,arrow_simon_punish,2021.1.2,Win32,59.77643613,,,,,,,,,,,,,,p,1,1.5851,2.29233778,0,5,5,3,23,0,1,,,,,,,,,,,,,,
,,,,,,,,,,,right.png,,p,right,61118740f276fed33c6e6894,2021-10-27_12h17.04.904,arrow_simon_punish,2021.1.2,Win32,59.77643613,,,,,,,,,,,,,,p,1,1.5377,1.754591007,0,5,6,0,24,1,1,,,,,,,,,,,,,,
,,,,,,,,,,,right.png,,p,left,61118740f276fed33c6e6894,2021-10-27_12h17.04.904,arrow_simon_punish,2021.1.2,Win32,59.77643613,,,,,,,,,,,,,,p,1,1.5024,2.10837274,0,5,6,1,25,0,1,,,,,,,,,,,,,,
,,,,,,,,,,,right.png,,p,left,61118740f276fed33c6e6894,2021-10-27_12h17.04.904,arrow_simon_punish,2021.1.2,Win32,59.77643613,,,,,,,,,,,,,,p,1,1.4757,2.196481262,0,5,6,2,26,0,1,,,,,,,,,,,,,,
,,,,,,,,,,,left.png,,w,left,61118740f276fed33c6e6894,2021-10-27_12h17.04.904,arrow_simon_punish,2021.1.2,Win32,59.77643613,,,,,,,,,,,,,,w,1,1.5698,1.957098651,0,5,6,3,27,2,1,,,,,,,,,,,,,,
,,,,,,,,,,,left.png,,w,left,61118740f276fed33c6e6894,2021-10-27_12h17.04.904,arrow_simon_punish,2021.1.2,Win32,59.77643613,,,,,,,,,,,,,,w,1,1.5543,1.879866932,0,5,7,0,28,2,1,,,,,,,,,,,,,,
,,,,,,,,,,,right.png,,p,left,61118740f276fed33c6e6894,2021-10-27_12h17.04.904,arrow_simon_punish,2021.1.2,Win32,59.77643613,,,,,,,,,,,,,,p,1,1.457,2.069092897,0,5,7,1,29,0,1,,,,,,,,,,,,,,
,,,,,,,,,,,left.png,,w,right,61118740f276fed33c6e6894,2021-10-27_12h17.04.904,arrow_simon_punish,2021.1.2,Win32,59.77643613,,,,,,,,,,,,,,w,1,1.5356,1.638790747,0,5,7,2,30,3,1,,,,,,,,,,,,,,
,,,,,,,,,,,left.png,,w,left,61118740f276fed33c6e6894,2021-10-27_12h17.04.904,arrow_simon_punish,2021.1.2,Win32,59.77643613,,,,,,,,,,,,,,w,1,1.5558,1.773956912,0,5,7,3,31,2,1,,,,,,,,,,,,,,
,,,,,,,,,,,left.png,,w,right,61118740f276fed33c6e6894,2021-10-27_12h17.04.904,arrow_simon_punish,2021.1.2,Win32,59.77643613,,,,,,,,,,,,,,w,1,1.4024,1.605736434,0,5,8,0,32,3,1,,,,,,,,,,,,,,
,,,,,,,,,,,left.png,,w,right,61118740f276fed33c6e6894,2021-10-27_12h17.04.904,arrow_simon_punish,2021.1.2,Win32,59.77643613,,,,,,,,,,,,,,w,1,1.3363,1.918738831,1,5,8,1,33,3,1,,,,,,,,,,,,,,
,,,,,,,,,,,right.png,,p,left,61118740f276fed33c6e6894,2021-10-27_12h17.04.904,arrow_simon_punish,2021.1.2,Win32,59.77643613,,,,,,,,,,,,,,p,1,1.4024,2.297803858,0,5,8,2,34,0,1,,,,,,,,,,,,,,
,,,,,,,,,,,right.png,,p,right,61118740f276fed33c6e6894,2021-10-27_12h17.04.904,arrow_simon_punish,2021.1.2,Win32,59.77643613,,,,,,,,,,,,,,p,1,1.3026,1.758593441,1,5,8,3,35,1,1,,,,,,,,,,,,,,
,,,,,,,,,,,right.png,,p,left,61118740f276fed33c6e6894,2021-10-27_12h17.04.904,arrow_simon_punish,2021.1.2,Win32,59.77643613,,,,,,,,,,,,,,p,1,1.6191,2.419808149,1,5,9,0,36,0,1,,,,,,,,,,,,,,
,,,,,,,,,,,right.png,,p,left,61118740f276fed33c6e6894,2021-10-27_12h17.04.904,arrow_simon_punish,2021.1.2,Win32,59.77643613,,,,,,,,,,,,,,p,1,1.4014,1.981383271,0,5,9,1,37,0,1,,,,,,,,,,,,,,
,,,,,,,,,,,right.png,,p,right,61118740f276fed33c6e6894,2021-10-27_12h17.04.904,arrow_simon_punish,2021.1.2,Win32,59.77643613,,,,,,,,,,,,,,p,1,1.5039,2.260681575,0,5,9,2,38,1,1,,,,,,,,,,,,,,
,,,,,,,,,,,right.png,,p,right,61118740f276fed33c6e6894,2021-10-27_12h17.04.904,arrow_simon_punish,2021.1.2,Win32,59.77643613,,,,,,,,,,,,,,p,1,1.5363,1.668027853,0,5,9,3,39,1,1,,,,,,,,,,,,,,
,,,,,,,,,,,left.png,,w,left,61118740f276fed33c6e6894,2021-10-27_12h17.04.904,arrow_simon_punish,2021.1.2,Win32,59.77643613,,,,,,,,,,,,,,w,1,1.6012,1.657809436,1,5,10,0,40,2,1,,,,,,,,,,,,,,
,,,,,,,,,,,right.png,,p,left,61118740f276fed33c6e6894,2021-10-27_12h17.04.904,arrow_simon_punish,2021.1.2,Win32,59.77643613,,,,,,,,,,,,,,p,1,1.5524,1.953349164,0,5,10,1,41,0,1,,,,,,,,,,,,,,
,,,,,,,,,,,left.png,,w,right,61118740f276fed33c6e6894,2021-10-27_12h17.04.904,arrow_simon_punish,2021.1.2,Win32,59.77643613,,,,,,,,,,,,,,w,1,1.5754,2.035036468,0,5,10,2,42,3,1,,,,,,,,,,,,,,
,,,,,,,,,,,left.png,,w,left,61118740f276fed33c6e6894,2021-10-27_12h17.04.904,arrow_simon_punish,2021.1.2,Win32,59.77643613,,,,,,,,,,,,,,w,1,1.5118,1.829130465,0,5,10,3,43,2,1,,,,,,,,,,,,,,
,,,,,,,,,,,right.png,,p,right,61118740f276fed33c6e6894,2021-10-27_12h17.04.904,arrow_simon_punish,2021.1.2,Win32,59.77643613,,,,,,,,,,,,,,p,1,1.5612,2.497539426,0,5,11,0,44,1,1,,,,,,,,,,,,,,
,,,,,,,,,,,right.png,,p,right,61118740f276fed33c6e6894,2021-10-27_12h17.04.904,arrow_simon_punish,2021.1.2,Win32,59.77643613,,,,,,,,,,,,,,p,1,1.6904,2.337457509,1,5,11,1,45,1,1,,,,,,,,,,,,,,
,,,,,,,,,,,right.png,,p,left,61118740f276fed33c6e6894,2021-10-27_12h17.04.904,arrow_simon_punish,2021.1.2,Win32,59.77643613,,,,,,,,,,,,,,p,1,1.6075,2.014689044,1,5,11,2,46,0,1,,,,,,,,,,,,,,
,,,,,,,,,,,left.png,,w,right,61118740f276fed33c6e6894,2021-10-27_12h17.04.904,arrow_simon_punish,2021.1.2,Win32,59.77643613,,,,,,,,,,,,,,w,1,1.507,1.703596788,0,5,11,3,47,3,1,,,,,,,,,,,,,,
,,,,,,,,,,,right.png,,p,left,61118740f276fed33c6e6894,2021-10-27_12h17.04.904,arrow_simon_punish,2021.1.2,Win32,59.77643613,,,,,,,,,,,,,,p,1,1.5204,1.802950656,0,5,12,0,48,0,1,,,,,,,,,,,,,,
,,,,,,,,,,,right.png,,p,left,61118740f276fed33c6e6894,2021-10-27_12h17.04.904,arrow_simon_punish,2021.1.2,Win32,59.77643613,,,,,,,,,,,,,,p,1,1.4891,2.120925094,0,5,12,1,49,0,1,,,,,,,,,,,,,,
,,,,,,,,,,,left.png,,w,left,61118740f276fed33c6e6894,2021-10-27_12h17.04.904,arrow_simon_punish,2021.1.2,Win32,59.77643613,,,,,,,,,,,,,,w,1,1.4376,2.080693751,0,5,12,2,50,2,1,,,,,,,,,,,,,,
,,,,,,,,,,,left.png,,w,right,61118740f276fed33c6e6894,2021-10-27_12h17.04.904,arrow_simon_punish,2021.1.2,Win32,59.77643613,,,,,,,,,,,,,,w,1,1.4872,1.938695896,0,5,12,3,51,3,1,,,,,,,,,,,,,,
,,,,,,,,,,,left.png,,w,right,61118740f276fed33c6e6894,2021-10-27_12h17.04.904,arrow_simon_punish,2021.1.2,Win32,59.77643613,,,,,,,,,,,,,,w,1,1.4581,1.838201264,0,5,13,0,52,3,1,,,,,,,,,,,,,,
,,,,,,,,,,,left.png,,w,right,61118740f276fed33c6e6894,2021-10-27_12h17.04.904,arrow_simon_punish,2021.1.2,Win32,59.77643613,,,,,,,,,,,,,,p,0,1.5205,2.316780947,1,5,13,1,53,3,1,,,,,,,,,,,,,,
,,,,,,,,,,,right.png,,p,right,61118740f276fed33c6e6894,2021-10-27_12h17.04.904,arrow_simon_punish,2021.1.2,Win32,59.77643613,,,,,,,,,,,,,,p,1,1.603,1.708139693,1,5,13,2,54,1,1,,,,,,,,,,,,,,
,,,,,,,,,,,right.png,,p,right,61118740f276fed33c6e6894,2021-10-27_12h17.04.904,arrow_simon_punish,2021.1.2,Win32,59.77643613,,,,,,,,,,,,,,p,1,1.4154,1.918619592,0,5,13,3,55,1,1,,,,,,,,,,,,,,
,,,,,,,,,,,left.png,,w,right,61118740f276fed33c6e6894,2021-10-27_12h17.04.904,arrow_simon_punish,2021.1.2,Win32,59.77643613,,,,,,,,,,,,,,w,1,1.5203,1.77278172,0,5,14,0,56,3,1,,,,,,,,,,,,,,
,,,,,,,,,,,left.png,,w,left,61118740f276fed33c6e6894,2021-10-27_12h17.04.904,arrow_simon_punish,2021.1.2,Win32,59.77643613,,,,,,,,,,,,,,w,1,1.7871,2.32231043,1,5,14,1,57,2,1,,,,,,,,,,,,,,
,,,,,,,,,,,right.png,,p,right,61118740f276fed33c6e6894,2021-10-27_12h17.04.904,arrow_simon_punish,2021.1.2,Win32,59.77643613,,,,,,,,,,,,,,p,1,1.4993,1.520178711,0,5,14,2,58,1,1,,,,,,,,,,,,,,
,,,,,,,,,,,left.png,,w,right,61118740f276fed33c6e6894,2021-10-27_12h17.04.904,arrow_simon_punish,2021.1.2,Win32,59.77643613,,,,,,,,,,,,,,p,0,1.6029,2.331033054,1,5,14,3,59,3,1,,,,,,,,,,,,,,
,,,,,,,,,,,,,,,61118740f276fed33c6e6894,2021-10-27_12h17.04.904,arrow_simon_punish,2021.1.2,Win32,59.77643613,,,,,,,,,,,,,,,,,,,,,,,,,space,145.1099,7,2,1,5,1,1,5,,,,,
,,,,,,,,,,,left.png,,w,right,61118740f276fed33c6e6894,2021-10-27_12h17.04.904,arrow_simon_punish,2021.1.2,Win32,59.77643613,,,,,,,,,,,,,,p,0,1.454,2.18486083,1,1,0,0,0,3,1,,,,,,,,,,,,,,
,,,,,,,,,,,right.png,,p,left,61118740f276fed33c6e6894,2021-10-27_12h17.04.904,arrow_simon_punish,2021.1.2,Win32,59.77643613,,,,,,,,,,,,,,p,1,1.6029,1.878990819,1,1,0,1,1,0,1,,,,,,,,,,,,,,
,,,,,,,,,,,right.png,,p,left,61118740f276fed33c6e6894,2021-10-27_12h17.04.904,arrow_simon_punish,2021.1.2,Win32,59.77643613,,,,,,,,,,,,,,p,1,1.5709,1.842294414,0,1,0,2,2,0,1,,,,,,,,,,,,,,
,,,,,,,,,,,left.png,,w,right,61118740f276fed33c6e6894,2021-10-27_12h17.04.904,arrow_simon_punish,2021.1.2,Win32,59.77643613,,,,,,,,,,,,,,w,1,1.4696,1.589206275,0,1,0,3,3,3,1,,,,,,,,,,,,,,
,,,,,,,,,,,right.png,,p,right,61118740f276fed33c6e6894,2021-10-27_12h17.04.904,arrow_simon_punish,2021.1.2,Win32,59.77643613,,,,,,,,,,,,,,p,1,1.4528,1.506014826,0,1,1,0,4,1,1,,,,,,,,,,,,,,
,,,,,,,,,,,right.png,,p,right,61118740f276fed33c6e6894,2021-10-27_12h17.04.904,arrow_simon_punish,2021.1.2,Win32,59.77643613,,,,,,,,,,,,,,p,1,1.4541,1.648950833,0,1,1,1,5,1,1,,,,,,,,,,,,,,
,,,,,,,,,,,right.png,,p,right,61118740f276fed33c6e6894,2021-10-27_12h17.04.904,arrow_simon_punish,2021.1.2,Win32,59.77643613,,,,,,,,,,,,,,p,1,1.4016,1.729017313,0,1,1,2,6,1,1,,,,,,,,,,,,,,
,,,,,,,,,,,right.png,,p,left,61118740f276fed33c6e6894,2021-10-27_12h17.04.904,arrow_simon_punish,2021.1.2,Win32,59.77643613,,,,,,,,,,,,,,p,1,1.4241,2.248143138,0,1,1,3,7,0,1,,,,,,,,,,,,,,
,,,,,,,,,,,left.png,,w,left,61118740f276fed33c6e6894,2021-10-27_12h17.04.904,arrow_simon_punish,2021.1.2,Win32,59.77643613,,,,,,,,,,,,,,w,1,1.5094,2.053071113,0,1,2,0,8,2,1,,,,,,,,,,,,,,
,,,,,,,,,,,left.png,,w,right,61118740f276fed33c6e6894,2021-10-27_12h17.04.904,arrow_simon_punish,2021.1.2,Win32,59.77643613,,,,,,,,,,,,,,p,0,1.4511,2.196352881,1,1,2,1,9,3,1,,,,,,,,,,,,,,
,,,,,,,,,,,right.png,,p,right,61118740f276fed33c6e6894,2021-10-27_12h17.04.904,arrow_simon_punish,2021.1.2,Win32,59.77643613,,,,,,,,,,,,,,p,1,1.4858,2.395023147,0,1,2,2,10,1,1,,,,,,,,,,,,,,
,,,,,,,,,,,left.png,,w,right,61118740f276fed33c6e6894,2021-10-27_12h17.04.904,arrow_simon_punish,2021.1.2,Win32,59.77643613,,,,,,,,,,,,,,w,1,1.4189,1.824779381,0,1,2,3,11,3,1,,,,,,,,,,,,,,
,,,,,,,,,,,left.png,,w,left,61118740f276fed33c6e6894,2021-10-27_12h17.04.904,arrow_simon_punish,2021.1.2,Win32,59.77643613,,,,,,,,,,,,,,w,1,1.3719,1.650268339,1,1,3,0,12,2,1,,,,,,,,,,,,,,
,,,,,,,,,,,left.png,,w,right,61118740f276fed33c6e6894,2021-10-27_12h17.04.904,arrow_simon_punish,2021.1.2,Win32,59.77643613,,,,,,,,,,,,,,w,1,1.5059,1.922097961,0,1,3,1,13,3,1,,,,,,,,,,,,,,
,,,,,,,,,,,left.png,,w,left,61118740f276fed33c6e6894,2021-10-27_12h17.04.904,arrow_simon_punish,2021.1.2,Win32,59.77643613,,,,,,,,,,,,,,w,1,1.4434,1.893544501,0,1,3,2,14,2,1,,,,,,,,,,,,,,
,,,,,,,,,,,left.png,,w,right,61118740f276fed33c6e6894,2021-10-27_12h17.04.904,arrow_simon_punish,2021.1.2,Win32,59.77643613,,,,,,,,,,,,,,w,1,1.5566,2.172008142,0,1,3,3,15,3,1,,,,,,,,,,,,,,
,,,,,,,,,,,left.png,,w,left,61118740f276fed33c6e6894,2021-10-27_12h17.04.904,arrow_simon_punish,2021.1.2,Win32,59.77643613,,,,,,,,,,,,,,w,1,1.4777,2.118122071,0,1,4,0,16,2,1,,,,,,,,,,,,,,
,,,,,,,,,,,left.png,,w,right,61118740f276fed33c6e6894,2021-10-27_12h17.04.904,arrow_simon_punish,2021.1.2,Win32,59.77643613,,,,,,,,,,,,,,w,1,1.5504,2.068641263,0,1,4,1,17,3,1,,,,,,,,,,,,,,
,,,,,,,,,,,left.png,,w,right,61118740f276fed33c6e6894,2021-10-27_12h17.04.904,arrow_simon_punish,2021.1.2,Win32,59.77643613,,,,,,,,,,,,,,p,0,1.4696,2.138377954,1,1,4,2,18,3,1,,,,,,,,,,,,,,
,,,,,,,,,,,right.png,,p,left,61118740f276fed33c6e6894,2021-10-27_12h17.04.904,arrow_simon_punish,2021.1.2,Win32,59.77643613,,,,,,,,,,,,,,p,1,1.3858,1.759852168,1,1,4,3,19,0,1,,,,,,,,,,,,,,
,,,,,,,,,,,right.png,,p,right,61118740f276fed33c6e6894,2021-10-27_12h17.04.904,arrow_simon_punish,2021.1.2,Win32,59.77643613,,,,,,,,,,,,,,p,1,1.4882,2.005869727,0,1,5,0,20,1,1,,,,,,,,,,,,,,
,,,,,,,,,,,right.png,,p,right,61118740f276fed33c6e6894,2021-10-27_12h17.04.904,arrow_simon_punish,2021.1.2,Win32,59.77643613,,,,,,,,,,,,,,p,1,1.5224,1.754043319,0,1,5,1,21,1,1,,,,,,,,,,,,,,
,,,,,,,,,,,right.png,,p,left,61118740f276fed33c6e6894,2021-10-27_12h17.04.904,arrow_simon_punish,2021.1.2,Win32,59.77643613,,,,,,,,,,,,,,p,1,1.3951,1.723866308,1,1,5,2,22,0,1,,,,,,,,,,,,,,
,,,,,,,,,,,right.png,,p,right,61118740f276fed33c6e6894,2021-10-27_12h17.04.904,arrow_simon_punish,2021.1.2,Win32,59.77643613,,,,,,,,,,,,,,p,1,1.4944,1.51891605,0,1,5,3,23,1,1,,,,,,,,,,,,,,
,,,,,,,,,,,left.png,,w,left,61118740f276fed33c6e6894,2021-10-27_12h17.04.904,arrow_simon_punish,2021.1.2,Win32,59.77643613,,,,,,,,,,,,,,w,1,1.5246,1.552314516,0,1,6,0,24,2,1,,,,,,,,,,,,,,
,,,,,,,,,,,left.png,,w,right,61118740f276fed33c6e6894,2021-10-27_12h17.04.904,arrow_simon_punish,2021.1.2,Win32,59.77643613,,,,,,,,,,,,,,w,1,1.4913,2.049990035,0,1,6,1,25,3,1,,,,,,,,,,,,,,
,,,,,,,,,,,right.png,,p,left,61118740f276fed33c6e6894,2021-10-27_12h17.04.904,arrow_simon_punish,2021.1.2,Win32,59.77643613,,,,,,,,,,,,,,p,1,1.5235,1.583566766,0,1,6,2,26,0,1,,,,,,,,,,,,,,
,,,,,,,,,,,left.png,,w,left,61118740f276fed33c6e6894,2021-10-27_12h17.04.904,arrow_simon_punish,2021.1.2,Win32,59.77643613,,,,,,,,,,,,,,w,1,1.9263,2.406716287,1,1,6,3,27,2,1,,,,,,,,,,,,,,
,,,,,,,,,,,right.png,,p,left,61118740f276fed33c6e6894,2021-10-27_12h17.04.904,arrow_simon_punish,2021.1.2,Win32,59.77643613,,,,,,,,,,,,,,p,1,1.4801,1.650530708,0,1,7,0,28,0,1,,,,,,,,,,,,,,
,,,,,,,,,,,right.png,,p,right,61118740f276fed33c6e6894,2021-10-27_12h17.04.904,arrow_simon_punish,2021.1.2,Win32,59.77643613,,,,,,,,,,,,,,p,1,1.5292,1.607680707,0,1,7,1,29,1,1,,,,,,,,,,,,,,
,,,,,,,,,,,left.png,,w,right,61118740f276fed33c6e6894,2021-10-27_12h17.04.904,arrow_simon_punish,2021.1.2,Win32,59.77643613,,,,,,,,,,,,,,w,1,1.555,1.923665653,0,1,7,2,30,3,1,,,,,,,,,,,,,,
,,,,,,,,,,,right.png,,p,left,61118740f276fed33c6e6894,2021-10-27_12h17.04.904,arrow_simon_punish,2021.1.2,Win32,59.77643613,,,,,,,,,,,,,,p,1,1.4542,1.651068688,0,1,7,3,31,0,1,,,,,,,,,,,,,,
,,,,,,,,,,,left.png,,w,left,61118740f276fed33c6e6894,2021-10-27_12h17.04.904,arrow_simon_punish,2021.1.2,Win32,59.77643613,,,,,,,,,,,,,,w,1,1.4082,1.991195808,0,1,8,0,32,2,1,,,,,,,,,,,,,,
,,,,,,,,,,,right.png,,p,left,61118740f276fed33c6e6894,2021-10-27_12h17.04.904,arrow_simon_punish,2021.1.2,Win32,59.77643613,,,,,,,,,,,,,,p,1,1.4055,1.855169988,0,1,8,1,33,0,1,,,,,,,,,,,,,,
,,,,,,,,,,,left.png,,w,right,61118740f276fed33c6e6894,2021-10-27_12h17.04.904,arrow_simon_punish,2021.1.2,Win32,59.77643613,,,,,,,,,,,,,,w,1,1.6635,1.719916988,1,1,8,2,34,3,1,,,,,,,,,,,,,,
,,,,,,,,,,,right.png,,p,left,61118740f276fed33c6e6894,2021-10-27_12h17.04.904,arrow_simon_punish,2021.1.2,Win32,59.77643613,,,,,,,,,,,,,,p,1,1.5577,2.359782096,0,1,8,3,35,0,1,,,,,,,,,,,,,,
,,,,,,,,,,,left.png,,w,right,61118740f276fed33c6e6894,2021-10-27_12h17.04.904,arrow_simon_punish,2021.1.2,Win32,59.77643613,,,,,,,,,,,,,,w,1,1.5869,2.254104447,0,1,9,0,36,3,1,,,,,,,,,,,,,,
,,,,,,,,,,,right.png,,p,right,61118740f276fed33c6e6894,2021-10-27_12h17.04.904,arrow_simon_punish,2021.1.2,Win32,59.77643613,,,,,,,,,,,,,,p,1,1.4061,1.959009816,0,1,9,1,37,1,1,,,,,,,,,,,,,,
,,,,,,,,,,,right.png,,p,right,61118740f276fed33c6e6894,2021-10-27_12h17.04.904,arrow_simon_punish,2021.1.2,Win32,59.77643613,,,,,,,,,,,,,,p,1,1.4207,2.136604968,0,1,9,2,38,1,1,,,,,,,,,,,,,,
,,,,,,,,,,,right.png,,p,left,61118740f276fed33c6e6894,2021-10-27_12h17.04.904,arrow_simon_punish,2021.1.2,Win32,59.77643613,,,,,,,,,,,,,,p,1,1.4134,1.639301087,0,1,9,3,39,0,1,,,,,,,,,,,,,,
,,,,,,,,,,,left.png,,w,left,61118740f276fed33c6e6894,2021-10-27_12h17.04.904,arrow_simon_punish,2021.1.2,Win32,59.77643613,,,,,,,,,,,,,,w,1,1.4689,1.55918307,0,1,10,0,40,2,1,,,,,,,,,,,,,,
,,,,,,,,,,,left.png,,w,left,61118740f276fed33c6e6894,2021-10-27_12h17.04.904,arrow_simon_punish,2021.1.2,Win32,59.77643613,,,,,,,,,,,,,,p,0,1.4043,2.239402826,1,1,10,1,41,2,1,,,,,,,,,,,,,,
,,,,,,,,,,,left.png,,w,right,61118740f276fed33c6e6894,2021-10-27_12h17.04.904,arrow_simon_punish,2021.1.2,Win32,59.77643613,,,,,,,,,,,,,,w,1,1.3762,1.718871283,1,1,10,2,42,3,1,,,,,,,,,,,,,,
,,,,,,,,,,,right.png,,p,right,61118740f276fed33c6e6894,2021-10-27_12h17.04.904,arrow_simon_punish,2021.1.2,Win32,59.77643613,,,,,,,,,,,,,,p,1,1.3532,2.327673525,1,1,10,3,43,1,1,,,,,,,,,,,,,,
,,,,,,,,,,,left.png,,w,right,61118740f276fed33c6e6894,2021-10-27_12h17.04.904,arrow_simon_punish,2021.1.2,Win32,59.77643613,,,,,,,,,,,,,,w,1,1.5783,2.197699207,0,1,11,0,44,3,1,,,,,,,,,,,,,,
,,,,,,,,,,,right.png,,p,left,61118740f276fed33c6e6894,2021-10-27_12h17.04.904,arrow_simon_punish,2021.1.2,Win32,59.77643613,,,,,,,,,,,,,,p,1,1.42,1.929183362,0,1,11,1,45,0,1,,,,,,,,,,,,,,
,,,,,,,,,,,left.png,,w,left,61118740f276fed33c6e6894,2021-10-27_12h17.04.904,arrow_simon_punish,2021.1.2,Win32,59.77643613,,,,,,,,,,,,,,w,1,1.5294,1.587233402,0,1,11,2,46,2,1,,,,,,,,,,,,,,
,,,,,,,,,,,left.png,,w,left,61118740f276fed33c6e6894,2021-10-27_12h17.04.904,arrow_simon_punish,2021.1.2,Win32,59.77643613,,,,,,,,,,,,,,w,1,1.5359,2.012952939,0,1,11,3,47,2,1,,,,,,,,,,,,,,
,,,,,,,,,,,left.png,,w,left,61118740f276fed33c6e6894,2021-10-27_12h17.04.904,arrow_simon_punish,2021.1.2,Win32,59.77643613,,,,,,,,,,,,,,w,1,1.3196,1.684273629,1,1,12,0,48,2,1,,,,,,,,,,,,,,
,,,,,,,,,,,right.png,,p,right,61118740f276fed33c6e6894,2021-10-27_12h17.04.904,arrow_simon_punish,2021.1.2,Win32,59.77643613,,,,,,,,,,,,,,p,1,1.553,2.46471466,0,1,12,1,49,1,1,,,,,,,,,,,,,,
,,,,,,,,,,,left.png,,w,left,61118740f276fed33c6e6894,2021-10-27_12h17.04.904,arrow_simon_punish,2021.1.2,Win32,59.77643613,,,,,,,,,,,,,,w,1,1.4182,1.910287789,0,1,12,2,50,2,1,,,,,,,,,,,,,,
,,,,,,,,,,,right.png,,p,left,61118740f276fed33c6e6894,2021-10-27_12h17.04.904,arrow_simon_punish,2021.1.2,Win32,59.77643613,,,,,,,,,,,,,,p,1,1.5364,1.546948167,0,1,12,3,51,0,1,,,,,,,,,,,,,,
,,,,,,,,,,,left.png,,w,right,61118740f276fed33c6e6894,2021-10-27_12h17.04.904,arrow_simon_punish,2021.1.2,Win32,59.77643613,,,,,,,,,,,,,,w,1,1.4741,2.143067469,0,1,13,0,52,3,1,,,,,,,,,,,,,,
,,,,,,,,,,,right.png,,p,left,61118740f276fed33c6e6894,2021-10-27_12h17.04.904,arrow_simon_punish,2021.1.2,Win32,59.77643613,,,,,,,,,,,,,,p,1,1.5218,2.2952952,0,1,13,1,53,0,1,,,,,,,,,,,,,,
,,,,,,,,,,,right.png,,p,right,61118740f276fed33c6e6894,2021-10-27_12h17.04.904,arrow_simon_punish,2021.1.2,Win32,59.77643613,,,,,,,,,,,,,,p,1,1.4415,1.566545371,0,1,13,2,54,1,1,,,,,,,,,,,,,,
,,,,,,,,,,,right.png,,p,right,61118740f276fed33c6e6894,2021-10-27_12h17.04.904,arrow_simon_punish,2021.1.2,Win32,59.77643613,,,,,,,,,,,,,,p,1,1.4974,1.803962704,0,1,13,3,55,1,1,,,,,,,,,,,,,,
,,,,,,,,,,,right.png,,p,left,61118740f276fed33c6e6894,2021-10-27_12h17.04.904,arrow_simon_punish,2021.1.2,Win32,59.77643613,,,,,,,,,,,,,,w,0,1.4197,2.086765284,1,1,14,0,56,0,1,,,,,,,,,,,,,,
,,,,,,,,,,,left.png,,w,left,61118740f276fed33c6e6894,2021-10-27_12h17.04.904,arrow_simon_punish,2021.1.2,Win32,59.77643613,,,,,,,,,,,,,,w,1,1.5715,2.2268665,0,1,14,1,57,2,1,,,,,,,,,,,,,,
,,,,,,,,,,,right.png,,p,right,61118740f276fed33c6e6894,2021-10-27_12h17.04.904,arrow_simon_punish,2021.1.2,Win32,59.77643613,,,,,,,,,,,,,,p,1,1.5232,1.900787645,0,1,14,2,58,1,1,,,,,,,,,,,,,,
,,,,,,,,,,,left.png,,w,left,61118740f276fed33c6e6894,2021-10-27_12h17.04.904,arrow_simon_punish,2021.1.2,Win32,59.77643613,,,,,,,,,,,,,,w,1,1.468,1.569807611,0,1,14,3,59,2,1,,,,,,,,,,,,,,
,,,,,,,,,,,,,,,61118740f276fed33c6e6894,2021-10-27_12h17.04.904,arrow_simon_punish,2021.1.2,Win32,59.77643613,,,,,,,,,,,,,,,,,,,,,,,,,space,1.132,8,3,0,6,0,1,1,,,,,
,,,,,,,,,,,left.png,,w,left,61118740f276fed33c6e6894,2021-10-27_12h17.04.904,arrow_simon_punish,2021.1.2,Win32,59.77643613,,,,,,,,,,,,,,w,1,1.0541,1.73598476,1,5,0,0,0,2,1,,,,,,,,,,,,,,
,,,,,,,,,,,right.png,,p,left,61118740f276fed33c6e6894,2021-10-27_12h17.04.904,arrow_simon_punish,2021.1.2,Win32,59.77643613,,,,,,,,,,,,,,p,1,1.573,2.132078063,0,5,0,1,1,0,1,,,,,,,,,,,,,,
,,,,,,,,,,,right.png,,p,right,61118740f276fed33c6e6894,2021-10-27_12h17.04.904,arrow_simon_punish,2021.1.2,Win32,59.77643613,,,,,,,,,,,,,,p,1,1.4909,2.038033452,0,5,0,2,2,1,1,,,,,,,,,,,,,,
,,,,,,,,,,,right.png,,p,right,61118740f276fed33c6e6894,2021-10-27_12h17.04.904,arrow_simon_punish,2021.1.2,Win32,59.77643613,,,,,,,,,,,,,,p,1,1.1031,1.988355155,1,5,0,3,3,1,1,,,,,,,,,,,,,,
,,,,,,,,,,,right.png,,p,right,61118740f276fed33c6e6894,2021-10-27_12h17.04.904,arrow_simon_punish,2021.1.2,Win32,59.77643613,,,,,,,,,,,,,,p,1,1.5199,1.968210463,0,5,1,0,4,1,1,,,,,,,,,,,,,,
,,,,,,,,,,,left.png,,w,right,61118740f276fed33c6e6894,2021-10-27_12h17.04.904,arrow_simon_punish,2021.1.2,Win32,59.77643613,,,,,,,,,,,,,,w,1,1.2692,1.787397828,1,5,1,1,5,3,1,,,,,,,,,,,,,,
,,,,,,,,,,,right.png,,p,left,61118740f276fed33c6e6894,2021-10-27_12h17.04.904,arrow_simon_punish,2021.1.2,Win32,59.77643613,,,,,,,,,,,,,,p,1,1.632,2.053448722,1,5,1,2,6,0,1,,,,,,,,,,,,,,
,,,,,,,,,,,left.png,,w,right,61118740f276fed33c6e6894,2021-10-27_12h17.04.904,arrow_simon_punish,2021.1.2,Win32,59.77643613,,,,,,,,,,,,,,w,1,1.569,2.183327242,0,5,1,3,7,3,1,,,,,,,,,,,,,,
