instruct_resp_simon.keys,instruct_resp_simon.corr,instruct_resp_simon.rt,trial_resp_simon.keys,trial_resp_simon.corr,trial_resp_simon.rt,trials_train_simon.thisRepN,trials_train_simon.thisTrialN,trials_train_simon.thisN,trials_train_simon.thisIndex,trials_train_simon.ran,target_file,target_pos,target_resp,target_side,participant,date,expName,psychopyVersion,OS,frameRate,instruct_resp_timing.keys,instruct_resp_timing.corr,instruct_resp_timing.rt,trial_resp_timing.keys,trial_resp_timing.rt,trials_train_timing.thisRepN,trials_train_timing.thisTrialN,trials_train_timing.thisN,trials_train_timing.thisIndex,trials_train_timing.ran,instruct_resp.keys,instruct_resp.corr,instruct_resp.rt,trial_resp.keys,trial_resp.corr,trial_resp.rt,target_onset,err,pun,trials.thisRepN,trials.thisTrialN,trials.thisN,trials.thisIndex,trials.ran,block_note_resp.keys,block_note_resp.rt,block_num,blocks.thisRepN,blocks.thisTrialN,blocks.thisN,blocks.thisIndex,blocks.ran,punish,complete_resp.keys,complete_resp.rt,raffle_trial,raffle_err,raffle_rew
space,0,57.6118,p,1,2.2851,0,0,0,0,1,right.png,,p,left,61153455405f1e389764b2a3,2021-10-27_13h08.39.317,arrow_simon_punish,2021.1.2,MacIntel,59.97361161,,,,,,,,,,,,,,,,,,,,,,,,,,,,,,,,,,,,,,
,,,w,1,0.8359,0,1,1,2,1,left.png,,w,left,61153455405f1e389764b2a3,2021-10-27_13h08.39.317,arrow_simon_punish,2021.1.2,MacIntel,59.97361161,,,,,,,,,,,,,,,,,,,,,,,,,,,,,,,,,,,,,,
,,,w,1,1.4574,0,2,2,3,1,left.png,,w,right,61153455405f1e389764b2a3,2021-10-27_13h08.39.317,arrow_simon_punish,2021.1.2,MacIntel,59.97361161,,,,,,,,,,,,,,,,,,,,,,,,,,,,,,,,,,,,,,
,,,p,1,1.5199,0,3,3,1,1,right.png,,p,right,61153455405f1e389764b2a3,2021-10-27_13h08.39.317,arrow_simon_punish,2021.1.2,MacIntel,59.97361161,,,,,,,,,,,,,,,,,,,,,,,,,,,,,,,,,,,,,,
,,,w,1,0.7345,1,0,4,3,1,left.png,,w,right,61153455405f1e389764b2a3,2021-10-27_13h08.39.317,arrow_simon_punish,2021.1.2,MacIntel,59.97361161,,,,,,,,,,,,,,,,,,,,,,,,,,,,,,,,,,,,,,
,,,p,1,0.583,1,1,5,1,1,right.png,,p,right,61153455405f1e389764b2a3,2021-10-27_13h08.39.317,arrow_simon_punish,2021.1.2,MacIntel,59.97361161,,,,,,,,,,,,,,,,,,,,,,,,,,,,,,,,,,,,,,
,,,p,1,1.1511,1,2,6,0,1,right.png,,p,left,61153455405f1e389764b2a3,2021-10-27_13h08.39.317,arrow_simon_punish,2021.1.2,MacIntel,59.97361161,,,,,,,,,,,,,,,,,,,,,,,,,,,,,,,,,,,,,,
,,,w,1,0.6703,1,3,7,2,1,left.png,,w,left,61153455405f1e389764b2a3,2021-10-27_13h08.39.317,arrow_simon_punish,2021.1.2,MacIntel,59.97361161,,,,,,,,,,,,,,,,,,,,,,,,,,,,,,,,,,,,,,
,,,w,1,0.6674,2,0,8,2,1,left.png,,w,left,61153455405f1e389764b2a3,2021-10-27_13h08.39.317,arrow_simon_punish,2021.1.2,MacIntel,59.97361161,,,,,,,,,,,,,,,,,,,,,,,,,,,,,,,,,,,,,,
,,,w,1,1.2352,2,1,9,3,1,left.png,,w,right,61153455405f1e389764b2a3,2021-10-27_13h08.39.317,arrow_simon_punish,2021.1.2,MacIntel,59.97361161,,,,,,,,,,,,,,,,,,,,,,,,,,,,,,,,,,,,,,
,,,p,1,1.3001,2,2,10,1,1,right.png,,p,right,61153455405f1e389764b2a3,2021-10-27_13h08.39.317,arrow_simon_punish,2021.1.2,MacIntel,59.97361161,,,,,,,,,,,,,,,,,,,,,,,,,,,,,,,,,,,,,,
,,,p,1,1.4,2,3,11,0,1,right.png,,p,left,61153455405f1e389764b2a3,2021-10-27_13h08.39.317,arrow_simon_punish,2021.1.2,MacIntel,59.97361161,,,,,,,,,,,,,,,,,,,,,,,,,,,,,,,,,,,,,,
,,,w,1,1.4542,3,0,12,2,1,left.png,,w,left,61153455405f1e389764b2a3,2021-10-27_13h08.39.317,arrow_simon_punish,2021.1.2,MacIntel,59.97361161,,,,,,,,,,,,,,,,,,,,,,,,,,,,,,,,,,,,,,
,,,p,1,0.8352,3,1,13,0,1,right.png,,p,left,61153455405f1e389764b2a3,2021-10-27_13h08.39.317,arrow_simon_punish,2021.1.2,MacIntel,59.97361161,,,,,,,,,,,,,,,,,,,,,,,,,,,,,,,,,,,,,,
,,,p,1,1.1676,3,2,14,1,1,right.png,,p,right,61153455405f1e389764b2a3,2021-10-27_13h08.39.317,arrow_simon_punish,2021.1.2,MacIntel,59.97361161,,,,,,,,,,,,,,,,,,,,,,,,,,,,,,,,,,,,,,
,,,w,1,1.0845,3,3,15,3,1,left.png,,w,right,61153455405f1e389764b2a3,2021-10-27_13h08.39.317,arrow_simon_punish,2021.1.2,MacIntel,59.97361161,,,,,,,,,,,,,,,,,,,,,,,,,,,,,,,,,,,,,,
,,,p,1,0.9389,4,0,16,1,1,right.png,,p,right,61153455405f1e389764b2a3,2021-10-27_13h08.39.317,arrow_simon_punish,2021.1.2,MacIntel,59.97361161,,,,,,,,,,,,,,,,,,,,,,,,,,,,,,,,,,,,,,
,,,w,1,0.616,4,1,17,3,1,left.png,,w,right,61153455405f1e389764b2a3,2021-10-27_13h08.39.317,arrow_simon_punish,2021.1.2,MacIntel,59.97361161,,,,,,,,,,,,,,,,,,,,,,,,,,,,,,,,,,,,,,
,,,w,1,1.4051,4,2,18,2,1,left.png,,w,left,61153455405f1e389764b2a3,2021-10-27_13h08.39.317,arrow_simon_punish,2021.1.2,MacIntel,59.97361161,,,,,,,,,,,,,,,,,,,,,,,,,,,,,,,,,,,,,,
,,,p,1,0.7541,4,3,19,0,1,right.png,,p,left,61153455405f1e389764b2a3,2021-10-27_13h08.39.317,arrow_simon_punish,2021.1.2,MacIntel,59.97361161,,,,,,,,,,,,,,,,,,,,,,,,,,,,,,,,,,,,,,
,,,w,1,1.3025,5,0,20,2,1,left.png,,w,left,61153455405f1e389764b2a3,2021-10-27_13h08.39.317,arrow_simon_punish,2021.1.2,MacIntel,59.97361161,,,,,,,,,,,,,,,,,,,,,,,,,,,,,,,,,,,,,,
,,,p,1,1.5042,5,1,21,0,1,right.png,,p,left,61153455405f1e389764b2a3,2021-10-27_13h08.39.317,arrow_simon_punish,2021.1.2,MacIntel,59.97361161,,,,,,,,,,,,,,,,,,,,,,,,,,,,,,,,,,,,,,
,,,w,1,0.8995,5,2,22,3,1,left.png,,w,right,61153455405f1e389764b2a3,2021-10-27_13h08.39.317,arrow_simon_punish,2021.1.2,MacIntel,59.97361161,,,,,,,,,,,,,,,,,,,,,,,,,,,,,,,,,,,,,,
,,,p,1,0.6697,5,3,23,1,1,right.png,,p,right,61153455405f1e389764b2a3,2021-10-27_13h08.39.317,arrow_simon_punish,2021.1.2,MacIntel,59.97361161,,,,,,,,,,,,,,,,,,,,,,,,,,,,,,,,,,,,,,
,,,p,1,1.2363,6,0,24,1,1,right.png,,p,right,61153455405f1e389764b2a3,2021-10-27_13h08.39.317,arrow_simon_punish,2021.1.2,MacIntel,59.97361161,,,,,,,,,,,,,,,,,,,,,,,,,,,,,,,,,,,,,,
,,,w,1,1.4026,6,1,25,3,1,left.png,,w,right,61153455405f1e389764b2a3,2021-10-27_13h08.39.317,arrow_simon_punish,2021.1.2,MacIntel,59.97361161,,,,,,,,,,,,,,,,,,,,,,,,,,,,,,,,,,,,,,
,,,p,1,0.7184,6,2,26,0,1,right.png,,p,left,61153455405f1e389764b2a3,2021-10-27_13h08.39.317,arrow_simon_punish,2021.1.2,MacIntel,59.97361161,,,,,,,,,,,,,,,,,,,,,,,,,,,,,,,,,,,,,,
,,,w,1,0.7685,6,3,27,2,1,left.png,,w,left,61153455405f1e389764b2a3,2021-10-27_13h08.39.317,arrow_simon_punish,2021.1.2,MacIntel,59.97361161,,,,,,,,,,,,,,,,,,,,,,,,,,,,,,,,,,,,,,
,,,w,1,0.5865,7,0,28,3,1,left.png,,w,right,61153455405f1e389764b2a3,2021-10-27_13h08.39.317,arrow_simon_punish,2021.1.2,MacIntel,59.97361161,,,,,,,,,,,,,,,,,,,,,,,,,,,,,,,,,,,,,,
,,,w,1,0.6033,7,1,29,2,1,left.png,,w,left,61153455405f1e389764b2a3,2021-10-27_13h08.39.317,arrow_simon_punish,2021.1.2,MacIntel,59.97361161,,,,,,,,,,,,,,,,,,,,,,,,,,,,,,,,,,,,,,
,,,p,1,1.1323,7,2,30,1,1,right.png,,p,right,61153455405f1e389764b2a3,2021-10-27_13h08.39.317,arrow_simon_punish,2021.1.2,MacIntel,59.97361161,,,,,,,,,,,,,,,,,,,,,,,,,,,,,,,,,,,,,,
,,,p,1,1.1876,7,3,31,0,1,right.png,,p,left,61153455405f1e389764b2a3,2021-10-27_13h08.39.317,arrow_simon_punish,2021.1.2,MacIntel,59.97361161,,,,,,,,,,,,,,,,,,,,,,,,,,,,,,,,,,,,,,
,,,w,1,0.9675,8,0,32,2,1,left.png,,w,left,61153455405f1e389764b2a3,2021-10-27_13h08.39.317,arrow_simon_punish,2021.1.2,MacIntel,59.97361161,,,,,,,,,,,,,,,,,,,,,,,,,,,,,,,,,,,,,,
,,,p,1,1.3338,8,1,33,0,1,right.png,,p,left,61153455405f1e389764b2a3,2021-10-27_13h08.39.317,arrow_simon_punish,2021.1.2,MacIntel,59.97361161,,,,,,,,,,,,,,,,,,,,,,,,,,,,,,,,,,,,,,
,,,w,1,1.3182,8,2,34,3,1,left.png,,w,right,61153455405f1e389764b2a3,2021-10-27_13h08.39.317,arrow_simon_punish,2021.1.2,MacIntel,59.97361161,,,,,,,,,,,,,,,,,,,,,,,,,,,,,,,,,,,,,,
,,,p,1,1.5509,8,3,35,1,1,right.png,,p,right,61153455405f1e389764b2a3,2021-10-27_13h08.39.317,arrow_simon_punish,2021.1.2,MacIntel,59.97361161,,,,,,,,,,,,,,,,,,,,,,,,,,,,,,,,,,,,,,
,,,w,1,1.3348,9,0,36,3,1,left.png,,w,right,61153455405f1e389764b2a3,2021-10-27_13h08.39.317,arrow_simon_punish,2021.1.2,MacIntel,59.97361161,,,,,,,,,,,,,,,,,,,,,,,,,,,,,,,,,,,,,,
,,,w,1,1.2172,9,1,37,2,1,left.png,,w,left,61153455405f1e389764b2a3,2021-10-27_13h08.39.317,arrow_simon_punish,2021.1.2,MacIntel,59.97361161,,,,,,,,,,,,,,,,,,,,,,,,,,,,,,,,,,,,,,
,,,p,1,0.9673,9,2,38,0,1,right.png,,p,left,61153455405f1e389764b2a3,2021-10-27_13h08.39.317,arrow_simon_punish,2021.1.2,MacIntel,59.97361161,,,,,,,,,,,,,,,,,,,,,,,,,,,,,,,,,,,,,,
,,,p,1,0.4673,9,3,39,1,1,right.png,,p,right,61153455405f1e389764b2a3,2021-10-27_13h08.39.317,arrow_simon_punish,2021.1.2,MacIntel,59.97361161,,,,,,,,,,,,,,,,,,,,,,,,,,,,,,,,,,,,,,
,,,,,,,,,,,,,,,61153455405f1e389764b2a3,2021-10-27_13h08.39.317,arrow_simon_punish,2021.1.2,MacIntel,59.97361161,space,0,19.9527,p,1.5557,0,0,0,0,1,,,,,,,,,,,,,,,,,,,,,,,,,,,,
,,,,,,,,,,,,,,,61153455405f1e389764b2a3,2021-10-27_13h08.39.317,arrow_simon_punish,2021.1.2,MacIntel,59.97361161,,,,p,2.8862,1,0,1,0,1,,,,,,,,,,,,,,,,,,,,,,,,,,,,
,,,,,,,,,,,,,,,61153455405f1e389764b2a3,2021-10-27_13h08.39.317,arrow_simon_punish,2021.1.2,MacIntel,59.97361161,,,,p,2.7862,2,0,2,0,1,,,,,,,,,,,,,,,,,,,,,,,,,,,,
,,,,,,,,,,,,,,,61153455405f1e389764b2a3,2021-10-27_13h08.39.317,arrow_simon_punish,2021.1.2,MacIntel,59.97361161,,,,p,2.4006,3,0,3,0,1,,,,,,,,,,,,,,,,,,,,,,,,,,,,
,,,,,,,,,,,,,,,61153455405f1e389764b2a3,2021-10-27_13h08.39.317,arrow_simon_punish,2021.1.2,MacIntel,59.97361161,,,,p,2.1998,4,0,4,0,1,,,,,,,,,,,,,,,,,,,,,,,,,,,,
,,,,,,,,,,,,,,,61153455405f1e389764b2a3,2021-10-27_13h08.39.317,arrow_simon_punish,2021.1.2,MacIntel,59.97361161,,,,p,2.6245,5,0,5,0,1,,,,,,,,,,,,,,,,,,,,,,,,,,,,
,,,,,,,,,,,,,,,61153455405f1e389764b2a3,2021-10-27_13h08.39.317,arrow_simon_punish,2021.1.2,MacIntel,59.97361161,,,,p,2.6016,6,0,6,0,1,,,,,,,,,,,,,,,,,,,,,,,,,,,,
,,,,,,,,,,,,,,,61153455405f1e389764b2a3,2021-10-27_13h08.39.317,arrow_simon_punish,2021.1.2,MacIntel,59.97361161,,,,p,2.4683,7,0,7,0,1,,,,,,,,,,,,,,,,,,,,,,,,,,,,
,,,,,,,,,,,,,,,61153455405f1e389764b2a3,2021-10-27_13h08.39.317,arrow_simon_punish,2021.1.2,MacIntel,59.97361161,,,,p,2.4859,8,0,8,0,1,,,,,,,,,,,,,,,,,,,,,,,,,,,,
,,,,,,,,,,,,,,,61153455405f1e389764b2a3,2021-10-27_13h08.39.317,arrow_simon_punish,2021.1.2,MacIntel,59.97361161,,,,p,2.4699,9,0,9,0,1,,,,,,,,,,,,,,,,,,,,,,,,,,,,
,,,,,,,,,,,,,,,61153455405f1e389764b2a3,2021-10-27_13h08.39.317,arrow_simon_punish,2021.1.2,MacIntel,59.97361161,,,,p,2.4502,10,0,10,0,1,,,,,,,,,,,,,,,,,,,,,,,,,,,,
,,,,,,,,,,,,,,,61153455405f1e389764b2a3,2021-10-27_13h08.39.317,arrow_simon_punish,2021.1.2,MacIntel,59.97361161,,,,w,2.4224,11,0,11,0,1,,,,,,,,,,,,,,,,,,,,,,,,,,,,
,,,,,,,,,,,,,,,61153455405f1e389764b2a3,2021-10-27_13h08.39.317,arrow_simon_punish,2021.1.2,MacIntel,59.97361161,,,,w,2.368,12,0,12,0,1,,,,,,,,,,,,,,,,,,,,,,,,,,,,
,,,,,,,,,,,,,,,61153455405f1e389764b2a3,2021-10-27_13h08.39.317,arrow_simon_punish,2021.1.2,MacIntel,59.97361161,,,,p,2.3723,13,0,13,0,1,,,,,,,,,,,,,,,,,,,,,,,,,,,,
,,,,,,,,,,,,,,,61153455405f1e389764b2a3,2021-10-27_13h08.39.317,arrow_simon_punish,2021.1.2,MacIntel,59.97361161,,,,p,2.6038,14,0,14,0,1,,,,,,,,,,,,,,,,,,,,,,,,,,,,
,,,,,,,,,,,,,,,61153455405f1e389764b2a3,2021-10-27_13h08.39.317,arrow_simon_punish,2021.1.2,MacIntel,59.97361161,,,,w,2.4898,15,0,15,0,1,,,,,,,,,,,,,,,,,,,,,,,,,,,,
,,,,,,,,,,,,,,,61153455405f1e389764b2a3,2021-10-27_13h08.39.317,arrow_simon_punish,2021.1.2,MacIntel,59.97361161,,,,p,2.3859,16,0,16,0,1,,,,,,,,,,,,,,,,,,,,,,,,,,,,
,,,,,,,,,,,,,,,61153455405f1e389764b2a3,2021-10-27_13h08.39.317,arrow_simon_punish,2021.1.2,MacIntel,59.97361161,,,,p,2.4039,17,0,17,0,1,,,,,,,,,,,,,,,,,,,,,,,,,,,,
,,,,,,,,,,,,,,,61153455405f1e389764b2a3,2021-10-27_13h08.39.317,arrow_simon_punish,2021.1.2,MacIntel,59.97361161,,,,p,2.4337,18,0,18,0,1,,,,,,,,,,,,,,,,,,,,,,,,,,,,
,,,,,,,,,,,,,,,61153455405f1e389764b2a3,2021-10-27_13h08.39.317,arrow_simon_punish,2021.1.2,MacIntel,59.97361161,,,,p,2.4882,19,0,19,0,1,,,,,,,,,,,,,,,,,,,,,,,,,,,,
,,,,,,,,,,,,,,,61153455405f1e389764b2a3,2021-10-27_13h08.39.317,arrow_simon_punish,2021.1.2,MacIntel,59.97361161,,,,p,2.5158,20,0,20,0,1,,,,,,,,,,,,,,,,,,,,,,,,,,,,
,,,,,,,,,,,,,,,61153455405f1e389764b2a3,2021-10-27_13h08.39.317,arrow_simon_punish,2021.1.2,MacIntel,59.97361161,,,,p,2.5524,21,0,21,0,1,,,,,,,,,,,,,,,,,,,,,,,,,,,,
,,,,,,,,,,,,,,,61153455405f1e389764b2a3,2021-10-27_13h08.39.317,arrow_simon_punish,2021.1.2,MacIntel,59.97361161,,,,p,2.4438,22,0,22,0,1,,,,,,,,,,,,,,,,,,,,,,,,,,,,
,,,,,,,,,,,,,,,61153455405f1e389764b2a3,2021-10-27_13h08.39.317,arrow_simon_punish,2021.1.2,MacIntel,59.97361161,,,,w,2.5064,23,0,23,0,1,,,,,,,,,,,,,,,,,,,,,,,,,,,,
,,,,,,,,,,,,,,,61153455405f1e389764b2a3,2021-10-27_13h08.39.317,arrow_simon_punish,2021.1.2,MacIntel,59.97361161,,,,w,2.5208,24,0,24,0,1,,,,,,,,,,,,,,,,,,,,,,,,,,,,
,,,,,,,,,,,,,,,61153455405f1e389764b2a3,2021-10-27_13h08.39.317,arrow_simon_punish,2021.1.2,MacIntel,59.97361161,,,,p,2.5398,25,0,25,0,1,,,,,,,,,,,,,,,,,,,,,,,,,,,,
,,,,,,,,,,,,,,,61153455405f1e389764b2a3,2021-10-27_13h08.39.317,arrow_simon_punish,2021.1.2,MacIntel,59.97361161,,,,p,2.6194,26,0,26,0,1,,,,,,,,,,,,,,,,,,,,,,,,,,,,
,,,,,,,,,,,,,,,61153455405f1e389764b2a3,2021-10-27_13h08.39.317,arrow_simon_punish,2021.1.2,MacIntel,59.97361161,,,,w,2.4883,27,0,27,0,1,,,,,,,,,,,,,,,,,,,,,,,,,,,,
,,,,,,,,,,,,,,,61153455405f1e389764b2a3,2021-10-27_13h08.39.317,arrow_simon_punish,2021.1.2,MacIntel,59.97361161,,,,w,2.5017,28,0,28,0,1,,,,,,,,,,,,,,,,,,,,,,,,,,,,
,,,,,,,,,,,,,,,61153455405f1e389764b2a3,2021-10-27_13h08.39.317,arrow_simon_punish,2021.1.2,MacIntel,59.97361161,,,,p,2.4188,29,0,29,0,1,,,,,,,,,,,,,,,,,,,,,,,,,,,,
,,,,,,,,,,,,,,,61153455405f1e389764b2a3,2021-10-27_13h08.39.317,arrow_simon_punish,2021.1.2,MacIntel,59.97361161,,,,p,2.4528,30,0,30,0,1,,,,,,,,,,,,,,,,,,,,,,,,,,,,
,,,,,,,,,,,,,,,61153455405f1e389764b2a3,2021-10-27_13h08.39.317,arrow_simon_punish,2021.1.2,MacIntel,59.97361161,,,,p,2.5051,31,0,31,0,1,,,,,,,,,,,,,,,,,,,,,,,,,,,,
,,,,,,,,,,,,,,,61153455405f1e389764b2a3,2021-10-27_13h08.39.317,arrow_simon_punish,2021.1.2,MacIntel,59.97361161,,,,p,2.5572,32,0,32,0,1,,,,,,,,,,,,,,,,,,,,,,,,,,,,
,,,,,,,,,,,,,,,61153455405f1e389764b2a3,2021-10-27_13h08.39.317,arrow_simon_punish,2021.1.2,MacIntel,59.97361161,,,,p,2.4538,33,0,33,0,1,,,,,,,,,,,,,,,,,,,,,,,,,,,,
,,,,,,,,,,,,,,,61153455405f1e389764b2a3,2021-10-27_13h08.39.317,arrow_simon_punish,2021.1.2,MacIntel,59.97361161,,,,p,2.4717,34,0,34,0,1,,,,,,,,,,,,,,,,,,,,,,,,,,,,
,,,,,,,,,,,,,,,61153455405f1e389764b2a3,2021-10-27_13h08.39.317,arrow_simon_punish,2021.1.2,MacIntel,59.97361161,,,,p,2.418,35,0,35,0,1,,,,,,,,,,,,,,,,,,,,,,,,,,,,
,,,,,,,,,,,,,,,61153455405f1e389764b2a3,2021-10-27_13h08.39.317,arrow_simon_punish,2021.1.2,MacIntel,59.97361161,,,,p,2.5021,36,0,36,0,1,,,,,,,,,,,,,,,,,,,,,,,,,,,,
,,,,,,,,,,,,,,,61153455405f1e389764b2a3,2021-10-27_13h08.39.317,arrow_simon_punish,2021.1.2,MacIntel,59.97361161,,,,p,2.5856,37,0,37,0,1,,,,,,,,,,,,,,,,,,,,,,,,,,,,
,,,,,,,,,,,,,,,61153455405f1e389764b2a3,2021-10-27_13h08.39.317,arrow_simon_punish,2021.1.2,MacIntel,59.97361161,,,,p,2.3367,38,0,38,0,1,,,,,,,,,,,,,,,,,,,,,,,,,,,,
,,,,,,,,,,,,,,,61153455405f1e389764b2a3,2021-10-27_13h08.39.317,arrow_simon_punish,2021.1.2,MacIntel,59.97361161,,,,p,2.5201,39,0,39,0,1,,,,,,,,,,,,,,,,,,,,,,,,,,,,
,,,,,,,,,,,,,,,61153455405f1e389764b2a3,2021-10-27_13h08.39.317,arrow_simon_punish,2021.1.2,MacIntel,59.97361161,,,,p,2.5198,40,0,40,0,1,,,,,,,,,,,,,,,,,,,,,,,,,,,,
,,,,,,,,,,,,,,,61153455405f1e389764b2a3,2021-10-27_13h08.39.317,arrow_simon_punish,2021.1.2,MacIntel,59.97361161,,,,p,2.5189,41,0,41,0,1,,,,,,,,,,,,,,,,,,,,,,,,,,,,
,,,,,,,,,,,,,,,61153455405f1e389764b2a3,2021-10-27_13h08.39.317,arrow_simon_punish,2021.1.2,MacIntel,59.97361161,,,,p,2.5685,42,0,42,0,1,,,,,,,,,,,,,,,,,,,,,,,,,,,,
,,,,,,,,,,,,,,,61153455405f1e389764b2a3,2021-10-27_13h08.39.317,arrow_simon_punish,2021.1.2,MacIntel,59.97361161,,,,p,2.3219,43,0,43,0,1,,,,,,,,,,,,,,,,,,,,,,,,,,,,
,,,,,,,,,,,,,,,61153455405f1e389764b2a3,2021-10-27_13h08.39.317,arrow_simon_punish,2021.1.2,MacIntel,59.97361161,,,,p,2.4586,44,0,44,0,1,,,,,,,,,,,,,,,,,,,,,,,,,,,,
,,,,,,,,,,,,,,,61153455405f1e389764b2a3,2021-10-27_13h08.39.317,arrow_simon_punish,2021.1.2,MacIntel,59.97361161,,,,p,2.4841,45,0,45,0,1,,,,,,,,,,,,,,,,,,,,,,,,,,,,
,,,,,,,,,,,,,,,61153455405f1e389764b2a3,2021-10-27_13h08.39.317,arrow_simon_punish,2021.1.2,MacIntel,59.97361161,,,,p,2.4867,46,0,46,0,1,,,,,,,,,,,,,,,,,,,,,,,,,,,,
,,,,,,,,,,,,,,,61153455405f1e389764b2a3,2021-10-27_13h08.39.317,arrow_simon_punish,2021.1.2,MacIntel,59.97361161,,,,p,2.4895,47,0,47,0,1,,,,,,,,,,,,,,,,,,,,,,,,,,,,
,,,,,,,,,,,,,,,61153455405f1e389764b2a3,2021-10-27_13h08.39.317,arrow_simon_punish,2021.1.2,MacIntel,59.97361161,,,,p,2.5573,48,0,48,0,1,,,,,,,,,,,,,,,,,,,,,,,,,,,,
,,,,,,,,,,,,,,,61153455405f1e389764b2a3,2021-10-27_13h08.39.317,arrow_simon_punish,2021.1.2,MacIntel,59.97361161,,,,p,2.4524,49,0,49,0,1,,,,,,,,,,,,,,,,,,,,,,,,,,,,
,,,,,,,,,,,,,,,61153455405f1e389764b2a3,2021-10-27_13h08.39.317,arrow_simon_punish,2021.1.2,MacIntel,59.97361161,,,,p,2.5849,50,0,50,0,1,,,,,,,,,,,,,,,,,,,,,,,,,,,,
,,,,,,,,,,,,,,,61153455405f1e389764b2a3,2021-10-27_13h08.39.317,arrow_simon_punish,2021.1.2,MacIntel,59.97361161,,,,p,2.4565,51,0,51,0,1,,,,,,,,,,,,,,,,,,,,,,,,,,,,
,,,,,,,,,,,,,,,61153455405f1e389764b2a3,2021-10-27_13h08.39.317,arrow_simon_punish,2021.1.2,MacIntel,59.97361161,,,,p,2.4342,52,0,52,0,1,,,,,,,,,,,,,,,,,,,,,,,,,,,,
,,,,,,,,,,,,,,,61153455405f1e389764b2a3,2021-10-27_13h08.39.317,arrow_simon_punish,2021.1.2,MacIntel,59.97361161,,,,p,2.4188,53,0,53,0,1,,,,,,,,,,,,,,,,,,,,,,,,,,,,
,,,,,,,,,,,,,,,61153455405f1e389764b2a3,2021-10-27_13h08.39.317,arrow_simon_punish,2021.1.2,MacIntel,59.97361161,,,,p,2.4032,54,0,54,0,1,,,,,,,,,,,,,,,,,,,,,,,,,,,,
,,,,,,,,,,,,,,,61153455405f1e389764b2a3,2021-10-27_13h08.39.317,arrow_simon_punish,2021.1.2,MacIntel,59.97361161,,,,p,2.3523,55,0,55,0,1,,,,,,,,,,,,,,,,,,,,,,,,,,,,
,,,,,,,,,,,,,,,61153455405f1e389764b2a3,2021-10-27_13h08.39.317,arrow_simon_punish,2021.1.2,MacIntel,59.97361161,,,,p,2.447,56,0,56,0,1,,,,,,,,,,,,,,,,,,,,,,,,,,,,
,,,,,,,,,,,,,,,61153455405f1e389764b2a3,2021-10-27_13h08.39.317,arrow_simon_punish,2021.1.2,MacIntel,59.97361161,,,,p,2.4658,57,0,57,0,1,,,,,,,,,,,,,,,,,,,,,,,,,,,,
,,,,,,,,,,,,,,,61153455405f1e389764b2a3,2021-10-27_13h08.39.317,arrow_simon_punish,2021.1.2,MacIntel,59.97361161,,,,p,2.4227,58,0,58,0,1,,,,,,,,,,,,,,,,,,,,,,,,,,,,
,,,,,,,,,,,,,,,61153455405f1e389764b2a3,2021-10-27_13h08.39.317,arrow_simon_punish,2021.1.2,MacIntel,59.97361161,,,,p,2.4013,59,0,59,0,1,,,,,,,,,,,,,,,,,,,,,,,,,,,,
,,,,,,,,,,,left.png,,w,left,61153455405f1e389764b2a3,2021-10-27_13h08.39.317,arrow_simon_punish,2021.1.2,MacIntel,59.97361161,,,,,,,,,,,space,0,686.7964,p,0,1.5029,2.251848435,1,1,0,0,0,2,1,,,,,,,,,,,,,,
,,,,,,,,,,,left.png,,w,right,61153455405f1e389764b2a3,2021-10-27_13h08.39.317,arrow_simon_punish,2021.1.2,MacIntel,59.97361161,,,,,,,,,,,,,,p,0,1.5167,2.354570997,1,1,0,1,1,3,1,,,,,,,,,,,,,,
,,,,,,,,,,,left.png,,w,left,61153455405f1e389764b2a3,2021-10-27_13h08.39.317,arrow_simon_punish,2021.1.2,MacIntel,59.97361161,,,,,,,,,,,,,,w,1,1.2031,1.784617535,1,1,0,2,2,2,1,,,,,,,,,,,,,,
,,,,,,,,,,,right.png,,p,left,61153455405f1e389764b2a3,2021-10-27_13h08.39.317,arrow_simon_punish,2021.1.2,MacIntel,59.97361161,,,,,,,,,,,,,,p,1,1.3006,1.999375716,1,1,0,3,3,0,1,,,,,,,,,,,,,,
,,,,,,,,,,,right.png,,p,left,61153455405f1e389764b2a3,2021-10-27_13h08.39.317,arrow_simon_punish,2021.1.2,MacIntel,59.97361161,,,,,,,,,,,,,,p,1,1.0219,1.574827099,1,1,1,0,4,0,1,,,,,,,,,,,,,,
,,,,,,,,,,,right.png,,p,right,61153455405f1e389764b2a3,2021-10-27_13h08.39.317,arrow_simon_punish,2021.1.2,MacIntel,59.97361161,,,,,,,,,,,,,,w,0,1.6338,2.473953271,1,1,1,1,5,1,1,,,,,,,,,,,,,,
,,,,,,,,,,,left.png,,w,left,61153455405f1e389764b2a3,2021-10-27_13h08.39.317,arrow_simon_punish,2021.1.2,MacIntel,59.97361161,,,,,,,,,,,,,,w,1,1.3725,1.908123497,1,1,1,2,6,2,1,,,,,,,,,,,,,,
,,,,,,,,,,,right.png,,p,left,61153455405f1e389764b2a3,2021-10-27_13h08.39.317,arrow_simon_punish,2021.1.2,MacIntel,59.97361161,,,,,,,,,,,,,,p,1,1.4523,1.612557651,0,1,1,3,7,0,1,,,,,,,,,,,,,,
,,,,,,,,,,,left.png,,w,left,61153455405f1e389764b2a3,2021-10-27_13h08.39.317,arrow_simon_punish,2021.1.2,MacIntel,59.97361161,,,,,,,,,,,,,,p,0,1.4331,2.156335315,1,1,2,0,8,2,1,,,,,,,,,,,,,,
,,,,,,,,,,,right.png,,p,right,61153455405f1e389764b2a3,2021-10-27_13h08.39.317,arrow_simon_punish,2021.1.2,MacIntel,59.97361161,,,,,,,,,,,,,,p,1,1.5014,2.183739827,0,1,2,1,9,1,1,,,,,,,,,,,,,,
,,,,,,,,,,,right.png,,p,left,61153455405f1e389764b2a3,2021-10-27_13h08.39.317,arrow_simon_punish,2021.1.2,MacIntel,59.97361161,,,,,,,,,,,,,,p,1,1.7029,2.430802382,1,1,2,2,10,0,1,,,,,,,,,,,,,,
,,,,,,,,,,,right.png,,p,right,61153455405f1e389764b2a3,2021-10-27_13h08.39.317,arrow_simon_punish,2021.1.2,MacIntel,59.97361161,,,,,,,,,,,,,,p,1,1.467,2.197070791,0,1,2,3,11,1,1,,,,,,,,,,,,,,
,,,,,,,,,,,left.png,,w,left,61153455405f1e389764b2a3,2021-10-27_13h08.39.317,arrow_simon_punish,2021.1.2,MacIntel,59.97361161,,,,,,,,,,,,,,p,0,1.5513,2.325898845,1,1,3,0,12,2,1,,,,,,,,,,,,,,
,,,,,,,,,,,right.png,,p,right,61153455405f1e389764b2a3,2021-10-27_13h08.39.317,arrow_simon_punish,2021.1.2,MacIntel,59.97361161,,,,,,,,,,,,,,p,1,1.4687,2.097617374,0,1,3,1,13,1,1,,,,,,,,,,,,,,
,,,,,,,,,,,left.png,,w,right,61153455405f1e389764b2a3,2021-10-27_13h08.39.317,arrow_simon_punish,2021.1.2,MacIntel,59.97361161,,,,,,,,,,,,,,w,1,1.5708,1.658441909,0,1,3,2,14,3,1,,,,,,,,,,,,,,
,,,,,,,,,,,right.png,,p,left,61153455405f1e389764b2a3,2021-10-27_13h08.39.317,arrow_simon_punish,2021.1.2,MacIntel,59.97361161,,,,,,,,,,,,,,p,1,1.5731,2.326839861,0,1,3,3,15,0,1,,,,,,,,,,,,,,
,,,,,,,,,,,right.png,,p,right,61153455405f1e389764b2a3,2021-10-27_13h08.39.317,arrow_simon_punish,2021.1.2,MacIntel,59.97361161,,,,,,,,,,,,,,p,1,1.4852,2.482213182,0,1,4,0,16,1,1,,,,,,,,,,,,,,
,,,,,,,,,,,right.png,,p,right,61153455405f1e389764b2a3,2021-10-27_13h08.39.317,arrow_simon_punish,2021.1.2,MacIntel,59.97361161,,,,,,,,,,,,,,p,1,1.4398,2.11648355,0,1,4,1,17,1,1,,,,,,,,,,,,,,
,,,,,,,,,,,left.png,,w,left,61153455405f1e389764b2a3,2021-10-27_13h08.39.317,arrow_simon_punish,2021.1.2,MacIntel,59.97361161,,,,,,,,,,,,,,p,0,1.4525,2.293228852,1,1,4,2,18,2,1,,,,,,,,,,,,,,
,,,,,,,,,,,left.png,,w,right,61153455405f1e389764b2a3,2021-10-27_13h08.39.317,arrow_simon_punish,2021.1.2,MacIntel,59.97361161,,,,,,,,,,,,,,p,0,1.4598,2.08738053,1,1,4,3,19,3,1,,,,,,,,,,,,,,
,,,,,,,,,,,right.png,,p,right,61153455405f1e389764b2a3,2021-10-27_13h08.39.317,arrow_simon_punish,2021.1.2,MacIntel,59.97361161,,,,,,,,,,,,,,p,1,1.5334,1.675766982,0,1,5,0,20,1,1,,,,,,,,,,,,,,
,,,,,,,,,,,left.png,,w,left,61153455405f1e389764b2a3,2021-10-27_13h08.39.317,arrow_simon_punish,2021.1.2,MacIntel,59.97361161,,,,,,,,,,,,,,w,1,1.6007,1.71925632,1,1,5,1,21,2,1,,,,,,,,,,,,,,
,,,,,,,,,,,left.png,,w,left,61153455405f1e389764b2a3,2021-10-27_13h08.39.317,arrow_simon_punish,2021.1.2,MacIntel,59.97361161,,,,,,,,,,,,,,w,1,1.5853,1.945674319,0,1,5,2,22,2,1,,,,,,,,,,,,,,
,,,,,,,,,,,left.png,,w,right,61153455405f1e389764b2a3,2021-10-27_13h08.39.317,arrow_simon_punish,2021.1.2,MacIntel,59.97361161,,,,,,,,,,,,,,w,1,1.5715,1.697215298,0,1,5,3,23,3,1,,,,,,,,,,,,,,
,,,,,,,,,,,left.png,,w,right,61153455405f1e389764b2a3,2021-10-27_13h08.39.317,arrow_simon_punish,2021.1.2,MacIntel,59.97361161,,,,,,,,,,,,,,w,1,1.5412,1.718033957,0,1,6,0,24,3,1,,,,,,,,,,,,,,
,,,,,,,,,,,left.png,,w,right,61153455405f1e389764b2a3,2021-10-27_13h08.39.317,arrow_simon_punish,2021.1.2,MacIntel,59.97361161,,,,,,,,,,,,,,p,0,1.4692,2.172713329,1,1,6,1,25,3,1,,,,,,,,,,,,,,
,,,,,,,,,,,right.png,,p,right,61153455405f1e389764b2a3,2021-10-27_13h08.39.317,arrow_simon_punish,2021.1.2,MacIntel,59.97361161,,,,,,,,,,,,,,p,1,1.5045,1.578504826,0,1,6,2,26,1,1,,,,,,,,,,,,,,
,,,,,,,,,,,right.png,,p,left,61153455405f1e389764b2a3,2021-10-27_13h08.39.317,arrow_simon_punish,2021.1.2,MacIntel,59.97361161,,,,,,,,,,,,,,p,1,1.5707,1.52401736,0,1,6,3,27,0,1,,,,,,,,,,,,,,
,,,,,,,,,,,left.png,,w,left,61153455405f1e389764b2a3,2021-10-27_13h08.39.317,arrow_simon_punish,2021.1.2,MacIntel,59.97361161,,,,,,,,,,,,,,w,1,1.5861,1.955230006,0,1,7,0,28,2,1,,,,,,,,,,,,,,
,,,,,,,,,,,left.png,,w,right,61153455405f1e389764b2a3,2021-10-27_13h08.39.317,arrow_simon_punish,2021.1.2,MacIntel,59.97361161,,,,,,,,,,,,,,w,1,1.5324,1.718690631,0,1,7,1,29,3,1,,,,,,,,,,,,,,
,,,,,,,,,,,left.png,,w,right,61153455405f1e389764b2a3,2021-10-27_13h08.39.317,arrow_simon_punish,2021.1.2,MacIntel,59.97361161,,,,,,,,,,,,,,p,0,1.5718,2.197293859,1,1,7,2,30,3,1,,,,,,,,,,,,,,
,,,,,,,,,,,left.png,,w,left,61153455405f1e389764b2a3,2021-10-27_13h08.39.317,arrow_simon_punish,2021.1.2,MacIntel,59.97361161,,,,,,,,,,,,,,w,1,1.6351,2.32725508,1,1,7,3,31,2,1,,,,,,,,,,,,,,
,,,,,,,,,,,left.png,,w,left,61153455405f1e389764b2a3,2021-10-27_13h08.39.317,arrow_simon_punish,2021.1.2,MacIntel,59.97361161,,,,,,,,,,,,,,w,1,1.5006,1.536386967,0,1,8,0,32,2,1,,,,,,,,,,,,,,
,,,,,,,,,,,left.png,,w,left,61153455405f1e389764b2a3,2021-10-27_13h08.39.317,arrow_simon_punish,2021.1.2,MacIntel,59.97361161,,,,,,,,,,,,,,w,1,1.555,1.555963815,0,1,8,1,33,2,1,,,,,,,,,,,,,,
,,,,,,,,,,,right.png,,p,left,61153455405f1e389764b2a3,2021-10-27_13h08.39.317,arrow_simon_punish,2021.1.2,MacIntel,59.97361161,,,,,,,,,,,,,,p,1,1.5207,1.510775409,0,1,8,2,34,0,1,,,,,,,,,,,,,,
,,,,,,,,,,,right.png,,p,right,61153455405f1e389764b2a3,2021-10-27_13h08.39.317,arrow_simon_punish,2021.1.2,MacIntel,59.97361161,,,,,,,,,,,,,,p,1,1.4693,1.55685536,0,1,8,3,35,1,1,,,,,,,,,,,,,,
,,,,,,,,,,,left.png,,w,left,61153455405f1e389764b2a3,2021-10-27_13h08.39.317,arrow_simon_punish,2021.1.2,MacIntel,59.97361161,,,,,,,,,,,,,,p,0,1.6377,1.80977053,1,1,9,0,36,2,1,,,,,,,,,,,,,,
,,,,,,,,,,,right.png,,p,left,61153455405f1e389764b2a3,2021-10-27_13h08.39.317,arrow_simon_punish,2021.1.2,MacIntel,59.97361161,,,,,,,,,,,,,,p,1,1.7213,2.483844006,1,1,9,1,37,0,1,,,,,,,,,,,,,,
,,,,,,,,,,,right.png,,p,right,61153455405f1e389764b2a3,2021-10-27_13h08.39.317,arrow_simon_punish,2021.1.2,MacIntel,59.97361161,,,,,,,,,,,,,,p,1,1.6906,2.408525217,1,1,9,2,38,1,1,,,,,,,,,,,,,,
,,,,,,,,,,,right.png,,p,right,61153455405f1e389764b2a3,2021-10-27_13h08.39.317,arrow_simon_punish,2021.1.2,MacIntel,59.97361161,,,,,,,,,,,,,,p,1,1.481,1.919210819,0,1,9,3,39,1,1,,,,,,,,,,,,,,
,,,,,,,,,,,right.png,,p,left,61153455405f1e389764b2a3,2021-10-27_13h08.39.317,arrow_simon_punish,2021.1.2,MacIntel,59.97361161,,,,,,,,,,,,,,p,1,1.5222,1.818268683,0,1,10,0,40,0,1,,,,,,,,,,,,,,
,,,,,,,,,,,left.png,,w,right,61153455405f1e389764b2a3,2021-10-27_13h08.39.317,arrow_simon_punish,2021.1.2,MacIntel,59.97361161,,,,,,,,,,,,,,w,1,1.5009,1.86148153,0,1,10,1,41,3,1,,,,,,,,,,,,,,
,,,,,,,,,,,left.png,,w,right,61153455405f1e389764b2a3,2021-10-27_13h08.39.317,arrow_simon_punish,2021.1.2,MacIntel,59.97361161,,,,,,,,,,,,,,p,0,1.5692,2.496658929,1,1,10,2,42,3,1,,,,,,,,,,,,,,
,,,,,,,,,,,right.png,,p,right,61153455405f1e389764b2a3,2021-10-27_13h08.39.317,arrow_simon_punish,2021.1.2,MacIntel,59.97361161,,,,,,,,,,,,,,p,1,1.5338,2.450482619,0,1,10,3,43,1,1,,,,,,,,,,,,,,
,,,,,,,,,,,right.png,,p,left,61153455405f1e389764b2a3,2021-10-27_13h08.39.317,arrow_simon_punish,2021.1.2,MacIntel,59.97361161,,,,,,,,,,,,,,w,0,1.6516,2.364397043,1,1,11,0,44,0,1,,,,,,,,,,,,,,
,,,,,,,,,,,right.png,,p,right,61153455405f1e389764b2a3,2021-10-27_13h08.39.317,arrow_simon_punish,2021.1.2,MacIntel,59.97361161,,,,,,,,,,,,,,w,0,1.5504,2.267329431,1,1,11,1,45,1,1,,,,,,,,,,,,,,
,,,,,,,,,,,right.png,,p,right,61153455405f1e389764b2a3,2021-10-27_13h08.39.317,arrow_simon_punish,2021.1.2,MacIntel,59.97361161,,,,,,,,,,,,,,p,1,1.4517,2.102734113,0,1,11,2,46,1,1,,,,,,,,,,,,,,
,,,,,,,,,,,right.png,,p,right,61153455405f1e389764b2a3,2021-10-27_13h08.39.317,arrow_simon_punish,2021.1.2,MacIntel,59.97361161,,,,,,,,,,,,,,p,1,1.4186,2.148760093,0,1,11,3,47,1,1,,,,,,,,,,,,,,
,,,,,,,,,,,right.png,,p,left,61153455405f1e389764b2a3,2021-10-27_13h08.39.317,arrow_simon_punish,2021.1.2,MacIntel,59.97361161,,,,,,,,,,,,,,p,1,1.3729,1.96367076,1,1,12,0,48,0,1,,,,,,,,,,,,,,
,,,,,,,,,,,left.png,,w,right,61153455405f1e389764b2a3,2021-10-27_13h08.39.317,arrow_simon_punish,2021.1.2,MacIntel,59.97361161,,,,,,,,,,,,,,w,1,1.7066,2.108478703,1,1,12,1,49,3,1,,,,,,,,,,,,,,
,,,,,,,,,,,left.png,,w,right,61153455405f1e389764b2a3,2021-10-27_13h08.39.317,arrow_simon_punish,2021.1.2,MacIntel,59.97361161,,,,,,,,,,,,,,p,0,1.3504,2.030465079,1,1,12,2,50,3,1,,,,,,,,,,,,,,
,,,,,,,,,,,right.png,,p,left,61153455405f1e389764b2a3,2021-10-27_13h08.39.317,arrow_simon_punish,2021.1.2,MacIntel,59.97361161,,,,,,,,,,,,,,p,1,1.4051,1.876846516,0,1,12,3,51,0,1,,,,,,,,,,,,,,
,,,,,,,,,,,left.png,,w,left,61153455405f1e389764b2a3,2021-10-27_13h08.39.317,arrow_simon_punish,2021.1.2,MacIntel,59.97361161,,,,,,,,,,,,,,w,1,1.4862,1.912190432,0,1,13,0,52,2,1,,,,,,,,,,,,,,
,,,,,,,,,,,left.png,,w,left,61153455405f1e389764b2a3,2021-10-27_13h08.39.317,arrow_simon_punish,2021.1.2,MacIntel,59.97361161,,,,,,,,,,,,,,w,1,1.3894,1.655830661,1,1,13,1,53,2,1,,,,,,,,,,,,,,
,,,,,,,,,,,left.png,,w,right,61153455405f1e389764b2a3,2021-10-27_13h08.39.317,arrow_simon_punish,2021.1.2,MacIntel,59.97361161,,,,,,,,,,,,,,w,1,1.4363,2.032409734,0,1,13,2,54,3,1,,,,,,,,,,,,,,
,,,,,,,,,,,right.png,,p,left,61153455405f1e389764b2a3,2021-10-27_13h08.39.317,arrow_simon_punish,2021.1.2,MacIntel,59.97361161,,,,,,,,,,,,,,p,1,1.3868,2.093793162,1,1,13,3,55,0,1,,,,,,,,,,,,,,
,,,,,,,,,,,right.png,,p,left,61153455405f1e389764b2a3,2021-10-27_13h08.39.317,arrow_simon_punish,2021.1.2,MacIntel,59.97361161,,,,,,,,,,,,,,p,1,1.5011,2.228057742,0,1,14,0,56,0,1,,,,,,,,,,,,,,
,,,,,,,,,,,left.png,,w,right,61153455405f1e389764b2a3,2021-10-27_13h08.39.317,arrow_simon_punish,2021.1.2,MacIntel,59.97361161,,,,,,,,,,,,,,w,1,1.5014,2.240800056,0,1,14,1,57,3,1,,,,,,,,,,,,,,
,,,,,,,,,,,left.png,,w,right,61153455405f1e389764b2a3,2021-10-27_13h08.39.317,arrow_simon_punish,2021.1.2,MacIntel,59.97361161,,,,,,,,,,,,,,w,1,1.4702,1.940711333,0,1,14,2,58,3,1,,,,,,,,,,,,,,
,,,,,,,,,,,right.png,,p,left,61153455405f1e389764b2a3,2021-10-27_13h08.39.317,arrow_simon_punish,2021.1.2,MacIntel,59.97361161,,,,,,,,,,,,,,p,1,1.5538,1.89189542,0,1,14,3,59,0,1,,,,,,,,,,,,,,
,,,,,,,,,,,,,,,61153455405f1e389764b2a3,2021-10-27_13h08.39.317,arrow_simon_punish,2021.1.2,MacIntel,59.97361161,,,,,,,,,,,,,,,,,,,,,,,,,space,74.8703,2,0,0,0,0,1,1,,,,,
,,,,,,,,,,,right.png,,p,left,61153455405f1e389764b2a3,2021-10-27_13h08.39.317,arrow_simon_punish,2021.1.2,MacIntel,59.97361161,,,,,,,,,,,,,,p,1,1.3878,1.599988836,1,5,0,0,0,0,1,,,,,,,,,,,,,,
,,,,,,,,,,,left.png,,w,right,61153455405f1e389764b2a3,2021-10-27_13h08.39.317,arrow_simon_punish,2021.1.2,MacIntel,59.97361161,,,,,,,,,,,,,,w,1,1.5171,2.112691416,0,5,0,1,1,3,1,,,,,,,,,,,,,,
,,,,,,,,,,,right.png,,p,right,61153455405f1e389764b2a3,2021-10-27_13h08.39.317,arrow_simon_punish,2021.1.2,MacIntel,59.97361161,,,,,,,,,,,,,,p,1,1.5076,1.738719731,0,5,0,2,2,1,1,,,,,,,,,,,,,,
,,,,,,,,,,,right.png,,p,left,61153455405f1e389764b2a3,2021-10-27_13h08.39.317,arrow_simon_punish,2021.1.2,MacIntel,59.97361161,,,,,,,,,,,,,,p,1,1.4689,2.008232276,0,5,0,3,3,0,1,,,,,,,,,,,,,,
,,,,,,,,,,,left.png,,w,left,61153455405f1e389764b2a3,2021-10-27_13h08.39.317,arrow_simon_punish,2021.1.2,MacIntel,59.97361161,,,,,,,,,,,,,,w,1,1.433,2.11667523,0,5,1,0,4,2,1,,,,,,,,,,,,,,
,,,,,,,,,,,left.png,,w,right,61153455405f1e389764b2a3,2021-10-27_13h08.39.317,arrow_simon_punish,2021.1.2,MacIntel,59.97361161,,,,,,,,,,,,,,w,1,1.486,1.98006853,0,5,1,1,5,3,1,,,,,,,,,,,,,,
,,,,,,,,,,,left.png,,w,left,61153455405f1e389764b2a3,2021-10-27_13h08.39.317,arrow_simon_punish,2021.1.2,MacIntel,59.97361161,,,,,,,,,,,,,,p,0,1.6186,2.491532573,1,5,1,2,6,2,1,,,,,,,,,,,,,,
,,,,,,,,,,,left.png,,w,right,61153455405f1e389764b2a3,2021-10-27_13h08.39.317,arrow_simon_punish,2021.1.2,MacIntel,59.97361161,,,,,,,,,,,,,,p,0,1.8878,2.450317586,1,5,1,3,7,3,1,,,,,,,,,,,,,,
,,,,,,,,,,,right.png,,p,left,61153455405f1e389764b2a3,2021-10-27_13h08.39.317,arrow_simon_punish,2021.1.2,MacIntel,59.97361161,,,,,,,,,,,,,,w,0,1.4878,2.129644515,1,5,2,0,8,0,1,,,,,,,,,,,,,,
,,,,,,,,,,,left.png,,w,left,61153455405f1e389764b2a3,2021-10-27_13h08.39.317,arrow_simon_punish,2021.1.2,MacIntel,59.97361161,,,,,,,,,,,,,,w,1,1.4065,1.836068311,0,5,2,1,9,2,1,,,,,,,,,,,,,,
,,,,,,,,,,,right.png,,p,left,61153455405f1e389764b2a3,2021-10-27_13h08.39.317,arrow_simon_punish,2021.1.2,MacIntel,59.97361161,,,,,,,,,,,,,,p,1,1.5198,2.200190598,0,5,2,2,10,0,1,,,,,,,,,,,,,,
,,,,,,,,,,,right.png,,p,right,61153455405f1e389764b2a3,2021-10-27_13h08.39.317,arrow_simon_punish,2021.1.2,MacIntel,59.97361161,,,,,,,,,,,,,,p,1,1.602,2.323292801,1,5,2,3,11,1,1,,,,,,,,,,,,,,
,,,,,,,,,,,right.png,,p,right,61153455405f1e389764b2a3,2021-10-27_13h08.39.317,arrow_simon_punish,2021.1.2,MacIntel,59.97361161,,,,,,,,,,,,,,p,1,1.5191,1.535091364,0,5,3,0,12,1,1,,,,,,,,,,,,,,
,,,,,,,,,,,right.png,,p,right,61153455405f1e389764b2a3,2021-10-27_13h08.39.317,arrow_simon_punish,2021.1.2,MacIntel,59.97361161,,,,,,,,,,,,,,p,1,1.8881,1.955308772,1,5,3,1,13,1,1,,,,,,,,,,,,,,
,,,,,,,,,,,left.png,,w,left,61153455405f1e389764b2a3,2021-10-27_13h08.39.317,arrow_simon_punish,2021.1.2,MacIntel,59.97361161,,,,,,,,,,,,,,w,1,1.5217,1.647480893,0,5,3,2,14,2,1,,,,,,,,,,,,,,
,,,,,,,,,,,right.png,,p,left,61153455405f1e389764b2a3,2021-10-27_13h08.39.317,arrow_simon_punish,2021.1.2,MacIntel,59.97361161,,,,,,,,,,,,,,p,1,1.5008,1.556179466,0,5,3,3,15,0,1,,,,,,,,,,,,,,
,,,,,,,,,,,left.png,,w,left,61153455405f1e389764b2a3,2021-10-27_13h08.39.317,arrow_simon_punish,2021.1.2,MacIntel,59.97361161,,,,,,,,,,,,,,w,1,1.4682,2.165702642,0,5,4,0,16,2,1,,,,,,,,,,,,,,
,,,,,,,,,,,left.png,,w,left,61153455405f1e389764b2a3,2021-10-27_13h08.39.317,arrow_simon_punish,2021.1.2,MacIntel,59.97361161,,,,,,,,,,,,,,p,0,1.489,2.439367386,1,5,4,1,17,2,1,,,,,,,,,,,,,,
,,,,,,,,,,,left.png,,w,right,61153455405f1e389764b2a3,2021-10-27_13h08.39.317,arrow_simon_punish,2021.1.2,MacIntel,59.97361161,,,,,,,,,,,,,,w,1,1.3746,1.813766379,1,5,4,2,18,3,1,,,,,,,,,,,,,,
,,,,,,,,,,,left.png,,w,left,61153455405f1e389764b2a3,2021-10-27_13h08.39.317,arrow_simon_punish,2021.1.2,MacIntel,59.97361161,,,,,,,,,,,,,,w,1,1.4345,1.953483613,0,5,4,3,19,2,1,,,,,,,,,,,,,,
,,,,,,,,,,,left.png,,w,right,61153455405f1e389764b2a3,2021-10-27_13h08.39.317,arrow_simon_punish,2021.1.2,MacIntel,59.97361161,,,,,,,,,,,,,,w,1,1.4883,1.90236734,0,5,5,0,20,3,1,,,,,,,,,,,,,,
,,,,,,,,,,,right.png,,p,right,61153455405f1e389764b2a3,2021-10-27_13h08.39.317,arrow_simon_punish,2021.1.2,MacIntel,59.97361161,,,,,,,,,,,,,,p,1,1.4523,2.053633392,0,5,5,1,21,1,1,,,,,,,,,,,,,,
,,,,,,,,,,,right.png,,p,left,61153455405f1e389764b2a3,2021-10-27_13h08.39.317,arrow_simon_punish,2021.1.2,MacIntel,59.97361161,,,,,,,,,,,,,,p,1,1.6717,2.251736382,1,5,5,2,22,0,1,,,,,,,,,,,,,,
,,,,,,,,,,,left.png,,w,left,61153455405f1e389764b2a3,2021-10-27_13h08.39.317,arrow_simon_punish,2021.1.2,MacIntel,59.97361161,,,,,,,,,,,,,,w,1,1.5526,2.243136354,0,5,5,3,23,2,1,,,,,,,,,,,,,,
,,,,,,,,,,,left.png,,w,right,61153455405f1e389764b2a3,2021-10-27_13h08.39.317,arrow_simon_punish,2021.1.2,MacIntel,59.97361161,,,,,,,,,,,,,,w,1,1.368,1.916822874,1,5,6,0,24,3,1,,,,,,,,,,,,,,
,,,,,,,,,,,right.png,,p,left,61153455405f1e389764b2a3,2021-10-27_13h08.39.317,arrow_simon_punish,2021.1.2,MacIntel,59.97361161,,,,,,,,,,,,,,p,1,1.4008,1.525185656,0,5,6,1,25,0,1,,,,,,,,,,,,,,
,,,,,,,,,,,right.png,,p,right,61153455405f1e389764b2a3,2021-10-27_13h08.39.317,arrow_simon_punish,2021.1.2,MacIntel,59.97361161,,,,,,,,,,,,,,p,1,1.469,2.146813302,0,5,6,2,26,1,1,,,,,,,,,,,,,,
,,,,,,,,,,,left.png,,w,right,61153455405f1e389764b2a3,2021-10-27_13h08.39.317,arrow_simon_punish,2021.1.2,MacIntel,59.97361161,,,,,,,,,,,,,,p,0,1.4873,2.230789209,1,5,6,3,27,3,1,,,,,,,,,,,,,,
,,,,,,,,,,,right.png,,p,right,61153455405f1e389764b2a3,2021-10-27_13h08.39.317,arrow_simon_punish,2021.1.2,MacIntel,59.97361161,,,,,,,,,,,,,,p,1,1.5025,2.374841987,0,5,7,0,28,1,1,,,,,,,,,,,,,,
,,,,,,,,,,,right.png,,p,left,61153455405f1e389764b2a3,2021-10-27_13h08.39.317,arrow_simon_punish,2021.1.2,MacIntel,59.97361161,,,,,,,,,,,,,,p,1,1.3877,2.422863139,1,5,7,1,29,0,1,,,,,,,,,,,,,,
,,,,,,,,,,,right.png,,p,left,61153455405f1e389764b2a3,2021-10-27_13h08.39.317,arrow_simon_punish,2021.1.2,MacIntel,59.97361161,,,,,,,,,,,,,,p,1,1.3701,1.950283679,1,5,7,2,30,0,1,,,,,,,,,,,,,,
,,,,,,,,,,,right.png,,p,right,61153455405f1e389764b2a3,2021-10-27_13h08.39.317,arrow_simon_punish,2021.1.2,MacIntel,59.97361161,,,,,,,,,,,,,,p,1,1.3856,1.726207313,1,5,7,3,31,1,1,,,,,,,,,,,,,,
,,,,,,,,,,,right.png,,p,left,61153455405f1e389764b2a3,2021-10-27_13h08.39.317,arrow_simon_punish,2021.1.2,MacIntel,59.97361161,,,,,,,,,,,,,,p,1,1.5536,2.07635683,0,5,8,0,32,0,1,,,,,,,,,,,,,,
,,,,,,,,,,,right.png,,p,right,61153455405f1e389764b2a3,2021-10-27_13h08.39.317,arrow_simon_punish,2021.1.2,MacIntel,59.97361161,,,,,,,,,,,,,,p,1,1.5219,1.984159857,0,5,8,1,33,1,1,,,,,,,,,,,,,,
,,,,,,,,,,,right.png,,p,left,61153455405f1e389764b2a3,2021-10-27_13h08.39.317,arrow_simon_punish,2021.1.2,MacIntel,59.97361161,,,,,,,,,,,,,,p,1,1.5712,2.208009291,0,5,8,2,34,0,1,,,,,,,,,,,,,,
,,,,,,,,,,,right.png,,p,left,61153455405f1e389764b2a3,2021-10-27_13h08.39.317,arrow_simon_punish,2021.1.2,MacIntel,59.97361161,,,,,,,,,,,,,,p,1,1.5365,2.271309164,0,5,8,3,35,0,1,,,,,,,,,,,,,,
,,,,,,,,,,,left.png,,w,right,61153455405f1e389764b2a3,2021-10-27_13h08.39.317,arrow_simon_punish,2021.1.2,MacIntel,59.97361161,,,,,,,,,,,,,,w,1,1.4209,1.899043294,0,5,9,0,36,3,1,,,,,,,,,,,,,,
,,,,,,,,,,,right.png,,p,left,61153455405f1e389764b2a3,2021-10-27_13h08.39.317,arrow_simon_punish,2021.1.2,MacIntel,59.97361161,,,,,,,,,,,,,,p,1,1.4378,1.867532848,0,5,9,1,37,0,1,,,,,,,,,,,,,,
,,,,,,,,,,,left.png,,w,left,61153455405f1e389764b2a3,2021-10-27_13h08.39.317,arrow_simon_punish,2021.1.2,MacIntel,59.97361161,,,,,,,,,,,,,,p,0,1.4501,2.204131125,1,5,9,2,38,2,1,,,,,,,,,,,,,,
,,,,,,,,,,,right.png,,p,left,61153455405f1e389764b2a3,2021-10-27_13h08.39.317,arrow_simon_punish,2021.1.2,MacIntel,59.97361161,,,,,,,,,,,,,,p,1,1.4511,2.333452864,0,5,9,3,39,0,1,,,,,,,,,,,,,,
,,,,,,,,,,,right.png,,p,right,61153455405f1e389764b2a3,2021-10-27_13h08.39.317,arrow_simon_punish,2021.1.2,MacIntel,59.97361161,,,,,,,,,,,,,,p,1,1.4205,1.514647542,0,5,10,0,40,1,1,,,,,,,,,,,,,,
,,,,,,,,,,,left.png,,w,left,61153455405f1e389764b2a3,2021-10-27_13h08.39.317,arrow_simon_punish,2021.1.2,MacIntel,59.97361161,,,,,,,,,,,,,,w,1,1.3845,1.913774045,1,5,10,1,41,2,1,,,,,,,,,,,,,,
,,,,,,,,,,,right.png,,p,right,61153455405f1e389764b2a3,2021-10-27_13h08.39.317,arrow_simon_punish,2021.1.2,MacIntel,59.97361161,,,,,,,,,,,,,,p,1,1.4537,2.475056678,0,5,10,2,42,1,1,,,,,,,,,,,,,,
,,,,,,,,,,,left.png,,w,right,61153455405f1e389764b2a3,2021-10-27_13h08.39.317,arrow_simon_punish,2021.1.2,MacIntel,59.97361161,,,,,,,,,,,,,,p,0,1.4225,2.19228643,1,5,10,3,43,3,1,,,,,,,,,,,,,,
,,,,,,,,,,,left.png,,w,right,61153455405f1e389764b2a3,2021-10-27_13h08.39.317,arrow_simon_punish,2021.1.2,MacIntel,59.97361161,,,,,,,,,,,,,,w,1,1.4029,1.919804871,0,5,11,0,44,3,1,,,,,,,,,,,,,,
,,,,,,,,,,,left.png,,w,left,61153455405f1e389764b2a3,2021-10-27_13h08.39.317,arrow_simon_punish,2021.1.2,MacIntel,59.97361161,,,,,,,,,,,,,,w,1,1.4013,1.681047946,0,5,11,1,45,2,1,,,,,,,,,,,,,,
,,,,,,,,,,,left.png,,w,right,61153455405f1e389764b2a3,2021-10-27_13h08.39.317,arrow_simon_punish,2021.1.2,MacIntel,59.97361161,,,,,,,,,,,,,,w,1,1.3232,1.683181826,1,5,11,2,46,3,1,,,,,,,,,,,,,,
,,,,,,,,,,,right.png,,p,right,61153455405f1e389764b2a3,2021-10-27_13h08.39.317,arrow_simon_punish,2021.1.2,MacIntel,59.97361161,,,,,,,,,,,,,,p,1,1.418,2.001649663,0,5,11,3,47,1,1,,,,,,,,,,,,,,
,,,,,,,,,,,left.png,,w,left,61153455405f1e389764b2a3,2021-10-27_13h08.39.317,arrow_simon_punish,2021.1.2,MacIntel,59.97361161,,,,,,,,,,,,,,w,1,1.4203,1.785982287,0,5,12,0,48,2,1,,,,,,,,,,,,,,
,,,,,,,,,,,left.png,,w,right,61153455405f1e389764b2a3,2021-10-27_13h08.39.317,arrow_simon_punish,2021.1.2,MacIntel,59.97361161,,,,,,,,,,,,,,p,0,1.467,2.098392917,1,5,12,1,49,3,1,,,,,,,,,,,,,,
,,,,,,,,,,,left.png,,w,right,61153455405f1e389764b2a3,2021-10-27_13h08.39.317,arrow_simon_punish,2021.1.2,MacIntel,59.97361161,,,,,,,,,,,,,,w,1,1.4206,1.556446828,0,5,12,2,50,3,1,,,,,,,,,,,,,,
,,,,,,,,,,,right.png,,p,right,61153455405f1e389764b2a3,2021-10-27_13h08.39.317,arrow_simon_punish,2021.1.2,MacIntel,59.97361161,,,,,,,,,,,,,,p,1,1.3686,1.910193642,1,5,12,3,51,1,1,,,,,,,,,,,,,,
,,,,,,,,,,,left.png,,w,right,61153455405f1e389764b2a3,2021-10-27_13h08.39.317,arrow_simon_punish,2021.1.2,MacIntel,59.97361161,,,,,,,,,,,,,,p,0,1.5699,2.430667669,1,5,13,0,52,3,1,,,,,,,,,,,,,,
,,,,,,,,,,,right.png,,p,right,61153455405f1e389764b2a3,2021-10-27_13h08.39.317,arrow_simon_punish,2021.1.2,MacIntel,59.97361161,,,,,,,,,,,,,,p,1,1.3846,1.915437329,1,5,13,1,53,1,1,,,,,,,,,,,,,,
,,,,,,,,,,,left.png,,w,right,61153455405f1e389764b2a3,2021-10-27_13h08.39.317,arrow_simon_punish,2021.1.2,MacIntel,59.97361161,,,,,,,,,,,,,,w,1,1.9029,1.511264757,1,5,13,2,54,3,1,,,,,,,,,,,,,,
,,,,,,,,,,,right.png,,p,left,61153455405f1e389764b2a3,2021-10-27_13h08.39.317,arrow_simon_punish,2021.1.2,MacIntel,59.97361161,,,,,,,,,,,,,,p,1,1.4235,2.286347581,0,5,13,3,55,0,1,,,,,,,,,,,,,,
,,,,,,,,,,,left.png,,w,left,61153455405f1e389764b2a3,2021-10-27_13h08.39.317,arrow_simon_punish,2021.1.2,MacIntel,59.97361161,,,,,,,,,,,,,,w,1,1.4863,1.982538875,0,5,14,0,56,2,1,,,,,,,,,,,,,,
,,,,,,,,,,,left.png,,w,left,61153455405f1e389764b2a3,2021-10-27_13h08.39.317,arrow_simon_punish,2021.1.2,MacIntel,59.97361161,,,,,,,,,,,,,,p,0,1.4839,2.453890605,1,5,14,1,57,2,1,,,,,,,,,,,,,,
,,,,,,,,,,,right.png,,p,right,61153455405f1e389764b2a3,2021-10-27_13h08.39.317,arrow_simon_punish,2021.1.2,MacIntel,59.97361161,,,,,,,,,,,,,,p,1,1.3833,1.992726383,1,5,14,2,58,1,1,,,,,,,,,,,,,,
,,,,,,,,,,,left.png,,w,left,61153455405f1e389764b2a3,2021-10-27_13h08.39.317,arrow_simon_punish,2021.1.2,MacIntel,59.97361161,,,,,,,,,,,,,,w,1,1.4724,1.936924328,0,5,14,3,59,2,1,,,,,,,,,,,,,,
,,,,,,,,,,,,,,,61153455405f1e389764b2a3,2021-10-27_13h08.39.317,arrow_simon_punish,2021.1.2,MacIntel,59.97361161,,,,,,,,,,,,,,,,,,,,,,,,,space,2.9778,3,0,1,1,1,1,5,,,,,
,,,,,,,,,,,right.png,,p,right,61153455405f1e389764b2a3,2021-10-27_13h08.39.317,arrow_simon_punish,2021.1.2,MacIntel,59.97361161,,,,,,,,,,,,,,p,1,1.4189,2.088791453,0,1,0,0,0,1,1,,,,,,,,,,,,,,
,,,,,,,,,,,right.png,,p,left,61153455405f1e389764b2a3,2021-10-27_13h08.39.317,arrow_simon_punish,2021.1.2,MacIntel,59.97361161,,,,,,,,,,,,,,p,1,1.6511,2.36778196,1,1,0,1,1,0,1,,,,,,,,,,,,,,
,,,,,,,,,,,right.png,,p,right,61153455405f1e389764b2a3,2021-10-27_13h08.39.317,arrow_simon_punish,2021.1.2,MacIntel,59.97361161,,,,,,,,,,,,,,p,1,1.3342,1.52562318,1,1,0,2,2,1,1,,,,,,,,,,,,,,
,,,,,,,,,,,right.png,,p,left,61153455405f1e389764b2a3,2021-10-27_13h08.39.317,arrow_simon_punish,2021.1.2,MacIntel,59.97361161,,,,,,,,,,,,,,w,0,1.4538,2.087159266,1,1,0,3,3,0,1,,,,,,,,,,,,,,
,,,,,,,,,,,right.png,,p,left,61153455405f1e389764b2a3,2021-10-27_13h08.39.317,arrow_simon_punish,2021.1.2,MacIntel,59.97361161,,,,,,,,,,,,,,p,1,1.4508,2.181383061,0,1,1,0,4,0,1,,,,,,,,,,,,,,
,,,,,,,,,,,left.png,,w,left,61153455405f1e389764b2a3,2021-10-27_13h08.39.317,arrow_simon_punish,2021.1.2,MacIntel,59.97361161,,,,,,,,,,,,,,p,0,1.419,2.367885446,1,1,1,1,5,2,1,,,,,,,,,,,,,,
,,,,,,,,,,,left.png,,w,right,61153455405f1e389764b2a3,2021-10-27_13h08.39.317,arrow_simon_punish,2021.1.2,MacIntel,59.97361161,,,,,,,,,,,,,,p,0,1.3697,2.062650993,1,1,1,2,6,3,1,,,,,,,,,,,,,,
,,,,,,,,,,,left.png,,w,left,61153455405f1e389764b2a3,2021-10-27_13h08.39.317,arrow_simon_punish,2021.1.2,MacIntel,59.97361161,,,,,,,,,,,,,,p,0,1.4375,2.356863531,1,1,1,3,7,2,1,,,,,,,,,,,,,,
,,,,,,,,,,,right.png,,p,right,61153455405f1e389764b2a3,2021-10-27_13h08.39.317,arrow_simon_punish,2021.1.2,MacIntel,59.97361161,,,,,,,,,,,,,,p,1,1.4171,2.058642952,0,1,2,0,8,1,1,,,,,,,,,,,,,,
,,,,,,,,,,,left.png,,w,right,61153455405f1e389764b2a3,2021-10-27_13h08.39.317,arrow_simon_punish,2021.1.2,MacIntel,59.97361161,,,,,,,,,,,,,,p,0,1.4874,2.098308134,1,1,2,1,9,3,1,,,,,,,,,,,,,,
,,,,,,,,,,,left.png,,w,left,61153455405f1e389764b2a3,2021-10-27_13h08.39.317,arrow_simon_punish,2021.1.2,MacIntel,59.97361161,,,,,,,,,,,,,,p,0,1.5349,2.3983172,1,1,2,2,10,2,1,,,,,,,,,,,,,,
,,,,,,,,,,,left.png,,w,right,61153455405f1e389764b2a3,2021-10-27_13h08.39.317,arrow_simon_punish,2021.1.2,MacIntel,59.97361161,,,,,,,,,,,,,,p,0,1.3999,2.098089172,1,1,2,3,11,3,1,,,,,,,,,,,,,,
,,,,,,,,,,,left.png,,w,left,61153455405f1e389764b2a3,2021-10-27_13h08.39.317,arrow_simon_punish,2021.1.2,MacIntel,59.97361161,,,,,,,,,,,,,,p,0,1.3175,1.990354348,1,1,3,0,12,2,1,,,,,,,,,,,,,,
,,,,,,,,,,,left.png,,w,left,61153455405f1e389764b2a3,2021-10-27_13h08.39.317,arrow_simon_punish,2021.1.2,MacIntel,59.97361161,,,,,,,,,,,,,,p,0,1.4171,2.269447304,1,1,3,1,13,2,1,,,,,,,,,,,,,,
,,,,,,,,,,,left.png,,w,left,61153455405f1e389764b2a3,2021-10-27_13h08.39.317,arrow_simon_punish,2021.1.2,MacIntel,59.97361161,,,,,,,,,,,,,,w,1,1.3746,2.044075867,1,1,3,2,14,2,1,,,,,,,,,,,,,,
,,,,,,,,,,,left.png,,w,right,61153455405f1e389764b2a3,2021-10-27_13h08.39.317,arrow_simon_punish,2021.1.2,MacIntel,59.97361161,,,,,,,,,,,,,,w,1,1.3554,1.667354826,1,1,3,3,15,3,1,,,,,,,,,,,,,,
,,,,,,,,,,,left.png,,w,right,61153455405f1e389764b2a3,2021-10-27_13h08.39.317,arrow_simon_punish,2021.1.2,MacIntel,59.97361161,,,,,,,,,,,,,,w,1,1.406,1.684696718,0,1,4,0,16,3,1,,,,,,,,,,,,,,
,,,,,,,,,,,left.png,,w,left,61153455405f1e389764b2a3,2021-10-27_13h08.39.317,arrow_simon_punish,2021.1.2,MacIntel,59.97361161,,,,,,,,,,,,,,w,1,1.5507,2.374932504,0,1,4,1,17,2,1,,,,,,,,,,,,,,
,,,,,,,,,,,right.png,,p,right,61153455405f1e389764b2a3,2021-10-27_13h08.39.317,arrow_simon_punish,2021.1.2,MacIntel,59.97361161,,,,,,,,,,,,,,p,1,1.45,1.804669071,0,1,4,2,18,1,1,,,,,,,,,,,,,,
,,,,,,,,,,,left.png,,w,left,61153455405f1e389764b2a3,2021-10-27_13h08.39.317,arrow_simon_punish,2021.1.2,MacIntel,59.97361161,,,,,,,,,,,,,,w,1,1.6054,2.253473891,1,1,4,3,19,2,1,,,,,,,,,,,,,,
,,,,,,,,,,,right.png,,p,left,61153455405f1e389764b2a3,2021-10-27_13h08.39.317,arrow_simon_punish,2021.1.2,MacIntel,59.97361161,,,,,,,,,,,,,,p,1,1.4153,1.646061968,0,1,5,0,20,0,1,,,,,,,,,,,,,,
,,,,,,,,,,,right.png,,p,right,61153455405f1e389764b2a3,2021-10-27_13h08.39.317,arrow_simon_punish,2021.1.2,MacIntel,59.97361161,,,,,,,,,,,,,,p,1,1.6018,2.499913924,1,1,5,1,21,1,1,,,,,,,,,,,,,,
,,,,,,,,,,,right.png,,p,right,61153455405f1e389764b2a3,2021-10-27_13h08.39.317,arrow_simon_punish,2021.1.2,MacIntel,59.97361161,,,,,,,,,,,,,,p,1,1.7863,2.485077283,1,1,5,2,22,1,1,,,,,,,,,,,,,,
,,,,,,,,,,,right.png,,p,left,61153455405f1e389764b2a3,2021-10-27_13h08.39.317,arrow_simon_punish,2021.1.2,MacIntel,59.97361161,,,,,,,,,,,,,,p,1,1.4381,2.018834956,0,1,5,3,23,0,1,,,,,,,,,,,,,,
,,,,,,,,,,,right.png,,p,left,61153455405f1e389764b2a3,2021-10-27_13h08.39.317,arrow_simon_punish,2021.1.2,MacIntel,59.97361161,,,,,,,,,,,,,,p,1,1.4372,1.741970976,0,1,6,0,24,0,1,,,,,,,,,,,,,,
,,,,,,,,,,,left.png,,w,right,61153455405f1e389764b2a3,2021-10-27_13h08.39.317,arrow_simon_punish,2021.1.2,MacIntel,59.97361161,,,,,,,,,,,,,,p,0,1.4345,2.199217954,1,1,6,1,25,3,1,,,,,,,,,,,,,,
,,,,,,,,,,,right.png,,p,left,61153455405f1e389764b2a3,2021-10-27_13h08.39.317,arrow_simon_punish,2021.1.2,MacIntel,59.97361161,,,,,,,,,,,,,,p,1,1.61,2.18430093,1,1,6,2,26,0,1,,,,,,,,,,,,,,
,,,,,,,,,,,left.png,,w,left,61153455405f1e389764b2a3,2021-10-27_13h08.39.317,arrow_simon_punish,2021.1.2,MacIntel,59.97361161,,,,,,,,,,,,,,w,1,1.3837,1.832421452,1,1,6,3,27,2,1,,,,,,,,,,,,,,
,,,,,,,,,,,left.png,,w,right,61153455405f1e389764b2a3,2021-10-27_13h08.39.317,arrow_simon_punish,2021.1.2,MacIntel,59.97361161,,,,,,,,,,,,,,w,1,1.4175,1.982242073,0,1,7,0,28,3,1,,,,,,,,,,,,,,
,,,,,,,,,,,right.png,,p,right,61153455405f1e389764b2a3,2021-10-27_13h08.39.317,arrow_simon_punish,2021.1.2,MacIntel,59.97361161,,,,,,,,,,,,,,p,1,1.501,2.422811203,0,1,7,1,29,1,1,,,,,,,,,,,,,,
,,,,,,,,,,,left.png,,w,right,61153455405f1e389764b2a3,2021-10-27_13h08.39.317,arrow_simon_punish,2021.1.2,MacIntel,59.97361161,,,,,,,,,,,,,,w,1,1.458,2.061310483,0,1,7,2,30,3,1,,,,,,,,,,,,,,
,,,,,,,,,,,left.png,,w,right,61153455405f1e389764b2a3,2021-10-27_13h08.39.317,arrow_simon_punish,2021.1.2,MacIntel,59.97361161,,,,,,,,,,,,,,p,0,1.4351,2.160226364,1,1,7,3,31,3,1,,,,,,,,,,,,,,
,,,,,,,,,,,left.png,,w,left,61153455405f1e389764b2a3,2021-10-27_13h08.39.317,arrow_simon_punish,2021.1.2,MacIntel,59.97361161,,,,,,,,,,,,,,w,1,1.4018,2.010532059,0,1,8,0,32,2,1,,,,,,,,,,,,,,
,,,,,,,,,,,left.png,,w,right,61153455405f1e389764b2a3,2021-10-27_13h08.39.317,arrow_simon_punish,2021.1.2,MacIntel,59.97361161,,,,,,,,,,,,,,w,1,1.4837,2.489990367,0,1,8,1,33,3,1,,,,,,,,,,,,,,
,,,,,,,,,,,left.png,,w,left,61153455405f1e389764b2a3,2021-10-27_13h08.39.317,arrow_simon_punish,2021.1.2,MacIntel,59.97361161,,,,,,,,,,,,,,p,0,1.4573,2.343770992,1,1,8,2,34,2,1,,,,,,,,,,,,,,
,,,,,,,,,,,right.png,,p,right,61153455405f1e389764b2a3,2021-10-27_13h08.39.317,arrow_simon_punish,2021.1.2,MacIntel,59.97361161,,,,,,,,,,,,,,p,1,1.3686,2.025137395,1,1,8,3,35,1,1,,,,,,,,,,,,,,
,,,,,,,,,,,left.png,,w,right,61153455405f1e389764b2a3,2021-10-27_13h08.39.317,arrow_simon_punish,2021.1.2,MacIntel,59.97361161,,,,,,,,,,,,,,w,1,1.4269,1.940414237,0,1,9,0,36,3,1,,,,,,,,,,,,,,
,,,,,,,,,,,left.png,,w,right,61153455405f1e389764b2a3,2021-10-27_13h08.39.317,arrow_simon_punish,2021.1.2,MacIntel,59.97361161,,,,,,,,,,,,,,p,0,1.4837,2.476650801,1,1,9,1,37,3,1,,,,,,,,,,,,,,
,,,,,,,,,,,right.png,,p,left,61153455405f1e389764b2a3,2021-10-27_13h08.39.317,arrow_simon_punish,2021.1.2,MacIntel,59.97361161,,,,,,,,,,,,,,p,1,1.4255,1.780890659,0,1,9,2,38,0,1,,,,,,,,,,,,,,
,,,,,,,,,,,right.png,,p,left,61153455405f1e389764b2a3,2021-10-27_13h08.39.317,arrow_simon_punish,2021.1.2,MacIntel,59.97361161,,,,,,,,,,,,,,p,1,1.3377,1.575423282,1,1,9,3,39,0,1,,,,,,,,,,,,,,
,,,,,,,,,,,left.png,,w,right,61153455405f1e389764b2a3,2021-10-27_13h08.39.317,arrow_simon_punish,2021.1.2,MacIntel,59.97361161,,,,,,,,,,,,,,w,1,1.47,2.075347643,0,1,10,0,40,3,1,,,,,,,,,,,,,,
,,,,,,,,,,,left.png,,w,right,61153455405f1e389764b2a3,2021-10-27_13h08.39.317,arrow_simon_punish,2021.1.2,MacIntel,59.97361161,,,,,,,,,,,,,,w,1,1.4056,1.654291812,0,1,10,1,41,3,1,,,,,,,,,,,,,,
,,,,,,,,,,,right.png,,p,right,61153455405f1e389764b2a3,2021-10-27_13h08.39.317,arrow_simon_punish,2021.1.2,MacIntel,59.97361161,,,,,,,,,,,,,,p,1,1.487,2.399430869,0,1,10,2,42,1,1,,,,,,,,,,,,,,
,,,,,,,,,,,left.png,,w,right,61153455405f1e389764b2a3,2021-10-27_13h08.39.317,arrow_simon_punish,2021.1.2,MacIntel,59.97361161,,,,,,,,,,,,,,w,1,1.3847,1.882544837,1,1,10,3,43,3,1,,,,,,,,,,,,,,
,,,,,,,,,,,left.png,,w,left,61153455405f1e389764b2a3,2021-10-27_13h08.39.317,arrow_simon_punish,2021.1.2,MacIntel,59.97361161,,,,,,,,,,,,,,w,1,1.3836,1.54811408,1,1,11,0,44,2,1,,,,,,,,,,,,,,
,,,,,,,,,,,right.png,,p,left,61153455405f1e389764b2a3,2021-10-27_13h08.39.317,arrow_simon_punish,2021.1.2,MacIntel,59.97361161,,,,,,,,,,,,,,p,1,1.3592,1.50456175,1,1,11,1,45,0,1,,,,,,,,,,,,,,
,,,,,,,,,,,right.png,,p,right,61153455405f1e389764b2a3,2021-10-27_13h08.39.317,arrow_simon_punish,2021.1.2,MacIntel,59.97361161,,,,,,,,,,,,,,p,1,1.5386,2.308941924,0,1,11,2,46,1,1,,,,,,,,,,,,,,
,,,,,,,,,,,right.png,,p,right,61153455405f1e389764b2a3,2021-10-27_13h08.39.317,arrow_simon_punish,2021.1.2,MacIntel,59.97361161,,,,,,,,,,,,,,p,1,1.3506,1.722963614,1,1,11,3,47,1,1,,,,,,,,,,,,,,
,,,,,,,,,,,left.png,,w,left,61153455405f1e389764b2a3,2021-10-27_13h08.39.317,arrow_simon_punish,2021.1.2,MacIntel,59.97361161,,,,,,,,,,,,,,w,1,1.4358,2.096913532,0,1,12,0,48,2,1,,,,,,,,,,,,,,
,,,,,,,,,,,left.png,,w,left,61153455405f1e389764b2a3,2021-10-27_13h08.39.317,arrow_simon_punish,2021.1.2,MacIntel,59.97361161,,,,,,,,,,,,,,w,1,1.3012,1.526624055,1,1,12,1,49,2,1,,,,,,,,,,,,,,
,,,,,,,,,,,right.png,,p,left,61153455405f1e389764b2a3,2021-10-27_13h08.39.317,arrow_simon_punish,2021.1.2,MacIntel,59.97361161,,,,,,,,,,,,,,p,1,1.4724,1.839184698,0,1,12,2,50,0,1,,,,,,,,,,,,,,
,,,,,,,,,,,right.png,,p,left,61153455405f1e389764b2a3,2021-10-27_13h08.39.317,arrow_simon_punish,2021.1.2,MacIntel,59.97361161,,,,,,,,,,,,,,p,1,1.5351,2.288536379,0,1,12,3,51,0,1,,,,,,,,,,,,,,
,,,,,,,,,,,right.png,,p,right,61153455405f1e389764b2a3,2021-10-27_13h08.39.317,arrow_simon_punish,2021.1.2,MacIntel,59.97361161,,,,,,,,,,,,,,p,1,1.5888,1.632691718,0,1,13,0,52,1,1,,,,,,,,,,,,,,
,,,,,,,,,,,right.png,,p,right,61153455405f1e389764b2a3,2021-10-27_13h08.39.317,arrow_simon_punish,2021.1.2,MacIntel,59.97361161,,,,,,,,,,,,,,p,1,1.4733,1.738193843,0,1,13,1,53,1,1,,,,,,,,,,,,,,
,,,,,,,,,,,left.png,,w,left,61153455405f1e389764b2a3,2021-10-27_13h08.39.317,arrow_simon_punish,2021.1.2,MacIntel,59.97361161,,,,,,,,,,,,,,w,1,1.7257,1.995718935,1,1,13,2,54,2,1,,,,,,,,,,,,,,
,,,,,,,,,,,right.png,,p,left,61153455405f1e389764b2a3,2021-10-27_13h08.39.317,arrow_simon_punish,2021.1.2,MacIntel,59.97361161,,,,,,,,,,,,,,p,1,1.474,2.134889591,0,1,13,3,55,0,1,,,,,,,,,,,,,,
,,,,,,,,,,,right.png,,p,right,61153455405f1e389764b2a3,2021-10-27_13h08.39.317,arrow_simon_punish,2021.1.2,MacIntel,59.97361161,,,,,,,,,,,,,,p,1,1.4399,1.516606342,0,1,14,0,56,1,1,,,,,,,,,,,,,,
,,,,,,,,,,,right.png,,p,right,61153455405f1e389764b2a3,2021-10-27_13h08.39.317,arrow_simon_punish,2021.1.2,MacIntel,59.97361161,,,,,,,,,,,,,,p,1,1.5021,1.907137805,0,1,14,1,57,1,1,,,,,,,,,,,,,,
,,,,,,,,,,,right.png,,p,left,61153455405f1e389764b2a3,2021-10-27_13h08.39.317,arrow_simon_punish,2021.1.2,MacIntel,59.97361161,,,,,,,,,,,,,,p,1,1.5375,1.685170496,0,1,14,2,58,0,1,,,,,,,,,,,,,,
,,,,,,,,,,,right.png,,p,left,61153455405f1e389764b2a3,2021-10-27_13h08.39.317,arrow_simon_punish,2021.1.2,MacIntel,59.97361161,,,,,,,,,,,,,,p,1,1.5549,1.574569534,0,1,14,3,59,0,1,,,,,,,,,,,,,,
,,,,,,,,,,,,,,,61153455405f1e389764b2a3,2021-10-27_13h08.39.317,arrow_simon_punish,2021.1.2,MacIntel,59.97361161,,,,,,,,,,,,,,,,,,,,,,,,,space,1.3465,4,1,0,2,0,1,1,,,,,
,,,,,,,,,,,left.png,,w,right,61153455405f1e389764b2a3,2021-10-27_13h08.39.317,arrow_simon_punish,2021.1.2,MacIntel,59.97361161,,,,,,,,,,,,,,w,1,1.4345,1.552653601,0,5,0,0,0,3,1,,,,,,,,,,,,,,
,,,,,,,,,,,left.png,,w,right,61153455405f1e389764b2a3,2021-10-27_13h08.39.317,arrow_simon_punish,2021.1.2,MacIntel,59.97361161,,,,,,,,,,,,,,w,1,1.4343,1.97243298,0,5,0,1,1,3,1,,,,,,,,,,,,,,
,,,,,,,,,,,left.png,,w,left,61153455405f1e389764b2a3,2021-10-27_13h08.39.317,arrow_simon_punish,2021.1.2,MacIntel,59.97361161,,,,,,,,,,,,,,w,1,1.3842,1.542861764,1,5,0,2,2,2,1,,,,,,,,,,,,,,
,,,,,,,,,,,right.png,,p,left,61153455405f1e389764b2a3,2021-10-27_13h08.39.317,arrow_simon_punish,2021.1.2,MacIntel,59.97361161,,,,,,,,,,,,,,p,1,1.4545,1.61319262,0,5,0,3,3,0,1,,,,,,,,,,,,,,
,,,,,,,,,,,left.png,,w,left,61153455405f1e389764b2a3,2021-10-27_13h08.39.317,arrow_simon_punish,2021.1.2,MacIntel,59.97361161,,,,,,,,,,,,,,w,1,1.4191,1.574769641,0,5,1,0,4,2,1,,,,,,,,,,,,,,
,,,,,,,,,,,right.png,,p,right,61153455405f1e389764b2a3,2021-10-27_13h08.39.317,arrow_simon_punish,2021.1.2,MacIntel,59.97361161,,,,,,,,,,,,,,p,1,1.5676,1.77363812,0,5,1,1,5,1,1,,,,,,,,,,,,,,
,,,,,,,,,,,left.png,,w,left,61153455405f1e389764b2a3,2021-10-27_13h08.39.317,arrow_simon_punish,2021.1.2,MacIntel,59.97361161,,,,,,,,,,,,,,w,1,1.4488,1.873911533,0,5,1,2,6,2,1,,,,,,,,,,,,,,
,,,,,,,,,,,right.png,,p,right,61153455405f1e389764b2a3,2021-10-27_13h08.39.317,arrow_simon_punish,2021.1.2,MacIntel,59.97361161,,,,,,,,,,,,,,p,1,1.4839,1.944666384,0,5,1,3,7,1,1,,,,,,,,,,,,,,
,,,,,,,,,,,right.png,,p,left,61153455405f1e389764b2a3,2021-10-27_13h08.39.317,arrow_simon_punish,2021.1.2,MacIntel,59.97361161,,,,,,,,,,,,,,p,1,1.567,1.633087689,0,5,2,0,8,0,1,,,,,,,,,,,,,,
,,,,,,,,,,,right.png,,p,right,61153455405f1e389764b2a3,2021-10-27_13h08.39.317,arrow_simon_punish,2021.1.2,MacIntel,59.97361161,,,,,,,,,,,,,,p,1,1.5508,2.448902412,0,5,2,1,9,1,1,,,,,,,,,,,,,,
,,,,,,,,,,,right.png,,p,right,61153455405f1e389764b2a3,2021-10-27_13h08.39.317,arrow_simon_punish,2021.1.2,MacIntel,59.97361161,,,,,,,,,,,,,,p,1,1.5855,2.034838443,0,5,2,2,10,1,1,,,,,,,,,,,,,,
,,,,,,,,,,,right.png,,p,right,61153455405f1e389764b2a3,2021-10-27_13h08.39.317,arrow_simon_punish,2021.1.2,MacIntel,59.97361161,,,,,,,,,,,,,,p,1,1.4864,1.657007934,0,5,2,3,11,1,1,,,,,,,,,,,,,,
,,,,,,,,,,,left.png,,w,right,61153455405f1e389764b2a3,2021-10-27_13h08.39.317,arrow_simon_punish,2021.1.2,MacIntel,59.97361161,,,,,,,,,,,,,,p,0,1.5015,2.193789004,1,5,3,0,12,3,1,,,,,,,,,,,,,,
,,,,,,,,,,,left.png,,w,left,61153455405f1e389764b2a3,2021-10-27_13h08.39.317,arrow_simon_punish,2021.1.2,MacIntel,59.97361161,,,,,,,,,,,,,,p,0,1.469,2.205853022,1,5,3,1,13,2,1,,,,,,,,,,,,,,
,,,,,,,,,,,left.png,,w,left,61153455405f1e389764b2a3,2021-10-27_13h08.39.317,arrow_simon_punish,2021.1.2,MacIntel,59.97361161,,,,,,,,,,,,,,p,0,1.4207,2.1496515,1,5,3,2,14,2,1,,,,,,,,,,,,,,
,,,,,,,,,,,right.png,,p,right,61153455405f1e389764b2a3,2021-10-27_13h08.39.317,arrow_simon_punish,2021.1.2,MacIntel,59.97361161,,,,,,,,,,,,,,p,1,1.4341,2.246981076,0,5,3,3,15,1,1,,,,,,,,,,,,,,
,,,,,,,,,,,left.png,,w,right,61153455405f1e389764b2a3,2021-10-27_13h08.39.317,arrow_simon_punish,2021.1.2,MacIntel,59.97361161,,,,,,,,,,,,,,p,0,1.4171,2.269545686,1,5,4,0,16,3,1,,,,,,,,,,,,,,
,,,,,,,,,,,left.png,,w,right,61153455405f1e389764b2a3,2021-10-27_13h08.39.317,arrow_simon_punish,2021.1.2,MacIntel,59.97361161,,,,,,,,,,,,,,p,0,1.3674,1.9905244,1,5,4,1,17,3,1,,,,,,,,,,,,,,
,,,,,,,,,,,right.png,,p,left,61153455405f1e389764b2a3,2021-10-27_13h08.39.317,arrow_simon_punish,2021.1.2,MacIntel,59.97361161,,,,,,,,,,,,,,p,1,1.4721,2.414268879,0,5,4,2,18,0,1,,,,,,,,,,,,,,
,,,,,,,,,,,right.png,,p,right,61153455405f1e389764b2a3,2021-10-27_13h08.39.317,arrow_simon_punish,2021.1.2,MacIntel,59.97361161,,,,,,,,,,,,,,p,1,1.4374,1.934285649,0,5,4,3,19,1,1,,,,,,,,,,,,,,
,,,,,,,,,,,left.png,,w,left,61153455405f1e389764b2a3,2021-10-27_13h08.39.317,arrow_simon_punish,2021.1.2,MacIntel,59.97361161,,,,,,,,,,,,,,p,0,1.4496,2.168408328,1,5,5,0,20,2,1,,,,,,,,,,,,,,
,,,,,,,,,,,right.png,,p,right,61153455405f1e389764b2a3,2021-10-27_13h08.39.317,arrow_simon_punish,2021.1.2,MacIntel,59.97361161,,,,,,,,,,,,,,p,1,1.408,1.871498428,0,5,5,1,21,1,1,,,,,,,,,,,,,,
,,,,,,,,,,,left.png,,w,left,61153455405f1e389764b2a3,2021-10-27_13h08.39.317,arrow_simon_punish,2021.1.2,MacIntel,59.97361161,,,,,,,,,,,,,,p,0,1.4031,1.983233474,1,5,5,2,22,2,1,,,,,,,,,,,,,,
,,,,,,,,,,,right.png,,p,right,61153455405f1e389764b2a3,2021-10-27_13h08.39.317,arrow_simon_punish,2021.1.2,MacIntel,59.97361161,,,,,,,,,,,,,,p,1,1.5187,2.461933816,0,5,5,3,23,1,1,,,,,,,,,,,,,,
,,,,,,,,,,,left.png,,w,right,61153455405f1e389764b2a3,2021-10-27_13h08.39.317,arrow_simon_punish,2021.1.2,MacIntel,59.97361161,,,,,,,,,,,,,,p,0,1.4543,2.171754791,1,5,6,0,24,3,1,,,,,,,,,,,,,,
,,,,,,,,,,,right.png,,p,left,61153455405f1e389764b2a3,2021-10-27_13h08.39.317,arrow_simon_punish,2021.1.2,MacIntel,59.97361161,,,,,,,,,,,,,,p,1,1.5057,2.317101572,0,5,6,1,25,0,1,,,,,,,,,,,,,,
,,,,,,,,,,,left.png,,w,right,61153455405f1e389764b2a3,2021-10-27_13h08.39.317,arrow_simon_punish,2021.1.2,MacIntel,59.97361161,,,,,,,,,,,,,,w,1,1.4226,1.761039731,0,5,6,2,26,3,1,,,,,,,,,,,,,,
,,,,,,,,,,,right.png,,p,left,61153455405f1e389764b2a3,2021-10-27_13h08.39.317,arrow_simon_punish,2021.1.2,MacIntel,59.97361161,,,,,,,,,,,,,,p,1,1.4362,2.016450266,0,5,6,3,27,0,1,,,,,,,,,,,,,,
,,,,,,,,,,,right.png,,p,left,61153455405f1e389764b2a3,2021-10-27_13h08.39.317,arrow_simon_punish,2021.1.2,MacIntel,59.97361161,,,,,,,,,,,,,,p,1,1.3901,1.814188822,1,5,7,0,28,0,1,,,,,,,,,,,,,,
,,,,,,,,,,,right.png,,p,right,61153455405f1e389764b2a3,2021-10-27_13h08.39.317,arrow_simon_punish,2021.1.2,MacIntel,59.97361161,,,,,,,,,,,,,,p,1,1.4899,2.321241679,0,5,7,1,29,1,1,,,,,,,,,,,,,,
,,,,,,,,,,,right.png,,p,right,61153455405f1e389764b2a3,2021-10-27_13h08.39.317,arrow_simon_punish,2021.1.2,MacIntel,59.97361161,,,,,,,,,,,,,,p,1,1.4051,1.962132526,0,5,7,2,30,1,1,,,,,,,,,,,,,,
,,,,,,,,,,,left.png,,w,right,61153455405f1e389764b2a3,2021-10-27_13h08.39.317,arrow_simon_punish,2021.1.2,MacIntel,59.97361161,,,,,,,,,,,,,,w,1,1.4845,1.986448309,0,5,7,3,31,3,1,,,,,,,,,,,,,,
,,,,,,,,,,,left.png,,w,left,61153455405f1e389764b2a3,2021-10-27_13h08.39.317,arrow_simon_punish,2021.1.2,MacIntel,59.97361161,,,,,,,,,,,,,,w,1,1.386,1.693821604,1,5,8,0,32,2,1,,,,,,,,,,,,,,
,,,,,,,,,,,right.png,,p,right,61153455405f1e389764b2a3,2021-10-27_13h08.39.317,arrow_simon_punish,2021.1.2,MacIntel,59.97361161,,,,,,,,,,,,,,p,1,1.5022,2.402286202,0,5,8,1,33,1,1,,,,,,,,,,,,,,
,,,,,,,,,,,right.png,,p,left,61153455405f1e389764b2a3,2021-10-27_13h08.39.317,arrow_simon_punish,2021.1.2,MacIntel,59.97361161,,,,,,,,,,,,,,p,1,1.4388,1.535722241,0,5,8,2,34,0,1,,,,,,,,,,,,,,
,,,,,,,,,,,left.png,,w,right,61153455405f1e389764b2a3,2021-10-27_13h08.39.317,arrow_simon_punish,2021.1.2,MacIntel,59.97361161,,,,,,,,,,,,,,p,0,1.484,2.353133805,1,5,8,3,35,3,1,,,,,,,,,,,,,,
,,,,,,,,,,,right.png,,p,left,61153455405f1e389764b2a3,2021-10-27_13h08.39.317,arrow_simon_punish,2021.1.2,MacIntel,59.97361161,,,,,,,,,,,,,,p,1,1.4506,1.913700424,0,5,9,0,36,0,1,,,,,,,,,,,,,,
,,,,,,,,,,,left.png,,w,right,61153455405f1e389764b2a3,2021-10-27_13h08.39.317,arrow_simon_punish,2021.1.2,MacIntel,59.97361161,,,,,,,,,,,,,,p,0,1.3991,2.26107586,1,5,9,1,37,3,1,,,,,,,,,,,,,,
,,,,,,,,,,,right.png,,p,left,61153455405f1e389764b2a3,2021-10-27_13h08.39.317,arrow_simon_punish,2021.1.2,MacIntel,59.97361161,,,,,,,,,,,,,,p,1,1.4515,2.426489594,0,5,9,2,38,0,1,,,,,,,,,,,,,,
,,,,,,,,,,,right.png,,p,left,61153455405f1e389764b2a3,2021-10-27_13h08.39.317,arrow_simon_punish,2021.1.2,MacIntel,59.97361161,,,,,,,,,,,,,,p,1,1.5227,2.395987633,0,5,9,3,39,0,1,,,,,,,,,,,,,,
,,,,,,,,,,,right.png,,p,left,61153455405f1e389764b2a3,2021-10-27_13h08.39.317,arrow_simon_punish,2021.1.2,MacIntel,59.97361161,,,,,,,,,,,,,,p,1,1.4161,2.146244113,0,5,10,0,40,0,1,,,,,,,,,,,,,,
,,,,,,,,,,,right.png,,p,right,61153455405f1e389764b2a3,2021-10-27_13h08.39.317,arrow_simon_punish,2021.1.2,MacIntel,59.97361161,,,,,,,,,,,,,,p,1,1.3845,2.063861642,1,5,10,1,41,1,1,,,,,,,,,,,,,,
,,,,,,,,,,,left.png,,w,left,61153455405f1e389764b2a3,2021-10-27_13h08.39.317,arrow_simon_punish,2021.1.2,MacIntel,59.97361161,,,,,,,,,,,,,,p,0,1.4523,2.27915581,1,5,10,2,42,2,1,,,,,,,,,,,,,,
,,,,,,,,,,,left.png,,w,left,61153455405f1e389764b2a3,2021-10-27_13h08.39.317,arrow_simon_punish,2021.1.2,MacIntel,59.97361161,,,,,,,,,,,,,,w,1,1.4514,1.614377002,0,5,10,3,43,2,1,,,,,,,,,,,,,,
,,,,,,,,,,,left.png,,w,left,61153455405f1e389764b2a3,2021-10-27_13h08.39.317,arrow_simon_punish,2021.1.2,MacIntel,59.97361161,,,,,,,,,,,,,,w,1,1.4342,1.849939743,0,5,11,0,44,2,1,,,,,,,,,,,,,,
,,,,,,,,,,,left.png,,w,right,61153455405f1e389764b2a3,2021-10-27_13h08.39.317,arrow_simon_punish,2021.1.2,MacIntel,59.97361161,,,,,,,,,,,,,,w,1,1.4065,1.51385531,0,5,11,1,45,3,1,,,,,,,,,,,,,,
,,,,,,,,,,,left.png,,w,left,61153455405f1e389764b2a3,2021-10-27_13h08.39.317,arrow_simon_punish,2021.1.2,MacIntel,59.97361161,,,,,,,,,,,,,,w,1,1.5341,1.980601434,0,5,11,2,46,2,1,,,,,,,,,,,,,,
,,,,,,,,,,,left.png,,w,left,61153455405f1e389764b2a3,2021-10-27_13h08.39.317,arrow_simon_punish,2021.1.2,MacIntel,59.97361161,,,,,,,,,,,,,,w,1,1.3739,1.930809611,1,5,11,3,47,2,1,,,,,,,,,,,,,,
,,,,,,,,,,,right.png,,p,left,61153455405f1e389764b2a3,2021-10-27_13h08.39.317,arrow_simon_punish,2021.1.2,MacIntel,59.97361161,,,,,,,,,,,,,,p,1,1.4679,2.484781246,0,5,12,0,48,0,1,,,,,,,,,,,,,,
,,,,,,,,,,,right.png,,p,right,61153455405f1e389764b2a3,2021-10-27_13h08.39.317,arrow_simon_punish,2021.1.2,MacIntel,59.97361161,,,,,,,,,,,,,,p,1,1.3891,1.987067173,1,5,12,1,49,1,1,,,,,,,,,,,,,,
,,,,,,,,,,,left.png,,w,right,61153455405f1e389764b2a3,2021-10-27_13h08.39.317,arrow_simon_punish,2021.1.2,MacIntel,59.97361161,,,,,,,,,,,,,,w,1,1.4681,2.001414435,0,5,12,2,50,3,1,,,,,,,,,,,,,,
,,,,,,,,,,,left.png,,w,left,61153455405f1e389764b2a3,2021-10-27_13h08.39.317,arrow_simon_punish,2021.1.2,MacIntel,59.97361161,,,,,,,,,,,,,,p,0,1.535,2.243563702,1,5,12,3,51,2,1,,,,,,,,,,,,,,
,,,,,,,,,,,right.png,,p,left,61153455405f1e389764b2a3,2021-10-27_13h08.39.317,arrow_simon_punish,2021.1.2,MacIntel,59.97361161,,,,,,,,,,,,,,p,1,1.4016,1.773335533,0,5,13,0,52,0,1,,,,,,,,,,,,,,
,,,,,,,,,,,left.png,,w,right,61153455405f1e389764b2a3,2021-10-27_13h08.39.317,arrow_simon_punish,2021.1.2,MacIntel,59.97361161,,,,,,,,,,,,,,w,1,1.3683,1.61616093,1,5,13,1,53,3,1,,,,,,,,,,,,,,
,,,,,,,,,,,right.png,,p,left,61153455405f1e389764b2a3,2021-10-27_13h08.39.317,arrow_simon_punish,2021.1.2,MacIntel,59.97361161,,,,,,,,,,,,,,p,1,1.34,1.513989454,1,5,13,2,54,0,1,,,,,,,,,,,,,,
,,,,,,,,,,,left.png,,w,left,61153455405f1e389764b2a3,2021-10-27_13h08.39.317,arrow_simon_punish,2021.1.2,MacIntel,59.97361161,,,,,,,,,,,,,,p,0,1.4667,2.084489768,1,5,13,3,55,2,1,,,,,,,,,,,,,,
,,,,,,,,,,,right.png,,p,right,61153455405f1e389764b2a3,2021-10-27_13h08.39.317,arrow_simon_punish,2021.1.2,MacIntel,59.97361161,,,,,,,,,,,,,,p,1,1.3666,1.526278901,1,5,14,0,56,1,1,,,,,,,,,,,,,,
,,,,,,,,,,,left.png,,w,right,61153455405f1e389764b2a3,2021-10-27_13h08.39.317,arrow_simon_punish,2021.1.2,MacIntel,59.97361161,,,,,,,,,,,,,,w,1,1.3863,1.874342925,1,5,14,1,57,3,1,,,,,,,,,,,,,,
,,,,,,,,,,,left.png,,w,right,61153455405f1e389764b2a3,2021-10-27_13h08.39.317,arrow_simon_punish,2021.1.2,MacIntel,59.97361161,,,,,,,,,,,,,,p,0,1.4172,2.123177874,1,5,14,2,58,3,1,,,,,,,,,,,,,,
,,,,,,,,,,,right.png,,p,left,61153455405f1e389764b2a3,2021-10-27_13h08.39.317,arrow_simon_punish,2021.1.2,MacIntel,59.97361161,,,,,,,,,,,,,,p,1,1.4689,1.709686059,0,5,14,3,59,0,1,,,,,,,,,,,,,,
,,,,,,,,,,,,,,,61153455405f1e389764b2a3,2021-10-27_13h08.39.317,arrow_simon_punish,2021.1.2,MacIntel,59.97361161,,,,,,,,,,,,,,,,,,,,,,,,,space,0.967,5,1,1,3,1,1,5,,,,,
,,,,,,,,,,,left.png,,w,left,61153455405f1e389764b2a3,2021-10-27_13h08.39.317,arrow_simon_punish,2021.1.2,MacIntel,59.97361161,,,,,,,,,,,,,,p,0,1.573,2.419115688,1,1,0,0,0,2,1,,,,,,,,,,,,,,
,,,,,,,,,,,right.png,,p,left,61153455405f1e389764b2a3,2021-10-27_13h08.39.317,arrow_simon_punish,2021.1.2,MacIntel,59.97361161,,,,,,,,,,,,,,p,1,1.4383,1.515009644,0,1,0,1,1,0,1,,,,,,,,,,,,,,
,,,,,,,,,,,right.png,,p,left,61153455405f1e389764b2a3,2021-10-27_13h08.39.317,arrow_simon_punish,2021.1.2,MacIntel,59.97361161,,,,,,,,,,,,,,p,1,1.386,1.878685012,1,1,0,2,2,0,1,,,,,,,,,,,,,,
,,,,,,,,,,,right.png,,p,left,61153455405f1e389764b2a3,2021-10-27_13h08.39.317,arrow_simon_punish,2021.1.2,MacIntel,59.97361161,,,,,,,,,,,,,,p,1,1.4189,2.36416666,0,1,0,3,3,0,1,,,,,,,,,,,,,,
,,,,,,,,,,,right.png,,p,left,61153455405f1e389764b2a3,2021-10-27_13h08.39.317,arrow_simon_punish,2021.1.2,MacIntel,59.97361161,,,,,,,,,,,,,,p,1,1.5224,1.875587152,0,1,1,0,4,0,1,,,,,,,,,,,,,,
,,,,,,,,,,,left.png,,w,left,61153455405f1e389764b2a3,2021-10-27_13h08.39.317,arrow_simon_punish,2021.1.2,MacIntel,59.97361161,,,,,,,,,,,,,,w,1,1.483,1.50392071,0,1,1,1,5,2,1,,,,,,,,,,,,,,
,,,,,,,,,,,left.png,,w,right,61153455405f1e389764b2a3,2021-10-27_13h08.39.317,arrow_simon_punish,2021.1.2,MacIntel,59.97361161,,,,,,,,,,,,,,w,1,1.4513,1.808392572,0,1,1,2,6,3,1,,,,,,,,,,,,,,
,,,,,,,,,,,right.png,,p,left,61153455405f1e389764b2a3,2021-10-27_13h08.39.317,arrow_simon_punish,2021.1.2,MacIntel,59.97361161,,,,,,,,,,,,,,p,1,1.5264,1.684691486,0,1,1,3,7,0,1,,,,,,,,,,,,,,
,,,,,,,,,,,left.png,,w,left,61153455405f1e389764b2a3,2021-10-27_13h08.39.317,arrow_simon_punish,2021.1.2,MacIntel,59.97361161,,,,,,,,,,,,,,w,1,1.4514,1.729293388,0,1,2,0,8,2,1,,,,,,,,,,,,,,
,,,,,,,,,,,left.png,,w,right,61153455405f1e389764b2a3,2021-10-27_13h08.39.317,arrow_simon_punish,2021.1.2,MacIntel,59.97361161,,,,,,,,,,,,,,w,1,1.3861,1.562291136,1,1,2,1,9,3,1,,,,,,,,,,,,,,
,,,,,,,,,,,right.png,,p,right,61153455405f1e389764b2a3,2021-10-27_13h08.39.317,arrow_simon_punish,2021.1.2,MacIntel,59.97361161,,,,,,,,,,,,,,p,1,1.4769,2.400290329,0,1,2,2,10,1,1,,,,,,,,,,,,,,
,,,,,,,,,,,right.png,,p,right,61153455405f1e389764b2a3,2021-10-27_13h08.39.317,arrow_simon_punish,2021.1.2,MacIntel,59.97361161,,,,,,,,,,,,,,p,1,1.4664,1.674270731,0,1,2,3,11,1,1,,,,,,,,,,,,,,
,,,,,,,,,,,right.png,,p,right,61153455405f1e389764b2a3,2021-10-27_13h08.39.317,arrow_simon_punish,2021.1.2,MacIntel,59.97361161,,,,,,,,,,,,,,p,1,1.484,1.858844214,0,1,3,0,12,1,1,,,,,,,,,,,,,,
,,,,,,,,,,,left.png,,w,right,61153455405f1e389764b2a3,2021-10-27_13h08.39.317,arrow_simon_punish,2021.1.2,MacIntel,59.97361161,,,,,,,,,,,,,,p,0,1.4509,2.436946673,1,1,3,1,13,3,1,,,,,,,,,,,,,,
,,,,,,,,,,,right.png,,p,left,61153455405f1e389764b2a3,2021-10-27_13h08.39.317,arrow_simon_punish,2021.1.2,MacIntel,59.97361161,,,,,,,,,,,,,,p,1,1.417,1.783165844,0,1,3,2,14,0,1,,,,,,,,,,,,,,
,,,,,,,,,,,left.png,,w,left,61153455405f1e389764b2a3,2021-10-27_13h08.39.317,arrow_simon_punish,2021.1.2,MacIntel,59.97361161,,,,,,,,,,,,,,w,1,1.3874,1.993091197,1,1,3,3,15,2,1,,,,,,,,,,,,,,
,,,,,,,,,,,left.png,,w,right,61153455405f1e389764b2a3,2021-10-27_13h08.39.317,arrow_simon_punish,2021.1.2,MacIntel,59.97361161,,,,,,,,,,,,,,w,1,1.4879,1.996344005,0,1,4,0,16,3,1,,,,,,,,,,,,,,
,,,,,,,,,,,right.png,,p,left,61153455405f1e389764b2a3,2021-10-27_13h08.39.317,arrow_simon_punish,2021.1.2,MacIntel,59.97361161,,,,,,,,,,,,,,p,1,1.423,1.644225337,0,1,4,1,17,0,1,,,,,,,,,,,,,,
,,,,,,,,,,,right.png,,p,right,61153455405f1e389764b2a3,2021-10-27_13h08.39.317,arrow_simon_punish,2021.1.2,MacIntel,59.97361161,,,,,,,,,,,,,,p,1,1.4844,2.193142066,0,1,4,2,18,1,1,,,,,,,,,,,,,,
,,,,,,,,,,,left.png,,w,left,61153455405f1e389764b2a3,2021-10-27_13h08.39.317,arrow_simon_punish,2021.1.2,MacIntel,59.97361161,,,,,,,,,,,,,,w,1,1.3874,1.70589114,1,1,4,3,19,2,1,,,,,,,,,,,,,,
,,,,,,,,,,,left.png,,w,right,61153455405f1e389764b2a3,2021-10-27_13h08.39.317,arrow_simon_punish,2021.1.2,MacIntel,59.97361161,,,,,,,,,,,,,,w,1,1.3995,1.611544651,1,1,5,0,20,3,1,,,,,,,,,,,,,,
,,,,,,,,,,,left.png,,w,right,61153455405f1e389764b2a3,2021-10-27_13h08.39.317,arrow_simon_punish,2021.1.2,MacIntel,59.97361161,,,,,,,,,,,,,,w,1,1.4895,1.771981396,0,1,5,1,21,3,1,,,,,,,,,,,,,,
,,,,,,,,,,,left.png,,w,right,61153455405f1e389764b2a3,2021-10-27_13h08.39.317,arrow_simon_punish,2021.1.2,MacIntel,59.97361161,,,,,,,,,,,,,,w,1,1.5996,2.114519604,0,1,5,2,22,3,1,,,,,,,,,,,,,,
,,,,,,,,,,,left.png,,w,left,61153455405f1e389764b2a3,2021-10-27_13h08.39.317,arrow_simon_punish,2021.1.2,MacIntel,59.97361161,,,,,,,,,,,,,,w,1,1.4776,2.123165285,0,1,5,3,23,2,1,,,,,,,,,,,,,,
,,,,,,,,,,,left.png,,w,right,61153455405f1e389764b2a3,2021-10-27_13h08.39.317,arrow_simon_punish,2021.1.2,MacIntel,59.97361161,,,,,,,,,,,,,,p,0,1.5184,2.226130926,1,1,6,0,24,3,1,,,,,,,,,,,,,,
,,,,,,,,,,,right.png,,p,left,61153455405f1e389764b2a3,2021-10-27_13h08.39.317,arrow_simon_punish,2021.1.2,MacIntel,59.97361161,,,,,,,,,,,,,,p,1,1.5355,1.969194914,0,1,6,1,25,0,1,,,,,,,,,,,,,,
,,,,,,,,,,,left.png,,w,right,61153455405f1e389764b2a3,2021-10-27_13h08.39.317,arrow_simon_punish,2021.1.2,MacIntel,59.97361161,,,,,,,,,,,,,,p,0,1.5669,2.221239549,1,1,6,2,26,3,1,,,,,,,,,,,,,,
,,,,,,,,,,,left.png,,w,left,61153455405f1e389764b2a3,2021-10-27_13h08.39.317,arrow_simon_punish,2021.1.2,MacIntel,59.97361161,,,,,,,,,,,,,,w,1,1.4717,1.811567852,0,1,6,3,27,2,1,,,,,,,,,,,,,,
,,,,,,,,,,,right.png,,p,right,61153455405f1e389764b2a3,2021-10-27_13h08.39.317,arrow_simon_punish,2021.1.2,MacIntel,59.97361161,,,,,,,,,,,,,,p,1,1.269,1.850820222,1,1,7,0,28,1,1,,,,,,,,,,,,,,
,,,,,,,,,,,left.png,,w,left,61153455405f1e389764b2a3,2021-10-27_13h08.39.317,arrow_simon_punish,2021.1.2,MacIntel,59.97361161,,,,,,,,,,,,,,w,1,1.5701,2.286327545,0,1,7,1,29,2,1,,,,,,,,,,,,,,
,,,,,,,,,,,left.png,,w,left,61153455405f1e389764b2a3,2021-10-27_13h08.39.317,arrow_simon_punish,2021.1.2,MacIntel,59.97361161,,,,,,,,,,,,,,p,0,1.5897,2.371394684,1,1,7,2,30,2,1,,,,,,,,,,,,,,
,,,,,,,,,,,left.png,,w,left,61153455405f1e389764b2a3,2021-10-27_13h08.39.317,arrow_simon_punish,2021.1.2,MacIntel,59.97361161,,,,,,,,,,,,,,w,1,1.6372,2.284153376,1,1,7,3,31,2,1,,,,,,,,,,,,,,
,,,,,,,,,,,left.png,,w,right,61153455405f1e389764b2a3,2021-10-27_13h08.39.317,arrow_simon_punish,2021.1.2,MacIntel,59.97361161,,,,,,,,,,,,,,w,1,1.3529,1.74781032,1,1,8,0,32,3,1,,,,,,,,,,,,,,
,,,,,,,,,,,left.png,,w,left,61153455405f1e389764b2a3,2021-10-27_13h08.39.317,arrow_simon_punish,2021.1.2,MacIntel,59.97361161,,,,,,,,,,,,,,p,0,1.4558,2.258682257,1,1,8,1,33,2,1,,,,,,,,,,,,,,
,,,,,,,,,,,right.png,,p,right,61153455405f1e389764b2a3,2021-10-27_13h08.39.317,arrow_simon_punish,2021.1.2,MacIntel,59.97361161,,,,,,,,,,,,,,p,1,1.5356,1.52561995,0,1,8,2,34,1,1,,,,,,,,,,,,,,
,,,,,,,,,,,right.png,,p,right,61153455405f1e389764b2a3,2021-10-27_13h08.39.317,arrow_simon_punish,2021.1.2,MacIntel,59.97361161,,,,,,,,,,,,,,p,1,1.3991,2.035445592,1,1,8,3,35,1,1,,,,,,,,,,,,,,
,,,,,,,,,,,right.png,,p,left,61153455405f1e389764b2a3,2021-10-27_13h08.39.317,arrow_simon_punish,2021.1.2,MacIntel,59.97361161,,,,,,,,,,,,,,p,1,1.4672,1.854432665,0,1,9,0,36,0,1,,,,,,,,,,,,,,
,,,,,,,,,,,right.png,,p,left,61153455405f1e389764b2a3,2021-10-27_13h08.39.317,arrow_simon_punish,2021.1.2,MacIntel,59.97361161,,,,,,,,,,,,,,p,1,1.5048,1.890890211,0,1,9,1,37,0,1,,,,,,,,,,,,,,
,,,,,,,,,,,right.png,,p,right,61153455405f1e389764b2a3,2021-10-27_13h08.39.317,arrow_simon_punish,2021.1.2,MacIntel,59.97361161,,,,,,,,,,,,,,p,1,1.584,2.085970467,0,1,9,2,38,1,1,,,,,,,,,,,,,,
,,,,,,,,,,,right.png,,p,right,61153455405f1e389764b2a3,2021-10-27_13h08.39.317,arrow_simon_punish,2021.1.2,MacIntel,59.97361161,,,,,,,,,,,,,,p,1,1.5388,1.647349034,0,1,9,3,39,1,1,,,,,,,,,,,,,,
,,,,,,,,,,,left.png,,w,left,61153455405f1e389764b2a3,2021-10-27_13h08.39.317,arrow_simon_punish,2021.1.2,MacIntel,59.97361161,,,,,,,,,,,,,,w,1,1.4679,1.785938147,0,1,10,0,40,2,1,,,,,,,,,,,,,,
,,,,,,,,,,,left.png,,w,right,61153455405f1e389764b2a3,2021-10-27_13h08.39.317,arrow_simon_punish,2021.1.2,MacIntel,59.97361161,,,,,,,,,,,,,,p,0,1.4688,2.084793851,1,1,10,1,41,3,1,,,,,,,,,,,,,,
,,,,,,,,,,,right.png,,p,right,61153455405f1e389764b2a3,2021-10-27_13h08.39.317,arrow_simon_punish,2021.1.2,MacIntel,59.97361161,,,,,,,,,,,,,,p,1,1.4887,1.567829788,0,1,10,2,42,1,1,,,,,,,,,,,,,,
,,,,,,,,,,,left.png,,w,left,61153455405f1e389764b2a3,2021-10-27_13h08.39.317,arrow_simon_punish,2021.1.2,MacIntel,59.97361161,,,,,,,,,,,,,,w,1,1.6177,1.782806645,1,1,10,3,43,2,1,,,,,,,,,,,,,,
,,,,,,,,,,,right.png,,p,left,61153455405f1e389764b2a3,2021-10-27_13h08.39.317,arrow_simon_punish,2021.1.2,MacIntel,59.97361161,,,,,,,,,,,,,,p,1,1.5672,2.352823035,0,1,11,0,44,0,1,,,,,,,,,,,,,,
,,,,,,,,,,,left.png,,w,right,61153455405f1e389764b2a3,2021-10-27_13h08.39.317,arrow_simon_punish,2021.1.2,MacIntel,59.97361161,,,,,,,,,,,,,,w,1,1.4839,1.554234045,0,1,11,1,45,3,1,,,,,,,,,,,,,,
,,,,,,,,,,,right.png,,p,left,61153455405f1e389764b2a3,2021-10-27_13h08.39.317,arrow_simon_punish,2021.1.2,MacIntel,59.97361161,,,,,,,,,,,,,,p,1,1.4655,1.574343615,0,1,11,2,46,0,1,,,,,,,,,,,,,,
,,,,,,,,,,,right.png,,p,right,61153455405f1e389764b2a3,2021-10-27_13h08.39.317,arrow_simon_punish,2021.1.2,MacIntel,59.97361161,,,,,,,,,,,,,,p,1,1.4999,2.141045423,0,1,11,3,47,1,1,,,,,,,,,,,,,,
,,,,,,,,,,,left.png,,w,left,61153455405f1e389764b2a3,2021-10-27_13h08.39.317,arrow_simon_punish,2021.1.2,MacIntel,59.97361161,,,,,,,,,,,,,,w,1,1.5029,1.680935776,0,1,12,0,48,2,1,,,,,,,,,,,,,,
,,,,,,,,,,,left.png,,w,right,61153455405f1e389764b2a3,2021-10-27_13h08.39.317,arrow_simon_punish,2021.1.2,MacIntel,59.97361161,,,,,,,,,,,,,,p,0,1.5044,2.128458414,1,1,12,1,49,3,1,,,,,,,,,,,,,,
,,,,,,,,,,,right.png,,p,right,61153455405f1e389764b2a3,2021-10-27_13h08.39.317,arrow_simon_punish,2021.1.2,MacIntel,59.97361161,,,,,,,,,,,,,,p,1,1.5006,2.262043174,0,1,12,2,50,1,1,,,,,,,,,,,,,,
,,,,,,,,,,,left.png,,w,right,61153455405f1e389764b2a3,2021-10-27_13h08.39.317,arrow_simon_punish,2021.1.2,MacIntel,59.97361161,,,,,,,,,,,,,,p,0,1.4478,2.149783689,1,1,12,3,51,3,1,,,,,,,,,,,,,,
,,,,,,,,,,,right.png,,p,right,61153455405f1e389764b2a3,2021-10-27_13h08.39.317,arrow_simon_punish,2021.1.2,MacIntel,59.97361161,,,,,,,,,,,,,,p,1,1.469,2.486826422,0,1,13,0,52,1,1,,,,,,,,,,,,,,
,,,,,,,,,,,right.png,,p,right,61153455405f1e389764b2a3,2021-10-27_13h08.39.317,arrow_simon_punish,2021.1.2,MacIntel,59.97361161,,,,,,,,,,,,,,p,1,1.4529,1.873016928,0,1,13,1,53,1,1,,,,,,,,,,,,,,
,,,,,,,,,,,left.png,,w,left,61153455405f1e389764b2a3,2021-10-27_13h08.39.317,arrow_simon_punish,2021.1.2,MacIntel,59.97361161,,,,,,,,,,,,,,w,1,1.4178,1.740899208,0,1,13,2,54,2,1,,,,,,,,,,,,,,
,,,,,,,,,,,right.png,,p,left,61153455405f1e389764b2a3,2021-10-27_13h08.39.317,arrow_simon_punish,2021.1.2,MacIntel,59.97361161,,,,,,,,,,,,,,p,1,1.4865,1.887071391,0,1,13,3,55,0,1,,,,,,,,,,,,,,
,,,,,,,,,,,left.png,,w,right,61153455405f1e389764b2a3,2021-10-27_13h08.39.317,arrow_simon_punish,2021.1.2,MacIntel,59.97361161,,,,,,,,,,,,,,p,0,1.5359,2.384872899,1,1,14,0,56,3,1,,,,,,,,,,,,,,
,,,,,,,,,,,right.png,,p,left,61153455405f1e389764b2a3,2021-10-27_13h08.39.317,arrow_simon_punish,2021.1.2,MacIntel,59.97361161,,,,,,,,,,,,,,p,1,1.5038,1.929125437,0,1,14,1,57,0,1,,,,,,,,,,,,,,
,,,,,,,,,,,right.png,,p,left,61153455405f1e389764b2a3,2021-10-27_13h08.39.317,arrow_simon_punish,2021.1.2,MacIntel,59.97361161,,,,,,,,,,,,,,p,1,1.46,1.531352019,0,1,14,2,58,0,1,,,,,,,,,,,,,,
,,,,,,,,,,,right.png,,p,right,61153455405f1e389764b2a3,2021-10-27_13h08.39.317,arrow_simon_punish,2021.1.2,MacIntel,59.97361161,,,,,,,,,,,,,,p,1,1.4678,1.80954257,0,1,14,3,59,1,1,,,,,,,,,,,,,,
,,,,,,,,,,,,,,,61153455405f1e389764b2a3,2021-10-27_13h08.39.317,arrow_simon_punish,2021.1.2,MacIntel,59.97361161,,,,,,,,,,,,,,,,,,,,,,,,,space,1.2319,6,2,0,4,0,1,1,,,,,
,,,,,,,,,,,right.png,,p,left,61153455405f1e389764b2a3,2021-10-27_13h08.39.317,arrow_simon_punish,2021.1.2,MacIntel,59.97361161,,,,,,,,,,,,,,p,1,1.5376,2.255049325,0,5,0,0,0,0,1,,,,,,,,,,,,,,
,,,,,,,,,,,right.png,,p,left,61153455405f1e389764b2a3,2021-10-27_13h08.39.317,arrow_simon_punish,2021.1.2,MacIntel,59.97361161,,,,,,,,,,,,,,p,1,1.5182,1.660445591,0,5,0,1,1,0,1,,,,,,,,,,,,,,
,,,,,,,,,,,right.png,,p,left,61153455405f1e389764b2a3,2021-10-27_13h08.39.317,arrow_simon_punish,2021.1.2,MacIntel,59.97361161,,,,,,,,,,,,,,p,1,1.5556,1.692312137,0,5,0,2,2,0,1,,,,,,,,,,,,,,
,,,,,,,,,,,left.png,,w,right,61153455405f1e389764b2a3,2021-10-27_13h08.39.317,arrow_simon_punish,2021.1.2,MacIntel,59.97361161,,,,,,,,,,,,,,w,1,1.5047,2.043797983,0,5,0,3,3,3,1,,,,,,,,,,,,,,
,,,,,,,,,,,right.png,,p,right,61153455405f1e389764b2a3,2021-10-27_13h08.39.317,arrow_simon_punish,2021.1.2,MacIntel,59.97361161,,,,,,,,,,,,,,p,1,1.5032,2.170361013,0,5,1,0,4,1,1,,,,,,,,,,,,,,
,,,,,,,,,,,left.png,,w,left,61153455405f1e389764b2a3,2021-10-27_13h08.39.317,arrow_simon_punish,2021.1.2,MacIntel,59.97361161,,,,,,,,,,,,,,p,0,1.3204,1.955320376,1,5,1,1,5,2,1,,,,,,,,,,,,,,
,,,,,,,,,,,right.png,,p,right,61153455405f1e389764b2a3,2021-10-27_13h08.39.317,arrow_simon_punish,2021.1.2,MacIntel,59.97361161,,,,,,,,,,,,,,p,1,1.5352,1.632017154,0,5,1,2,6,1,1,,,,,,,,,,,,,,
,,,,,,,,,,,right.png,,p,left,61153455405f1e389764b2a3,2021-10-27_13h08.39.317,arrow_simon_punish,2021.1.2,MacIntel,59.97361161,,,,,,,,,,,,,,p,1,1.5027,2.016916905,0,5,1,3,7,0,1,,,,,,,,,,,,,,
,,,,,,,,,,,left.png,,w,right,61153455405f1e389764b2a3,2021-10-27_13h08.39.317,arrow_simon_punish,2021.1.2,MacIntel,59.97361161,,,,,,,,,,,,,,w,1,1.4888,1.546820879,0,5,2,0,8,3,1,,,,,,,,,,,,,,
,,,,,,,,,,,right.png,,p,right,61153455405f1e389764b2a3,2021-10-27_13h08.39.317,arrow_simon_punish,2021.1.2,MacIntel,59.97361161,,,,,,,,,,,,,,p,1,1.4684,1.653578376,0,5,2,1,9,1,1,,,,,,,,,,,,,,
,,,,,,,,,,,left.png,,w,left,61153455405f1e389764b2a3,2021-10-27_13h08.39.317,arrow_simon_punish,2021.1.2,MacIntel,59.97361161,,,,,,,,,,,,,,p,0,1.4838,2.461677287,1,5,2,2,10,2,1,,,,,,,,,,,,,,
,,,,,,,,,,,right.png,,p,right,61153455405f1e389764b2a3,2021-10-27_13h08.39.317,arrow_simon_punish,2021.1.2,MacIntel,59.97361161,,,,,,,,,,,,,,p,1,1.505,1.839634007,0,5,2,3,11,1,1,,,,,,,,,,,,,,
,,,,,,,,,,,left.png,,w,right,61153455405f1e389764b2a3,2021-10-27_13h08.39.317,arrow_simon_punish,2021.1.2,MacIntel,59.97361161,,,,,,,,,,,,,,w,1,1.4517,1.698894258,0,5,3,0,12,3,1,,,,,,,,,,,,,,
,,,,,,,,,,,left.png,,w,right,61153455405f1e389764b2a3,2021-10-27_13h08.39.317,arrow_simon_punish,2021.1.2,MacIntel,59.97361161,,,,,,,,,,,,,,w,1,1.4365,1.74408038,0,5,3,1,13,3,1,,,,,,,,,,,,,,
,,,,,,,,,,,left.png,,w,right,61153455405f1e389764b2a3,2021-10-27_13h08.39.317,arrow_simon_punish,2021.1.2,MacIntel,59.97361161,,,,,,,,,,,,,,w,1,1.452,1.843383512,0,5,3,2,14,3,1,,,,,,,,,,,,,,
,,,,,,,,,,,right.png,,p,left,61153455405f1e389764b2a3,2021-10-27_13h08.39.317,arrow_simon_punish,2021.1.2,MacIntel,59.97361161,,,,,,,,,,,,,,p,1,1.4892,1.544329385,0,5,3,3,15,0,1,,,,,,,,,,,,,,
,,,,,,,,,,,right.png,,p,left,61153455405f1e389764b2a3,2021-10-27_13h08.39.317,arrow_simon_punish,2021.1.2,MacIntel,59.97361161,,,,,,,,,,,,,,p,1,1.4858,2.225985854,0,5,4,0,16,0,1,,,,,,,,,,,,,,
,,,,,,,,,,,right.png,,p,right,61153455405f1e389764b2a3,2021-10-27_13h08.39.317,arrow_simon_punish,2021.1.2,MacIntel,59.97361161,,,,,,,,,,,,,,p,1,1.4047,1.914938502,0,5,4,1,17,1,1,,,,,,,,,,,,,,
,,,,,,,,,,,left.png,,w,left,61153455405f1e389764b2a3,2021-10-27_13h08.39.317,arrow_simon_punish,2021.1.2,MacIntel,59.97361161,,,,,,,,,,,,,,w,1,1.5845,2.273080193,0,5,4,2,18,2,1,,,,,,,,,,,,,,
,,,,,,,,,,,right.png,,p,left,61153455405f1e389764b2a3,2021-10-27_13h08.39.317,arrow_simon_punish,2021.1.2,MacIntel,59.97361161,,,,,,,,,,,,,,p,1,1.52,2.348519469,0,5,4,3,19,0,1,,,,,,,,,,,,,,
,,,,,,,,,,,right.png,,p,left,61153455405f1e389764b2a3,2021-10-27_13h08.39.317,arrow_simon_punish,2021.1.2,MacIntel,59.97361161,,,,,,,,,,,,,,p,1,1.403,2.035631753,0,5,5,0,20,0,1,,,,,,,,,,,,,,
,,,,,,,,,,,left.png,,w,left,61153455405f1e389764b2a3,2021-10-27_13h08.39.317,arrow_simon_punish,2021.1.2,MacIntel,59.97361161,,,,,,,,,,,,,,p,0,1.6189,2.197868093,1,5,5,1,21,2,1,,,,,,,,,,,,,,
,,,,,,,,,,,left.png,,w,right,61153455405f1e389764b2a3,2021-10-27_13h08.39.317,arrow_simon_punish,2021.1.2,MacIntel,59.97361161,,,,,,,,,,,,,,w,1,1.6194,2.174730921,1,5,5,2,22,3,1,,,,,,,,,,,,,,
,,,,,,,,,,,right.png,,p,right,61153455405f1e389764b2a3,2021-10-27_13h08.39.317,arrow_simon_punish,2021.1.2,MacIntel,59.97361161,,,,,,,,,,,,,,p,1,1.574,2.356440239,0,5,5,3,23,1,1,,,,,,,,,,,,,,
,,,,,,,,,,,right.png,,p,right,61153455405f1e389764b2a3,2021-10-27_13h08.39.317,arrow_simon_punish,2021.1.2,MacIntel,59.97361161,,,,,,,,,,,,,,p,1,1.4512,2.346700407,0,5,6,0,24,1,1,,,,,,,,,,,,,,
,,,,,,,,,,,right.png,,p,right,61153455405f1e389764b2a3,2021-10-27_13h08.39.317,arrow_simon_punish,2021.1.2,MacIntel,59.97361161,,,,,,,,,,,,,,p,1,1.6018,2.323467858,1,5,6,1,25,1,1,,,,,,,,,,,,,,
,,,,,,,,,,,right.png,,p,right,61153455405f1e389764b2a3,2021-10-27_13h08.39.317,arrow_simon_punish,2021.1.2,MacIntel,59.97361161,,,,,,,,,,,,,,p,1,1.471,2.256097848,0,5,6,2,26,1,1,,,,,,,,,,,,,,
,,,,,,,,,,,left.png,,w,right,61153455405f1e389764b2a3,2021-10-27_13h08.39.317,arrow_simon_punish,2021.1.2,MacIntel,59.97361161,,,,,,,,,,,,,,w,1,1.5004,1.965379039,0,5,6,3,27,3,1,,,,,,,,,,,,,,
,,,,,,,,,,,right.png,,p,right,61153455405f1e389764b2a3,2021-10-27_13h08.39.317,arrow_simon_punish,2021.1.2,MacIntel,59.97361161,,,,,,,,,,,,,,p,1,1.4388,1.989129834,0,5,7,0,28,1,1,,,,,,,,,,,,,,
,,,,,,,,,,,left.png,,w,left,61153455405f1e389764b2a3,2021-10-27_13h08.39.317,arrow_simon_punish,2021.1.2,MacIntel,59.97361161,,,,,,,,,,,,,,w,1,1.4493,1.810716681,0,5,7,1,29,2,1,,,,,,,,,,,,,,
,,,,,,,,,,,left.png,,w,left,61153455405f1e389764b2a3,2021-10-27_13h08.39.317,arrow_simon_punish,2021.1.2,MacIntel,59.97361161,,,,,,,,,,,,,,p,0,1.4716,2.47998377,1,5,7,2,30,2,1,,,,,,,,,,,,,,
,,,,,,,,,,,left.png,,w,right,61153455405f1e389764b2a3,2021-10-27_13h08.39.317,arrow_simon_punish,2021.1.2,MacIntel,59.97361161,,,,,,,,,,,,,,p,0,1.5182,2.424243162,1,5,7,3,31,3,1,,,,,,,,,,,,,,
,,,,,,,,,,,left.png,,w,left,61153455405f1e389764b2a3,2021-10-27_13h08.39.317,arrow_simon_punish,2021.1.2,MacIntel,59.97361161,,,,,,,,,,,,,,w,1,1.3684,1.60309901,1,5,8,0,32,2,1,,,,,,,,,,,,,,
,,,,,,,,,,,left.png,,w,right,61153455405f1e389764b2a3,2021-10-27_13h08.39.317,arrow_simon_punish,2021.1.2,MacIntel,59.97361161,,,,,,,,,,,,,,p,0,1.4857,2.166054288,1,5,8,1,33,3,1,,,,,,,,,,,,,,
,,,,,,,,,,,right.png,,p,right,61153455405f1e389764b2a3,2021-10-27_13h08.39.317,arrow_simon_punish,2021.1.2,MacIntel,59.97361161,,,,,,,,,,,,,,p,1,1.5029,1.947199805,0,5,8,2,34,1,1,,,,,,,,,,,,,,
,,,,,,,,,,,left.png,,w,right,61153455405f1e389764b2a3,2021-10-27_13h08.39.317,arrow_simon_punish,2021.1.2,MacIntel,59.97361161,,,,,,,,,,,,,,p,0,1.4025,2.034923683,1,5,8,3,35,3,1,,,,,,,,,,,,,,
,,,,,,,,,,,left.png,,w,left,61153455405f1e389764b2a3,2021-10-27_13h08.39.317,arrow_simon_punish,2021.1.2,MacIntel,59.97361161,,,,,,,,,,,,,,w,1,1.4053,1.625782464,0,5,9,0,36,2,1,,,,,,,,,,,,,,
,,,,,,,,,,,right.png,,p,left,61153455405f1e389764b2a3,2021-10-27_13h08.39.317,arrow_simon_punish,2021.1.2,MacIntel,59.97361161,,,,,,,,,,,,,,p,1,1.5092,1.769077821,0,5,9,1,37,0,1,,,,,,,,,,,,,,
,,,,,,,,,,,left.png,,w,right,61153455405f1e389764b2a3,2021-10-27_13h08.39.317,arrow_simon_punish,2021.1.2,MacIntel,59.97361161,,,,,,,,,,,,,,w,1,1.5206,1.715940215,0,5,9,2,38,3,1,,,,,,,,,,,,,,
,,,,,,,,,,,left.png,,w,right,61153455405f1e389764b2a3,2021-10-27_13h08.39.317,arrow_simon_punish,2021.1.2,MacIntel,59.97361161,,,,,,,,,,,,,,w,1,1.3355,1.626689079,1,5,9,3,39,3,1,,,,,,,,,,,,,,
,,,,,,,,,,,right.png,,p,left,61153455405f1e389764b2a3,2021-10-27_13h08.39.317,arrow_simon_punish,2021.1.2,MacIntel,59.97361161,,,,,,,,,,,,,,p,1,1.5506,2.431503112,0,5,10,0,40,0,1,,,,,,,,,,,,,,
,,,,,,,,,,,right.png,,p,right,61153455405f1e389764b2a3,2021-10-27_13h08.39.317,arrow_simon_punish,2021.1.2,MacIntel,59.97361161,,,,,,,,,,,,,,p,1,1.5688,1.650138511,0,5,10,1,41,1,1,,,,,,,,,,,,,,
,,,,,,,,,,,right.png,,p,left,61153455405f1e389764b2a3,2021-10-27_13h08.39.317,arrow_simon_punish,2021.1.2,MacIntel,59.97361161,,,,,,,,,,,,,,p,1,1.4538,2.060721342,0,5,10,2,42,0,1,,,,,,,,,,,,,,
,,,,,,,,,,,left.png,,w,right,61153455405f1e389764b2a3,2021-10-27_13h08.39.317,arrow_simon_punish,2021.1.2,MacIntel,59.97361161,,,,,,,,,,,,,,w,1,1.5566,1.564540529,0,5,10,3,43,3,1,,,,,,,,,,,,,,
,,,,,,,,,,,left.png,,w,left,61153455405f1e389764b2a3,2021-10-27_13h08.39.317,arrow_simon_punish,2021.1.2,MacIntel,59.97361161,,,,,,,,,,,,,,w,1,1.6033,1.590985486,1,5,11,0,44,2,1,,,,,,,,,,,,,,
,,,,,,,,,,,left.png,,w,left,61153455405f1e389764b2a3,2021-10-27_13h08.39.317,arrow_simon_punish,2021.1.2,MacIntel,59.97361161,,,,,,,,,,,,,,p,0,1.6206,2.406780246,1,5,11,1,45,2,1,,,,,,,,,,,,,,
,,,,,,,,,,,left.png,,w,left,61153455405f1e389764b2a3,2021-10-27_13h08.39.317,arrow_simon_punish,2021.1.2,MacIntel,59.97361161,,,,,,,,,,,,,,p,0,1.4378,1.964672757,1,5,11,2,46,2,1,,,,,,,,,,,,,,
,,,,,,,,,,,left.png,,w,left,61153455405f1e389764b2a3,2021-10-27_13h08.39.317,arrow_simon_punish,2021.1.2,MacIntel,59.97361161,,,,,,,,,,,,,,w,1,1.8165,1.926272248,1,5,11,3,47,2,1,,,,,,,,,,,,,,
,,,,,,,,,,,right.png,,p,left,61153455405f1e389764b2a3,2021-10-27_13h08.39.317,arrow_simon_punish,2021.1.2,MacIntel,59.97361161,,,,,,,,,,,,,,p,1,1.6012,1.83193587,1,5,12,0,48,0,1,,,,,,,,,,,,,,
,,,,,,,,,,,right.png,,p,right,61153455405f1e389764b2a3,2021-10-27_13h08.39.317,arrow_simon_punish,2021.1.2,MacIntel,59.97361161,,,,,,,,,,,,,,p,1,1.4923,1.685845518,0,5,12,1,49,1,1,,,,,,,,,,,,,,
,,,,,,,,,,,left.png,,w,right,61153455405f1e389764b2a3,2021-10-27_13h08.39.317,arrow_simon_punish,2021.1.2,MacIntel,59.97361161,,,,,,,,,,,,,,p,0,1.4198,2.099860428,1,5,12,2,50,3,1,,,,,,,,,,,,,,
,,,,,,,,,,,right.png,,p,left,61153455405f1e389764b2a3,2021-10-27_13h08.39.317,arrow_simon_punish,2021.1.2,MacIntel,59.97361161,,,,,,,,,,,,,,p,1,1.4007,1.779282029,0,5,12,3,51,0,1,,,,,,,,,,,,,,
,,,,,,,,,,,right.png,,p,left,61153455405f1e389764b2a3,2021-10-27_13h08.39.317,arrow_simon_punish,2021.1.2,MacIntel,59.97361161,,,,,,,,,,,,,,p,1,1.3881,2.069003236,1,5,13,0,52,0,1,,,,,,,,,,,,,,
,,,,,,,,,,,left.png,,w,left,61153455405f1e389764b2a3,2021-10-27_13h08.39.317,arrow_simon_punish,2021.1.2,MacIntel,59.97361161,,,,,,,,,,,,,,w,1,1.3932,1.564352964,1,5,13,1,53,2,1,,,,,,,,,,,,,,
,,,,,,,,,,,right.png,,p,left,61153455405f1e389764b2a3,2021-10-27_13h08.39.317,arrow_simon_punish,2021.1.2,MacIntel,59.97361161,,,,,,,,,,,,,,p,1,1.3513,2.459696528,1,5,13,2,54,0,1,,,,,,,,,,,,,,
,,,,,,,,,,,right.png,,p,right,61153455405f1e389764b2a3,2021-10-27_13h08.39.317,arrow_simon_punish,2021.1.2,MacIntel,59.97361161,,,,,,,,,,,,,,p,1,1.428,1.93081057,0,5,13,3,55,1,1,,,,,,,,,,,,,,
,,,,,,,,,,,left.png,,w,left,61153455405f1e389764b2a3,2021-10-27_13h08.39.317,arrow_simon_punish,2021.1.2,MacIntel,59.97361161,,,,,,,,,,,,,,w,1,1.4066,1.634895752,0,5,14,0,56,2,1,,,,,,,,,,,,,,
,,,,,,,,,,,left.png,,w,right,61153455405f1e389764b2a3,2021-10-27_13h08.39.317,arrow_simon_punish,2021.1.2,MacIntel,59.97361161,,,,,,,,,,,,,,p,0,1.3323,2.012108092,1,5,14,1,57,3,1,,,,,,,,,,,,,,
,,,,,,,,,,,left.png,,w,left,61153455405f1e389764b2a3,2021-10-27_13h08.39.317,arrow_simon_punish,2021.1.2,MacIntel,59.97361161,,,,,,,,,,,,,,w,1,1.3176,1.638688969,1,5,14,2,58,2,1,,,,,,,,,,,,,,
,,,,,,,,,,,right.png,,p,right,61153455405f1e389764b2a3,2021-10-27_13h08.39.317,arrow_simon_punish,2021.1.2,MacIntel,59.97361161,,,,,,,,,,,,,,p,1,1.4398,2.310596179,0,5,14,3,59,1,1,,,,,,,,,,,,,,
,,,,,,,,,,,,,,,61153455405f1e389764b2a3,2021-10-27_13h08.39.317,arrow_simon_punish,2021.1.2,MacIntel,59.97361161,,,,,,,,,,,,,,,,,,,,,,,,,space,1.9119,7,2,1,5,1,1,5,,,,,
,,,,,,,,,,,left.png,,w,right,61153455405f1e389764b2a3,2021-10-27_13h08.39.317,arrow_simon_punish,2021.1.2,MacIntel,59.97361161,,,,,,,,,,,,,,p,0,2.0349,2.00370162,1,1,0,0,0,3,1,,,,,,,,,,,,,,
,,,,,,,,,,,left.png,,w,right,61153455405f1e389764b2a3,2021-10-27_13h08.39.317,arrow_simon_punish,2021.1.2,MacIntel,59.97361161,,,,,,,,,,,,,,p,0,1.4875,2.392307586,1,1,0,1,1,3,1,,,,,,,,,,,,,,
,,,,,,,,,,,left.png,,w,right,61153455405f1e389764b2a3,2021-10-27_13h08.39.317,arrow_simon_punish,2021.1.2,MacIntel,59.97361161,,,,,,,,,,,,,,w,1,1.3563,1.739606747,1,1,0,2,2,3,1,,,,,,,,,,,,,,
,,,,,,,,,,,right.png,,p,left,61153455405f1e389764b2a3,2021-10-27_13h08.39.317,arrow_simon_punish,2021.1.2,MacIntel,59.97361161,,,,,,,,,,,,,,p,1,1.2693,2.190275754,1,1,0,3,3,0,1,,,,,,,,,,,,,,
,,,,,,,,,,,right.png,,p,left,61153455405f1e389764b2a3,2021-10-27_13h08.39.317,arrow_simon_punish,2021.1.2,MacIntel,59.97361161,,,,,,,,,,,,,,p,1,1.4032,2.291551464,0,1,1,0,4,0,1,,,,,,,,,,,,,,
,,,,,,,,,,,left.png,,w,left,61153455405f1e389764b2a3,2021-10-27_13h08.39.317,arrow_simon_punish,2021.1.2,MacIntel,59.97361161,,,,,,,,,,,,,,w,1,1.4553,1.967712616,0,1,1,1,5,2,1,,,,,,,,,,,,,,
,,,,,,,,,,,right.png,,p,left,61153455405f1e389764b2a3,2021-10-27_13h08.39.317,arrow_simon_punish,2021.1.2,MacIntel,59.97361161,,,,,,,,,,,,,,p,1,1.4511,1.888226997,0,1,1,2,6,0,1,,,,,,,,,,,,,,
,,,,,,,,,,,right.png,,p,left,61153455405f1e389764b2a3,2021-10-27_13h08.39.317,arrow_simon_punish,2021.1.2,MacIntel,59.97361161,,,,,,,,,,,,,,p,1,1.3555,1.710838684,1,1,1,3,7,0,1,,,,,,,,,,,,,,
,,,,,,,,,,,left.png,,w,left,61153455405f1e389764b2a3,2021-10-27_13h08.39.317,arrow_simon_punish,2021.1.2,MacIntel,59.97361161,,,,,,,,,,,,,,p,0,1.4331,2.384365309,1,1,2,0,8,2,1,,,,,,,,,,,,,,
,,,,,,,,,,,left.png,,w,right,61153455405f1e389764b2a3,2021-10-27_13h08.39.317,arrow_simon_punish,2021.1.2,MacIntel,59.97361161,,,,,,,,,,,,,,w,1,1.3182,1.615081324,1,1,2,1,9,3,1,,,,,,,,,,,,,,
,,,,,,,,,,,left.png,,w,right,61153455405f1e389764b2a3,2021-10-27_13h08.39.317,arrow_simon_punish,2021.1.2,MacIntel,59.97361161,,,,,,,,,,,,,,p,0,1.5529,2.43543446,1,1,2,2,10,3,1,,,,,,,,,,,,,,
,,,,,,,,,,,right.png,,p,right,61153455405f1e389764b2a3,2021-10-27_13h08.39.317,arrow_simon_punish,2021.1.2,MacIntel,59.97361161,,,,,,,,,,,,,,p,1,1.5242,2.30072296,0,1,2,3,11,1,1,,,,,,,,,,,,,,
,,,,,,,,,,,left.png,,w,right,61153455405f1e389764b2a3,2021-10-27_13h08.39.317,arrow_simon_punish,2021.1.2,MacIntel,59.97361161,,,,,,,,,,,,,,p,0,1.4529,2.224092989,1,1,3,0,12,3,1,,,,,,,,,,,,,,
,,,,,,,,,,,right.png,,p,right,61153455405f1e389764b2a3,2021-10-27_13h08.39.317,arrow_simon_punish,2021.1.2,MacIntel,59.97361161,,,,,,,,,,,,,,p,1,1.3671,2.209387406,1,1,3,1,13,1,1,,,,,,,,,,,,,,
,,,,,,,,,,,left.png,,w,right,61153455405f1e389764b2a3,2021-10-27_13h08.39.317,arrow_simon_punish,2021.1.2,MacIntel,59.97361161,,,,,,,,,,,,,,p,0,1.2672,1.947163971,1,1,3,2,14,3,1,,,,,,,,,,,,,,
,,,,,,,,,,,right.png,,p,left,61153455405f1e389764b2a3,2021-10-27_13h08.39.317,arrow_simon_punish,2021.1.2,MacIntel,59.97361161,,,,,,,,,,,,,,p,1,1.4015,2.236727112,0,1,3,3,15,0,1,,,,,,,,,,,,,,
,,,,,,,,,,,left.png,,w,right,61153455405f1e389764b2a3,2021-10-27_13h08.39.317,arrow_simon_punish,2021.1.2,MacIntel,59.97361161,,,,,,,,,,,,,,p,0,1.371,1.897308896,1,1,4,0,16,3,1,,,,,,,,,,,,,,
,,,,,,,,,,,right.png,,p,right,61153455405f1e389764b2a3,2021-10-27_13h08.39.317,arrow_simon_punish,2021.1.2,MacIntel,59.97361161,,,,,,,,,,,,,,p,1,1.2905,1.797986166,1,1,4,1,17,1,1,,,,,,,,,,,,,,
,,,,,,,,,,,left.png,,w,left,61153455405f1e389764b2a3,2021-10-27_13h08.39.317,arrow_simon_punish,2021.1.2,MacIntel,59.97361161,,,,,,,,,,,,,,w,1,1.3688,1.803913212,1,1,4,2,18,2,1,,,,,,,,,,,,,,
,,,,,,,,,,,right.png,,p,right,61153455405f1e389764b2a3,2021-10-27_13h08.39.317,arrow_simon_punish,2021.1.2,MacIntel,59.97361161,,,,,,,,,,,,,,p,1,1.3171,1.635110648,1,1,4,3,19,1,1,,,,,,,,,,,,,,
,,,,,,,,,,,left.png,,w,left,61153455405f1e389764b2a3,2021-10-27_13h08.39.317,arrow_simon_punish,2021.1.2,MacIntel,59.97361161,,,,,,,,,,,,,,w,1,1.3664,1.735864544,1,1,5,0,20,2,1,,,,,,,,,,,,,,
,,,,,,,,,,,right.png,,p,right,61153455405f1e389764b2a3,2021-10-27_13h08.39.317,arrow_simon_punish,2021.1.2,MacIntel,59.97361161,,,,,,,,,,,,,,p,1,1.1327,2.263567748,1,1,5,1,21,1,1,,,,,,,,,,,,,,
,,,,,,,,,,,right.png,,p,right,61153455405f1e389764b2a3,2021-10-27_13h08.39.317,arrow_simon_punish,2021.1.2,MacIntel,59.97361161,,,,,,,,,,,,,,p,1,1.4541,2.116367754,0,1,5,2,22,1,1,,,,,,,,,,,,,,
,,,,,,,,,,,right.png,,p,right,61153455405f1e389764b2a3,2021-10-27_13h08.39.317,arrow_simon_punish,2021.1.2,MacIntel,59.97361161,,,,,,,,,,,,,,p,1,1.4227,2.16213515,0,1,5,3,23,1,1,,,,,,,,,,,,,,
,,,,,,,,,,,right.png,,p,right,61153455405f1e389764b2a3,2021-10-27_13h08.39.317,arrow_simon_punish,2021.1.2,MacIntel,59.97361161,,,,,,,,,,,,,,p,1,1.42,2.472162639,0,1,6,0,24,1,1,,,,,,,,,,,,,,
,,,,,,,,,,,left.png,,w,right,61153455405f1e389764b2a3,2021-10-27_13h08.39.317,arrow_simon_punish,2021.1.2,MacIntel,59.97361161,,,,,,,,,,,,,,p,0,1.4372,2.467235807,1,1,6,1,25,3,1,,,,,,,,,,,,,,
,,,,,,,,,,,left.png,,w,left,61153455405f1e389764b2a3,2021-10-27_13h08.39.317,arrow_simon_punish,2021.1.2,MacIntel,59.97361161,,,,,,,,,,,,,,p,0,1.4427,2.268175752,1,1,6,2,26,2,1,,,,,,,,,,,,,,
,,,,,,,,,,,right.png,,p,right,61153455405f1e389764b2a3,2021-10-27_13h08.39.317,arrow_simon_punish,2021.1.2,MacIntel,59.97361161,,,,,,,,,,,,,,p,1,1.3192,1.767693734,1,1,6,3,27,1,1,,,,,,,,,,,,,,
,,,,,,,,,,,left.png,,w,right,61153455405f1e389764b2a3,2021-10-27_13h08.39.317,arrow_simon_punish,2021.1.2,MacIntel,59.97361161,,,,,,,,,,,,,,w,1,1.4097,1.692557256,0,1,7,0,28,3,1,,,,,,,,,,,,,,
,,,,,,,,,,,right.png,,p,left,61153455405f1e389764b2a3,2021-10-27_13h08.39.317,arrow_simon_punish,2021.1.2,MacIntel,59.97361161,,,,,,,,,,,,,,p,1,1.4491,2.428765429,0,1,7,1,29,0,1,,,,,,,,,,,,,,
,,,,,,,,,,,right.png,,p,right,61153455405f1e389764b2a3,2021-10-27_13h08.39.317,arrow_simon_punish,2021.1.2,MacIntel,59.97361161,,,,,,,,,,,,,,p,1,1.6512,2.417785654,1,1,7,2,30,1,1,,,,,,,,,,,,,,
,,,,,,,,,,,right.png,,p,left,61153455405f1e389764b2a3,2021-10-27_13h08.39.317,arrow_simon_punish,2021.1.2,MacIntel,59.97361161,,,,,,,,,,,,,,w,0,1.4017,2.291917203,1,1,7,3,31,0,1,,,,,,,,,,,,,,
,,,,,,,,,,,right.png,,p,left,61153455405f1e389764b2a3,2021-10-27_13h08.39.317,arrow_simon_punish,2021.1.2,MacIntel,59.97361161,,,,,,,,,,,,,,p,1,1.1739,1.541403476,1,1,8,0,32,0,1,,,,,,,,,,,,,,
,,,,,,,,,,,left.png,,w,left,61153455405f1e389764b2a3,2021-10-27_13h08.39.317,arrow_simon_punish,2021.1.2,MacIntel,59.97361161,,,,,,,,,,,,,,p,0,1.4509,2.328415026,1,1,8,1,33,2,1,,,,,,,,,,,,,,
,,,,,,,,,,,right.png,,p,left,61153455405f1e389764b2a3,2021-10-27_13h08.39.317,arrow_simon_punish,2021.1.2,MacIntel,59.97361161,,,,,,,,,,,,,,p,1,1.3566,1.64607517,1,1,8,2,34,0,1,,,,,,,,,,,,,,
,,,,,,,,,,,right.png,,p,right,61153455405f1e389764b2a3,2021-10-27_13h08.39.317,arrow_simon_punish,2021.1.2,MacIntel,59.97361161,,,,,,,,,,,,,,p,1,1.4229,1.912119629,0,1,8,3,35,1,1,,,,,,,,,,,,,,
,,,,,,,,,,,left.png,,w,right,61153455405f1e389764b2a3,2021-10-27_13h08.39.317,arrow_simon_punish,2021.1.2,MacIntel,59.97361161,,,,,,,,,,,,,,p,0,1.4573,2.395211775,1,1,9,0,36,3,1,,,,,,,,,,,,,,
,,,,,,,,,,,left.png,,w,right,61153455405f1e389764b2a3,2021-10-27_13h08.39.317,arrow_simon_punish,2021.1.2,MacIntel,59.97361161,,,,,,,,,,,,,,p,0,1.4055,2.445418115,1,1,9,1,37,3,1,,,,,,,,,,,,,,
,,,,,,,,,,,right.png,,p,right,61153455405f1e389764b2a3,2021-10-27_13h08.39.317,arrow_simon_punish,2021.1.2,MacIntel,59.97361161,,,,,,,,,,,,,,p,1,1.4348,1.861800294,0,1,9,2,38,1,1,,,,,,,,,,,,,,
,,,,,,,,,,,right.png,,p,right,61153455405f1e389764b2a3,2021-10-27_13h08.39.317,arrow_simon_punish,2021.1.2,MacIntel,59.97361161,,,,,,,,,,,,,,p,1,1.4033,1.9512368,0,1,9,3,39,1,1,,,,,,,,,,,,,,
,,,,,,,,,,,left.png,,w,left,61153455405f1e389764b2a3,2021-10-27_13h08.39.317,arrow_simon_punish,2021.1.2,MacIntel,59.97361161,,,,,,,,,,,,,,w,1,1.4671,1.642968201,0,1,10,0,40,2,1,,,,,,,,,,,,,,
,,,,,,,,,,,right.png,,p,right,61153455405f1e389764b2a3,2021-10-27_13h08.39.317,arrow_simon_punish,2021.1.2,MacIntel,59.97361161,,,,,,,,,,,,,,p,1,1.4201,2.161803164,0,1,10,1,41,1,1,,,,,,,,,,,,,,
,,,,,,,,,,,right.png,,p,left,61153455405f1e389764b2a3,2021-10-27_13h08.39.317,arrow_simon_punish,2021.1.2,MacIntel,59.97361161,,,,,,,,,,,,,,p,1,1.4395,1.945076325,0,1,10,2,42,0,1,,,,,,,,,,,,,,
,,,,,,,,,,,right.png,,p,left,61153455405f1e389764b2a3,2021-10-27_13h08.39.317,arrow_simon_punish,2021.1.2,MacIntel,59.97361161,,,,,,,,,,,,,,p,1,1.4382,1.905876591,0,1,10,3,43,0,1,,,,,,,,,,,,,,
,,,,,,,,,,,right.png,,p,left,61153455405f1e389764b2a3,2021-10-27_13h08.39.317,arrow_simon_punish,2021.1.2,MacIntel,59.97361161,,,,,,,,,,,,,,p,1,1.3848,1.988661662,1,1,11,0,44,0,1,,,,,,,,,,,,,,
,,,,,,,,,,,left.png,,w,left,61153455405f1e389764b2a3,2021-10-27_13h08.39.317,arrow_simon_punish,2021.1.2,MacIntel,59.97361161,,,,,,,,,,,,,,w,1,1.4857,1.658871264,0,1,11,1,45,2,1,,,,,,,,,,,,,,
,,,,,,,,,,,left.png,,w,left,61153455405f1e389764b2a3,2021-10-27_13h08.39.317,arrow_simon_punish,2021.1.2,MacIntel,59.97361161,,,,,,,,,,,,,,p,0,1.4662,2.131271048,1,1,11,2,46,2,1,,,,,,,,,,,,,,
,,,,,,,,,,,left.png,,w,left,61153455405f1e389764b2a3,2021-10-27_13h08.39.317,arrow_simon_punish,2021.1.2,MacIntel,59.97361161,,,,,,,,,,,,,,w,1,1.4335,1.802359879,0,1,11,3,47,2,1,,,,,,,,,,,,,,
,,,,,,,,,,,left.png,,w,left,61153455405f1e389764b2a3,2021-10-27_13h08.39.317,arrow_simon_punish,2021.1.2,MacIntel,59.97361161,,,,,,,,,,,,,,p,0,1.4513,2.266665682,1,1,12,0,48,2,1,,,,,,,,,,,,,,
,,,,,,,,,,,right.png,,p,right,61153455405f1e389764b2a3,2021-10-27_13h08.39.317,arrow_simon_punish,2021.1.2,MacIntel,59.97361161,,,,,,,,,,,,,,p,1,1.4341,1.732182087,0,1,12,1,49,1,1,,,,,,,,,,,,,,
,,,,,,,,,,,left.png,,w,left,61153455405f1e389764b2a3,2021-10-27_13h08.39.317,arrow_simon_punish,2021.1.2,MacIntel,59.97361161,,,,,,,,,,,,,,p,0,1.4336,2.181164603,1,1,12,2,50,2,1,,,,,,,,,,,,,,
,,,,,,,,,,,left.png,,w,right,61153455405f1e389764b2a3,2021-10-27_13h08.39.317,arrow_simon_punish,2021.1.2,MacIntel,59.97361161,,,,,,,,,,,,,,w,1,1.5016,1.511951795,0,1,12,3,51,3,1,,,,,,,,,,,,,,
,,,,,,,,,,,left.png,,w,left,61153455405f1e389764b2a3,2021-10-27_13h08.39.317,arrow_simon_punish,2021.1.2,MacIntel,59.97361161,,,,,,,,,,,,,,w,1,1.5187,1.92673263,0,1,13,0,52,2,1,,,,,,,,,,,,,,
,,,,,,,,,,,right.png,,p,left,61153455405f1e389764b2a3,2021-10-27_13h08.39.317,arrow_simon_punish,2021.1.2,MacIntel,59.97361161,,,,,,,,,,,,,,p,1,1.4996,2.381116302,0,1,13,1,53,0,1,,,,,,,,,,,,,,
,,,,,,,,,,,left.png,,w,right,61153455405f1e389764b2a3,2021-10-27_13h08.39.317,arrow_simon_punish,2021.1.2,MacIntel,59.97361161,,,,,,,,,,,,,,p,0,1.5012,2.426752381,1,1,13,2,54,3,1,,,,,,,,,,,,,,
,,,,,,,,,,,right.png,,p,left,61153455405f1e389764b2a3,2021-10-27_13h08.39.317,arrow_simon_punish,2021.1.2,MacIntel,59.97361161,,,,,,,,,,,,,,p,1,1.4248,2.003414395,0,1,13,3,55,0,1,,,,,,,,,,,,,,
,,,,,,,,,,,left.png,,w,left,61153455405f1e389764b2a3,2021-10-27_13h08.39.317,arrow_simon_punish,2021.1.2,MacIntel,59.97361161,,,,,,,,,,,,,,w,1,1.4193,1.849025695,0,1,14,0,56,2,1,,,,,,,,,,,,,,
,,,,,,,,,,,left.png,,w,right,61153455405f1e389764b2a3,2021-10-27_13h08.39.317,arrow_simon_punish,2021.1.2,MacIntel,59.97361161,,,,,,,,,,,,,,p,0,1.4514,2.40618666,1,1,14,1,57,3,1,,,,,,,,,,,,,,
,,,,,,,,,,,left.png,,w,left,61153455405f1e389764b2a3,2021-10-27_13h08.39.317,arrow_simon_punish,2021.1.2,MacIntel,59.97361161,,,,,,,,,,,,,,p,0,1.3551,2.03100199,1,1,14,2,58,2,1,,,,,,,,,,,,,,
,,,,,,,,,,,right.png,,p,left,61153455405f1e389764b2a3,2021-10-27_13h08.39.317,arrow_simon_punish,2021.1.2,MacIntel,59.97361161,,,,,,,,,,,,,,p,1,1.5225,2.123499209,0,1,14,3,59,0,1,,,,,,,,,,,,,,
,,,,,,,,,,,,,,,61153455405f1e389764b2a3,2021-10-27_13h08.39.317,arrow_simon_punish,2021.1.2,MacIntel,59.97361161,,,,,,,,,,,,,,,,,,,,,,,,,space,8.6038,8,3,0,6,0,1,1,,,,,
