instruct_resp_simon.keys,instruct_resp_simon.corr,instruct_resp_simon.rt,trial_resp_simon.keys,trial_resp_simon.corr,trial_resp_simon.rt,trials_train_simon.thisRepN,trials_train_simon.thisTrialN,trials_train_simon.thisN,trials_train_simon.thisIndex,trials_train_simon.ran,target_file,target_pos,target_resp,target_side,participant,date,expName,psychopyVersion,OS,frameRate,instruct_resp_timing.keys,instruct_resp_timing.corr,instruct_resp_timing.rt,trial_resp_timing.keys,trial_resp_timing.rt,trials_train_timing.thisRepN,trials_train_timing.thisTrialN,trials_train_timing.thisN,trials_train_timing.thisIndex,trials_train_timing.ran,instruct_resp.keys,instruct_resp.corr,instruct_resp.rt,trial_resp.keys,trial_resp.corr,trial_resp.rt,target_onset,err,pun,trials.thisRepN,trials.thisTrialN,trials.thisN,trials.thisIndex,trials.ran,block_note_resp.keys,block_note_resp.rt,block_num,blocks.thisRepN,blocks.thisTrialN,blocks.thisN,blocks.thisIndex,blocks.ran,punish,complete_resp.keys,complete_resp.rt,raffle_trial,raffle_err,raffle_rew
space,0,34.8802,p,0,1.4032,0,0,0,3,1,left.png,,w,right,611bef869f91f800ad3b193e,2021-10-22_17h15.57.692,arrow_simon_punish,2021.1.2,Win32,59.96641881,,,,,,,,,,,,,,,,,,,,,,,,,,,,,,,,,,,,,,
,,,p,1,1.0065,0,1,1,1,1,right.png,,p,right,611bef869f91f800ad3b193e,2021-10-22_17h15.57.692,arrow_simon_punish,2021.1.2,Win32,59.96641881,,,,,,,,,,,,,,,,,,,,,,,,,,,,,,,,,,,,,,
,,,w,1,1.398,0,2,2,2,1,left.png,,w,left,611bef869f91f800ad3b193e,2021-10-22_17h15.57.692,arrow_simon_punish,2021.1.2,Win32,59.96641881,,,,,,,,,,,,,,,,,,,,,,,,,,,,,,,,,,,,,,
,,,p,1,2.0485,0,3,3,0,1,right.png,,p,left,611bef869f91f800ad3b193e,2021-10-22_17h15.57.692,arrow_simon_punish,2021.1.2,Win32,59.96641881,,,,,,,,,,,,,,,,,,,,,,,,,,,,,,,,,,,,,,
,,,w,1,1.0525,1,0,4,3,1,left.png,,w,right,611bef869f91f800ad3b193e,2021-10-22_17h15.57.692,arrow_simon_punish,2021.1.2,Win32,59.96641881,,,,,,,,,,,,,,,,,,,,,,,,,,,,,,,,,,,,,,
,,,p,1,0.7862,1,1,5,0,1,right.png,,p,left,611bef869f91f800ad3b193e,2021-10-22_17h15.57.692,arrow_simon_punish,2021.1.2,Win32,59.96641881,,,,,,,,,,,,,,,,,,,,,,,,,,,,,,,,,,,,,,
,,,p,1,1.0499,1,2,6,1,1,right.png,,p,right,611bef869f91f800ad3b193e,2021-10-22_17h15.57.692,arrow_simon_punish,2021.1.2,Win32,59.96641881,,,,,,,,,,,,,,,,,,,,,,,,,,,,,,,,,,,,,,
,,,w,1,1.4152,1,3,7,2,1,left.png,,w,left,611bef869f91f800ad3b193e,2021-10-22_17h15.57.692,arrow_simon_punish,2021.1.2,Win32,59.96641881,,,,,,,,,,,,,,,,,,,,,,,,,,,,,,,,,,,,,,
,,,p,1,1.5671,2,0,8,0,1,right.png,,p,left,611bef869f91f800ad3b193e,2021-10-22_17h15.57.692,arrow_simon_punish,2021.1.2,Win32,59.96641881,,,,,,,,,,,,,,,,,,,,,,,,,,,,,,,,,,,,,,
,,,w,1,1.6484,2,1,9,2,1,left.png,,w,left,611bef869f91f800ad3b193e,2021-10-22_17h15.57.692,arrow_simon_punish,2021.1.2,Win32,59.96641881,,,,,,,,,,,,,,,,,,,,,,,,,,,,,,,,,,,,,,
,,,w,1,1.6486,2,2,10,3,1,left.png,,w,right,611bef869f91f800ad3b193e,2021-10-22_17h15.57.692,arrow_simon_punish,2021.1.2,Win32,59.96641881,,,,,,,,,,,,,,,,,,,,,,,,,,,,,,,,,,,,,,
,,,p,1,0.7491,2,3,11,1,1,right.png,,p,right,611bef869f91f800ad3b193e,2021-10-22_17h15.57.692,arrow_simon_punish,2021.1.2,Win32,59.96641881,,,,,,,,,,,,,,,,,,,,,,,,,,,,,,,,,,,,,,
,,,p,1,0.8668,3,0,12,1,1,right.png,,p,right,611bef869f91f800ad3b193e,2021-10-22_17h15.57.692,arrow_simon_punish,2021.1.2,Win32,59.96641881,,,,,,,,,,,,,,,,,,,,,,,,,,,,,,,,,,,,,,
,,,w,1,1.4677,3,1,13,3,1,left.png,,w,right,611bef869f91f800ad3b193e,2021-10-22_17h15.57.692,arrow_simon_punish,2021.1.2,Win32,59.96641881,,,,,,,,,,,,,,,,,,,,,,,,,,,,,,,,,,,,,,
,,,p,1,1.3139,3,2,14,0,1,right.png,,p,left,611bef869f91f800ad3b193e,2021-10-22_17h15.57.692,arrow_simon_punish,2021.1.2,Win32,59.96641881,,,,,,,,,,,,,,,,,,,,,,,,,,,,,,,,,,,,,,
,,,w,1,0.5879,3,3,15,2,1,left.png,,w,left,611bef869f91f800ad3b193e,2021-10-22_17h15.57.692,arrow_simon_punish,2021.1.2,Win32,59.96641881,,,,,,,,,,,,,,,,,,,,,,,,,,,,,,,,,,,,,,
,,,w,1,1.6045,4,0,16,3,1,left.png,,w,right,611bef869f91f800ad3b193e,2021-10-22_17h15.57.692,arrow_simon_punish,2021.1.2,Win32,59.96641881,,,,,,,,,,,,,,,,,,,,,,,,,,,,,,,,,,,,,,
,,,p,1,1.5249,4,1,17,0,1,right.png,,p,left,611bef869f91f800ad3b193e,2021-10-22_17h15.57.692,arrow_simon_punish,2021.1.2,Win32,59.96641881,,,,,,,,,,,,,,,,,,,,,,,,,,,,,,,,,,,,,,
,,,p,1,0.9995,4,2,18,1,1,right.png,,p,right,611bef869f91f800ad3b193e,2021-10-22_17h15.57.692,arrow_simon_punish,2021.1.2,Win32,59.96641881,,,,,,,,,,,,,,,,,,,,,,,,,,,,,,,,,,,,,,
,,,w,1,1.1682,4,3,19,2,1,left.png,,w,left,611bef869f91f800ad3b193e,2021-10-22_17h15.57.692,arrow_simon_punish,2021.1.2,Win32,59.96641881,,,,,,,,,,,,,,,,,,,,,,,,,,,,,,,,,,,,,,
,,,p,1,1.4098,5,0,20,0,1,right.png,,p,left,611bef869f91f800ad3b193e,2021-10-22_17h15.57.692,arrow_simon_punish,2021.1.2,Win32,59.96641881,,,,,,,,,,,,,,,,,,,,,,,,,,,,,,,,,,,,,,
,,,w,1,1.4969,5,1,21,2,1,left.png,,w,left,611bef869f91f800ad3b193e,2021-10-22_17h15.57.692,arrow_simon_punish,2021.1.2,Win32,59.96641881,,,,,,,,,,,,,,,,,,,,,,,,,,,,,,,,,,,,,,
,,,p,1,0.7175,5,2,22,1,1,right.png,,p,right,611bef869f91f800ad3b193e,2021-10-22_17h15.57.692,arrow_simon_punish,2021.1.2,Win32,59.96641881,,,,,,,,,,,,,,,,,,,,,,,,,,,,,,,,,,,,,,
,,,w,1,1.5673,5,3,23,3,1,left.png,,w,right,611bef869f91f800ad3b193e,2021-10-22_17h15.57.692,arrow_simon_punish,2021.1.2,Win32,59.96641881,,,,,,,,,,,,,,,,,,,,,,,,,,,,,,,,,,,,,,
,,,w,1,1.2169,6,0,24,2,1,left.png,,w,left,611bef869f91f800ad3b193e,2021-10-22_17h15.57.692,arrow_simon_punish,2021.1.2,Win32,59.96641881,,,,,,,,,,,,,,,,,,,,,,,,,,,,,,,,,,,,,,
,,,p,1,0.7852,6,1,25,1,1,right.png,,p,right,611bef869f91f800ad3b193e,2021-10-22_17h15.57.692,arrow_simon_punish,2021.1.2,Win32,59.96641881,,,,,,,,,,,,,,,,,,,,,,,,,,,,,,,,,,,,,,
,,,w,1,1.3309,6,2,26,3,1,left.png,,w,right,611bef869f91f800ad3b193e,2021-10-22_17h15.57.692,arrow_simon_punish,2021.1.2,Win32,59.96641881,,,,,,,,,,,,,,,,,,,,,,,,,,,,,,,,,,,,,,
,,,p,1,1.5643,6,3,27,0,1,right.png,,p,left,611bef869f91f800ad3b193e,2021-10-22_17h15.57.692,arrow_simon_punish,2021.1.2,Win32,59.96641881,,,,,,,,,,,,,,,,,,,,,,,,,,,,,,,,,,,,,,
,,,w,1,1.213,7,0,28,2,1,left.png,,w,left,611bef869f91f800ad3b193e,2021-10-22_17h15.57.692,arrow_simon_punish,2021.1.2,Win32,59.96641881,,,,,,,,,,,,,,,,,,,,,,,,,,,,,,,,,,,,,,
,,,p,1,1.5837,7,1,29,0,1,right.png,,p,left,611bef869f91f800ad3b193e,2021-10-22_17h15.57.692,arrow_simon_punish,2021.1.2,Win32,59.96641881,,,,,,,,,,,,,,,,,,,,,,,,,,,,,,,,,,,,,,
,,,p,1,1.1649,7,2,30,1,1,right.png,,p,right,611bef869f91f800ad3b193e,2021-10-22_17h15.57.692,arrow_simon_punish,2021.1.2,Win32,59.96641881,,,,,,,,,,,,,,,,,,,,,,,,,,,,,,,,,,,,,,
,,,w,1,1.4691,7,3,31,3,1,left.png,,w,right,611bef869f91f800ad3b193e,2021-10-22_17h15.57.692,arrow_simon_punish,2021.1.2,Win32,59.96641881,,,,,,,,,,,,,,,,,,,,,,,,,,,,,,,,,,,,,,
,,,p,1,0.8345,8,0,32,0,1,right.png,,p,left,611bef869f91f800ad3b193e,2021-10-22_17h15.57.692,arrow_simon_punish,2021.1.2,Win32,59.96641881,,,,,,,,,,,,,,,,,,,,,,,,,,,,,,,,,,,,,,
,,,w,1,1.4573,8,1,33,2,1,left.png,,w,left,611bef869f91f800ad3b193e,2021-10-22_17h15.57.692,arrow_simon_punish,2021.1.2,Win32,59.96641881,,,,,,,,,,,,,,,,,,,,,,,,,,,,,,,,,,,,,,
,,,w,1,1.1437,8,2,34,3,1,left.png,,w,right,611bef869f91f800ad3b193e,2021-10-22_17h15.57.692,arrow_simon_punish,2021.1.2,Win32,59.96641881,,,,,,,,,,,,,,,,,,,,,,,,,,,,,,,,,,,,,,
,,,p,1,1.098,8,3,35,1,1,right.png,,p,right,611bef869f91f800ad3b193e,2021-10-22_17h15.57.692,arrow_simon_punish,2021.1.2,Win32,59.96641881,,,,,,,,,,,,,,,,,,,,,,,,,,,,,,,,,,,,,,
,,,w,1,1.1806,9,0,36,2,1,left.png,,w,left,611bef869f91f800ad3b193e,2021-10-22_17h15.57.692,arrow_simon_punish,2021.1.2,Win32,59.96641881,,,,,,,,,,,,,,,,,,,,,,,,,,,,,,,,,,,,,,
,,,w,1,1.07,9,1,37,3,1,left.png,,w,right,611bef869f91f800ad3b193e,2021-10-22_17h15.57.692,arrow_simon_punish,2021.1.2,Win32,59.96641881,,,,,,,,,,,,,,,,,,,,,,,,,,,,,,,,,,,,,,
,,,p,1,1.2034,9,2,38,1,1,right.png,,p,right,611bef869f91f800ad3b193e,2021-10-22_17h15.57.692,arrow_simon_punish,2021.1.2,Win32,59.96641881,,,,,,,,,,,,,,,,,,,,,,,,,,,,,,,,,,,,,,
,,,w,0,1.0499,9,3,39,0,1,right.png,,p,left,611bef869f91f800ad3b193e,2021-10-22_17h15.57.692,arrow_simon_punish,2021.1.2,Win32,59.96641881,,,,,,,,,,,,,,,,,,,,,,,,,,,,,,,,,,,,,,
,,,,,,,,,,,,,,,611bef869f91f800ad3b193e,2021-10-22_17h15.57.692,arrow_simon_punish,2021.1.2,Win32,59.96641881,space,0,36.6248,p,3.211,0,0,0,0,1,,,,,,,,,,,,,,,,,,,,,,,,,,,,
,,,,,,,,,,,,,,,611bef869f91f800ad3b193e,2021-10-22_17h15.57.692,arrow_simon_punish,2021.1.2,Win32,59.96641881,,,,w,2.8035,1,0,1,0,1,,,,,,,,,,,,,,,,,,,,,,,,,,,,
,,,,,,,,,,,,,,,611bef869f91f800ad3b193e,2021-10-22_17h15.57.692,arrow_simon_punish,2021.1.2,Win32,59.96641881,,,,w,2.1406,2,0,2,0,1,,,,,,,,,,,,,,,,,,,,,,,,,,,,
,,,,,,,,,,,,,,,611bef869f91f800ad3b193e,2021-10-22_17h15.57.692,arrow_simon_punish,2021.1.2,Win32,59.96641881,,,,p,2.3186,3,0,3,0,1,,,,,,,,,,,,,,,,,,,,,,,,,,,,
,,,,,,,,,,,,,,,611bef869f91f800ad3b193e,2021-10-22_17h15.57.692,arrow_simon_punish,2021.1.2,Win32,59.96641881,,,,w,2.3948,4,0,4,0,1,,,,,,,,,,,,,,,,,,,,,,,,,,,,
,,,,,,,,,,,,,,,611bef869f91f800ad3b193e,2021-10-22_17h15.57.692,arrow_simon_punish,2021.1.2,Win32,59.96641881,,,,w,2.983,5,0,5,0,1,,,,,,,,,,,,,,,,,,,,,,,,,,,,
,,,,,,,,,,,,,,,611bef869f91f800ad3b193e,2021-10-22_17h15.57.692,arrow_simon_punish,2021.1.2,Win32,59.96641881,,,,w,2.3404,6,0,6,0,1,,,,,,,,,,,,,,,,,,,,,,,,,,,,
,,,,,,,,,,,,,,,611bef869f91f800ad3b193e,2021-10-22_17h15.57.692,arrow_simon_punish,2021.1.2,Win32,59.96641881,,,,p,2.5275,7,0,7,0,1,,,,,,,,,,,,,,,,,,,,,,,,,,,,
,,,,,,,,,,,,,,,611bef869f91f800ad3b193e,2021-10-22_17h15.57.692,arrow_simon_punish,2021.1.2,Win32,59.96641881,,,,p,2.5995,8,0,8,0,1,,,,,,,,,,,,,,,,,,,,,,,,,,,,
,,,,,,,,,,,,,,,611bef869f91f800ad3b193e,2021-10-22_17h15.57.692,arrow_simon_punish,2021.1.2,Win32,59.96641881,,,,p,2.633,9,0,9,0,1,,,,,,,,,,,,,,,,,,,,,,,,,,,,
,,,,,,,,,,,,,,,611bef869f91f800ad3b193e,2021-10-22_17h15.57.692,arrow_simon_punish,2021.1.2,Win32,59.96641881,,,,p,2.6745,10,0,10,0,1,,,,,,,,,,,,,,,,,,,,,,,,,,,,
,,,,,,,,,,,,,,,611bef869f91f800ad3b193e,2021-10-22_17h15.57.692,arrow_simon_punish,2021.1.2,Win32,59.96641881,,,,p,2.3057,11,0,11,0,1,,,,,,,,,,,,,,,,,,,,,,,,,,,,
,,,,,,,,,,,,,,,611bef869f91f800ad3b193e,2021-10-22_17h15.57.692,arrow_simon_punish,2021.1.2,Win32,59.96641881,,,,p,2.3496,12,0,12,0,1,,,,,,,,,,,,,,,,,,,,,,,,,,,,
,,,,,,,,,,,,,,,611bef869f91f800ad3b193e,2021-10-22_17h15.57.692,arrow_simon_punish,2021.1.2,Win32,59.96641881,,,,p,3.0162,13,0,13,0,1,,,,,,,,,,,,,,,,,,,,,,,,,,,,
,,,,,,,,,,,,,,,611bef869f91f800ad3b193e,2021-10-22_17h15.57.692,arrow_simon_punish,2021.1.2,Win32,59.96641881,,,,p,2.951,14,0,14,0,1,,,,,,,,,,,,,,,,,,,,,,,,,,,,
,,,,,,,,,,,,,,,611bef869f91f800ad3b193e,2021-10-22_17h15.57.692,arrow_simon_punish,2021.1.2,Win32,59.96641881,,,,p,2.7759,15,0,15,0,1,,,,,,,,,,,,,,,,,,,,,,,,,,,,
,,,,,,,,,,,,,,,611bef869f91f800ad3b193e,2021-10-22_17h15.57.692,arrow_simon_punish,2021.1.2,Win32,59.96641881,,,,p,2.4667,16,0,16,0,1,,,,,,,,,,,,,,,,,,,,,,,,,,,,
,,,,,,,,,,,,,,,611bef869f91f800ad3b193e,2021-10-22_17h15.57.692,arrow_simon_punish,2021.1.2,Win32,59.96641881,,,,p,2.4083,17,0,17,0,1,,,,,,,,,,,,,,,,,,,,,,,,,,,,
,,,,,,,,,,,,,,,611bef869f91f800ad3b193e,2021-10-22_17h15.57.692,arrow_simon_punish,2021.1.2,Win32,59.96641881,,,,p,2.4168,18,0,18,0,1,,,,,,,,,,,,,,,,,,,,,,,,,,,,
,,,,,,,,,,,,,,,611bef869f91f800ad3b193e,2021-10-22_17h15.57.692,arrow_simon_punish,2021.1.2,Win32,59.96641881,,,,p,2.4232,19,0,19,0,1,,,,,,,,,,,,,,,,,,,,,,,,,,,,
,,,,,,,,,,,,,,,611bef869f91f800ad3b193e,2021-10-22_17h15.57.692,arrow_simon_punish,2021.1.2,Win32,59.96641881,,,,p,2.4329,20,0,20,0,1,,,,,,,,,,,,,,,,,,,,,,,,,,,,
,,,,,,,,,,,,,,,611bef869f91f800ad3b193e,2021-10-22_17h15.57.692,arrow_simon_punish,2021.1.2,Win32,59.96641881,,,,p,2.3898,21,0,21,0,1,,,,,,,,,,,,,,,,,,,,,,,,,,,,
,,,,,,,,,,,,,,,611bef869f91f800ad3b193e,2021-10-22_17h15.57.692,arrow_simon_punish,2021.1.2,Win32,59.96641881,,,,p,2.3503,22,0,22,0,1,,,,,,,,,,,,,,,,,,,,,,,,,,,,
,,,,,,,,,,,,,,,611bef869f91f800ad3b193e,2021-10-22_17h15.57.692,arrow_simon_punish,2021.1.2,Win32,59.96641881,,,,p,2.5383,23,0,23,0,1,,,,,,,,,,,,,,,,,,,,,,,,,,,,
,,,,,,,,,,,,,,,611bef869f91f800ad3b193e,2021-10-22_17h15.57.692,arrow_simon_punish,2021.1.2,Win32,59.96641881,,,,p,2.7828,24,0,24,0,1,,,,,,,,,,,,,,,,,,,,,,,,,,,,
,,,,,,,,,,,,,,,611bef869f91f800ad3b193e,2021-10-22_17h15.57.692,arrow_simon_punish,2021.1.2,Win32,59.96641881,,,,p,2.5665,25,0,25,0,1,,,,,,,,,,,,,,,,,,,,,,,,,,,,
,,,,,,,,,,,,,,,611bef869f91f800ad3b193e,2021-10-22_17h15.57.692,arrow_simon_punish,2021.1.2,Win32,59.96641881,,,,p,2.6664,26,0,26,0,1,,,,,,,,,,,,,,,,,,,,,,,,,,,,
,,,,,,,,,,,,,,,611bef869f91f800ad3b193e,2021-10-22_17h15.57.692,arrow_simon_punish,2021.1.2,Win32,59.96641881,,,,p,2.3574,27,0,27,0,1,,,,,,,,,,,,,,,,,,,,,,,,,,,,
,,,,,,,,,,,,,,,611bef869f91f800ad3b193e,2021-10-22_17h15.57.692,arrow_simon_punish,2021.1.2,Win32,59.96641881,,,,p,2.4,28,0,28,0,1,,,,,,,,,,,,,,,,,,,,,,,,,,,,
,,,,,,,,,,,,,,,611bef869f91f800ad3b193e,2021-10-22_17h15.57.692,arrow_simon_punish,2021.1.2,Win32,59.96641881,,,,p,2.4889,29,0,29,0,1,,,,,,,,,,,,,,,,,,,,,,,,,,,,
,,,,,,,,,,,,,,,611bef869f91f800ad3b193e,2021-10-22_17h15.57.692,arrow_simon_punish,2021.1.2,Win32,59.96641881,,,,p,2.7353,30,0,30,0,1,,,,,,,,,,,,,,,,,,,,,,,,,,,,
,,,,,,,,,,,,,,,611bef869f91f800ad3b193e,2021-10-22_17h15.57.692,arrow_simon_punish,2021.1.2,Win32,59.96641881,,,,p,2.5679,31,0,31,0,1,,,,,,,,,,,,,,,,,,,,,,,,,,,,
,,,,,,,,,,,,,,,611bef869f91f800ad3b193e,2021-10-22_17h15.57.692,arrow_simon_punish,2021.1.2,Win32,59.96641881,,,,p,2.3826,32,0,32,0,1,,,,,,,,,,,,,,,,,,,,,,,,,,,,
,,,,,,,,,,,,,,,611bef869f91f800ad3b193e,2021-10-22_17h15.57.692,arrow_simon_punish,2021.1.2,Win32,59.96641881,,,,p,2.5337,33,0,33,0,1,,,,,,,,,,,,,,,,,,,,,,,,,,,,
,,,,,,,,,,,,,,,611bef869f91f800ad3b193e,2021-10-22_17h15.57.692,arrow_simon_punish,2021.1.2,Win32,59.96641881,,,,p,2.6163,34,0,34,0,1,,,,,,,,,,,,,,,,,,,,,,,,,,,,
,,,,,,,,,,,,,,,611bef869f91f800ad3b193e,2021-10-22_17h15.57.692,arrow_simon_punish,2021.1.2,Win32,59.96641881,,,,p,2.4541,35,0,35,0,1,,,,,,,,,,,,,,,,,,,,,,,,,,,,
,,,,,,,,,,,,,,,611bef869f91f800ad3b193e,2021-10-22_17h15.57.692,arrow_simon_punish,2021.1.2,Win32,59.96641881,,,,p,2.4916,36,0,36,0,1,,,,,,,,,,,,,,,,,,,,,,,,,,,,
,,,,,,,,,,,,,,,611bef869f91f800ad3b193e,2021-10-22_17h15.57.692,arrow_simon_punish,2021.1.2,Win32,59.96641881,,,,p,2.4828,37,0,37,0,1,,,,,,,,,,,,,,,,,,,,,,,,,,,,
,,,,,,,,,,,,,,,611bef869f91f800ad3b193e,2021-10-22_17h15.57.692,arrow_simon_punish,2021.1.2,Win32,59.96641881,,,,p,2.3898,38,0,38,0,1,,,,,,,,,,,,,,,,,,,,,,,,,,,,
,,,,,,,,,,,,,,,611bef869f91f800ad3b193e,2021-10-22_17h15.57.692,arrow_simon_punish,2021.1.2,Win32,59.96641881,,,,p,2.4829,39,0,39,0,1,,,,,,,,,,,,,,,,,,,,,,,,,,,,
,,,,,,,,,,,,,,,611bef869f91f800ad3b193e,2021-10-22_17h15.57.692,arrow_simon_punish,2021.1.2,Win32,59.96641881,,,,p,2.5165,40,0,40,0,1,,,,,,,,,,,,,,,,,,,,,,,,,,,,
,,,,,,,,,,,,,,,611bef869f91f800ad3b193e,2021-10-22_17h15.57.692,arrow_simon_punish,2021.1.2,Win32,59.96641881,,,,p,2.5688,41,0,41,0,1,,,,,,,,,,,,,,,,,,,,,,,,,,,,
,,,,,,,,,,,,,,,611bef869f91f800ad3b193e,2021-10-22_17h15.57.692,arrow_simon_punish,2021.1.2,Win32,59.96641881,,,,p,2.4737,42,0,42,0,1,,,,,,,,,,,,,,,,,,,,,,,,,,,,
,,,,,,,,,,,,,,,611bef869f91f800ad3b193e,2021-10-22_17h15.57.692,arrow_simon_punish,2021.1.2,Win32,59.96641881,,,,p,2.4996,43,0,43,0,1,,,,,,,,,,,,,,,,,,,,,,,,,,,,
,,,,,,,,,,,,,,,611bef869f91f800ad3b193e,2021-10-22_17h15.57.692,arrow_simon_punish,2021.1.2,Win32,59.96641881,,,,p,2.4368,44,0,44,0,1,,,,,,,,,,,,,,,,,,,,,,,,,,,,
,,,,,,,,,,,,,,,611bef869f91f800ad3b193e,2021-10-22_17h15.57.692,arrow_simon_punish,2021.1.2,Win32,59.96641881,,,,p,2.4762,45,0,45,0,1,,,,,,,,,,,,,,,,,,,,,,,,,,,,
,,,,,,,,,,,,,,,611bef869f91f800ad3b193e,2021-10-22_17h15.57.692,arrow_simon_punish,2021.1.2,Win32,59.96641881,,,,p,2.4831,46,0,46,0,1,,,,,,,,,,,,,,,,,,,,,,,,,,,,
,,,,,,,,,,,,,,,611bef869f91f800ad3b193e,2021-10-22_17h15.57.692,arrow_simon_punish,2021.1.2,Win32,59.96641881,,,,p,2.4873,47,0,47,0,1,,,,,,,,,,,,,,,,,,,,,,,,,,,,
,,,,,,,,,,,,,,,611bef869f91f800ad3b193e,2021-10-22_17h15.57.692,arrow_simon_punish,2021.1.2,Win32,59.96641881,,,,p,2.4752,48,0,48,0,1,,,,,,,,,,,,,,,,,,,,,,,,,,,,
,,,,,,,,,,,,,,,611bef869f91f800ad3b193e,2021-10-22_17h15.57.692,arrow_simon_punish,2021.1.2,Win32,59.96641881,,,,p,2.483,49,0,49,0,1,,,,,,,,,,,,,,,,,,,,,,,,,,,,
,,,,,,,,,,,,,,,611bef869f91f800ad3b193e,2021-10-22_17h15.57.692,arrow_simon_punish,2021.1.2,Win32,59.96641881,,,,p,2.4832,50,0,50,0,1,,,,,,,,,,,,,,,,,,,,,,,,,,,,
,,,,,,,,,,,,,,,611bef869f91f800ad3b193e,2021-10-22_17h15.57.692,arrow_simon_punish,2021.1.2,Win32,59.96641881,,,,p,2.4498,51,0,51,0,1,,,,,,,,,,,,,,,,,,,,,,,,,,,,
,,,,,,,,,,,,,,,611bef869f91f800ad3b193e,2021-10-22_17h15.57.692,arrow_simon_punish,2021.1.2,Win32,59.96641881,,,,p,2.5165,52,0,52,0,1,,,,,,,,,,,,,,,,,,,,,,,,,,,,
,,,,,,,,,,,,,,,611bef869f91f800ad3b193e,2021-10-22_17h15.57.692,arrow_simon_punish,2021.1.2,Win32,59.96641881,,,,p,2.4727,53,0,53,0,1,,,,,,,,,,,,,,,,,,,,,,,,,,,,
,,,,,,,,,,,,,,,611bef869f91f800ad3b193e,2021-10-22_17h15.57.692,arrow_simon_punish,2021.1.2,Win32,59.96641881,,,,p,2.6163,54,0,54,0,1,,,,,,,,,,,,,,,,,,,,,,,,,,,,
,,,,,,,,,,,,,,,611bef869f91f800ad3b193e,2021-10-22_17h15.57.692,arrow_simon_punish,2021.1.2,Win32,59.96641881,,,,p,2.533,55,0,55,0,1,,,,,,,,,,,,,,,,,,,,,,,,,,,,
,,,,,,,,,,,,,,,611bef869f91f800ad3b193e,2021-10-22_17h15.57.692,arrow_simon_punish,2021.1.2,Win32,59.96641881,,,,p,2.7008,56,0,56,0,1,,,,,,,,,,,,,,,,,,,,,,,,,,,,
,,,,,,,,,,,,,,,611bef869f91f800ad3b193e,2021-10-22_17h15.57.692,arrow_simon_punish,2021.1.2,Win32,59.96641881,,,,p,2.4164,57,0,57,0,1,,,,,,,,,,,,,,,,,,,,,,,,,,,,
,,,,,,,,,,,,,,,611bef869f91f800ad3b193e,2021-10-22_17h15.57.692,arrow_simon_punish,2021.1.2,Win32,59.96641881,,,,p,2.383,58,0,58,0,1,,,,,,,,,,,,,,,,,,,,,,,,,,,,
,,,,,,,,,,,,,,,611bef869f91f800ad3b193e,2021-10-22_17h15.57.692,arrow_simon_punish,2021.1.2,Win32,59.96641881,,,,p,2.5331,59,0,59,0,1,,,,,,,,,,,,,,,,,,,,,,,,,,,,
,,,,,,,,,,,left.png,,w,right,611bef869f91f800ad3b193e,2021-10-22_17h15.57.692,arrow_simon_punish,2021.1.2,Win32,59.96641881,,,,,,,,,,,space,0,49.6404,p,0,1.6304,2.300592159,1,1,0,0,0,3,1,,,,,,,,,,,,,,
,,,,,,,,,,,left.png,,w,right,611bef869f91f800ad3b193e,2021-10-22_17h15.57.692,arrow_simon_punish,2021.1.2,Win32,59.96641881,,,,,,,,,,,,,,w,1,1.5162,2.018767825,0,1,0,1,1,3,1,,,,,,,,,,,,,,
,,,,,,,,,,,left.png,,w,left,611bef869f91f800ad3b193e,2021-10-22_17h15.57.692,arrow_simon_punish,2021.1.2,Win32,59.96641881,,,,,,,,,,,,,,w,1,2.0377,2.431255075,1,1,0,2,2,2,1,,,,,,,,,,,,,,
,,,,,,,,,,,left.png,,w,left,611bef869f91f800ad3b193e,2021-10-22_17h15.57.692,arrow_simon_punish,2021.1.2,Win32,59.96641881,,,,,,,,,,,,,,w,1,1.5549,2.222354179,0,1,0,3,3,2,1,,,,,,,,,,,,,,
,,,,,,,,,,,right.png,,p,left,611bef869f91f800ad3b193e,2021-10-22_17h15.57.692,arrow_simon_punish,2021.1.2,Win32,59.96641881,,,,,,,,,,,,,,w,0,1.0946,1.556932986,1,1,1,0,4,0,1,,,,,,,,,,,,,,
,,,,,,,,,,,right.png,,p,left,611bef869f91f800ad3b193e,2021-10-22_17h15.57.692,arrow_simon_punish,2021.1.2,Win32,59.96641881,,,,,,,,,,,,,,w,0,1.8032,2.348681315,1,1,1,1,5,0,1,,,,,,,,,,,,,,
,,,,,,,,,,,right.png,,p,left,611bef869f91f800ad3b193e,2021-10-22_17h15.57.692,arrow_simon_punish,2021.1.2,Win32,59.96641881,,,,,,,,,,,,,,w,0,1.4106,1.994405806,1,1,1,2,6,0,1,,,,,,,,,,,,,,
,,,,,,,,,,,right.png,,p,left,611bef869f91f800ad3b193e,2021-10-22_17h15.57.692,arrow_simon_punish,2021.1.2,Win32,59.96641881,,,,,,,,,,,,,,w,0,1.2416,1.737373433,1,1,1,3,7,0,1,,,,,,,,,,,,,,
,,,,,,,,,,,right.png,,p,right,611bef869f91f800ad3b193e,2021-10-22_17h15.57.692,arrow_simon_punish,2021.1.2,Win32,59.96641881,,,,,,,,,,,,,,p,1,1.8176,2.400801174,1,1,2,0,8,1,1,,,,,,,,,,,,,,
,,,,,,,,,,,left.png,,w,right,611bef869f91f800ad3b193e,2021-10-22_17h15.57.692,arrow_simon_punish,2021.1.2,Win32,59.96641881,,,,,,,,,,,,,,p,0,1.4402,1.948889919,1,1,2,1,9,3,1,,,,,,,,,,,,,,
,,,,,,,,,,,right.png,,p,left,611bef869f91f800ad3b193e,2021-10-22_17h15.57.692,arrow_simon_punish,2021.1.2,Win32,59.96641881,,,,,,,,,,,,,,w,0,1.9745,2.467250305,1,1,2,2,10,0,1,,,,,,,,,,,,,,
,,,,,,,,,,,left.png,,w,right,611bef869f91f800ad3b193e,2021-10-22_17h15.57.692,arrow_simon_punish,2021.1.2,Win32,59.96641881,,,,,,,,,,,,,,p,0,1.3527,1.804503069,1,1,2,3,11,3,1,,,,,,,,,,,,,,
,,,,,,,,,,,left.png,,w,left,611bef869f91f800ad3b193e,2021-10-22_17h15.57.692,arrow_simon_punish,2021.1.2,Win32,59.96641881,,,,,,,,,,,,,,w,1,1.4734,2.062487915,0,1,3,0,12,2,1,,,,,,,,,,,,,,
,,,,,,,,,,,left.png,,w,left,611bef869f91f800ad3b193e,2021-10-22_17h15.57.692,arrow_simon_punish,2021.1.2,Win32,59.96641881,,,,,,,,,,,,,,w,1,1.4835,1.98655373,0,1,3,1,13,2,1,,,,,,,,,,,,,,
,,,,,,,,,,,right.png,,p,left,611bef869f91f800ad3b193e,2021-10-22_17h15.57.692,arrow_simon_punish,2021.1.2,Win32,59.96641881,,,,,,,,,,,,,,w,0,1.7242,2.03912943,1,1,3,2,14,0,1,,,,,,,,,,,,,,
,,,,,,,,,,,right.png,,p,left,611bef869f91f800ad3b193e,2021-10-22_17h15.57.692,arrow_simon_punish,2021.1.2,Win32,59.96641881,,,,,,,,,,,,,,w,0,1.8332,2.338752499,1,1,3,3,15,0,1,,,,,,,,,,,,,,
,,,,,,,,,,,right.png,,p,right,611bef869f91f800ad3b193e,2021-10-22_17h15.57.692,arrow_simon_punish,2021.1.2,Win32,59.96641881,,,,,,,,,,,,,,p,1,1.8048,2.215829741,1,1,4,0,16,1,1,,,,,,,,,,,,,,
,,,,,,,,,,,left.png,,w,left,611bef869f91f800ad3b193e,2021-10-22_17h15.57.692,arrow_simon_punish,2021.1.2,Win32,59.96641881,,,,,,,,,,,,,,w,1,1.6857,2.261117495,1,1,4,1,17,2,1,,,,,,,,,,,,,,
,,,,,,,,,,,right.png,,p,left,611bef869f91f800ad3b193e,2021-10-22_17h15.57.692,arrow_simon_punish,2021.1.2,Win32,59.96641881,,,,,,,,,,,,,,w,0,1.4893,1.873460141,1,1,4,2,18,0,1,,,,,,,,,,,,,,
,,,,,,,,,,,right.png,,p,right,611bef869f91f800ad3b193e,2021-10-22_17h15.57.692,arrow_simon_punish,2021.1.2,Win32,59.96641881,,,,,,,,,,,,,,p,1,1.1254,1.71345178,1,1,4,3,19,1,1,,,,,,,,,,,,,,
,,,,,,,,,,,right.png,,p,right,611bef869f91f800ad3b193e,2021-10-22_17h15.57.692,arrow_simon_punish,2021.1.2,Win32,59.96641881,,,,,,,,,,,,,,p,1,1.4835,2.025165132,0,1,5,0,20,1,1,,,,,,,,,,,,,,
,,,,,,,,,,,left.png,,w,right,611bef869f91f800ad3b193e,2021-10-22_17h15.57.692,arrow_simon_punish,2021.1.2,Win32,59.96641881,,,,,,,,,,,,,,w,1,1.6175,2.033436272,1,1,5,1,21,3,1,,,,,,,,,,,,,,
,,,,,,,,,,,left.png,,w,left,611bef869f91f800ad3b193e,2021-10-22_17h15.57.692,arrow_simon_punish,2021.1.2,Win32,59.96641881,,,,,,,,,,,,,,w,1,1.3087,1.770105843,1,1,5,2,22,2,1,,,,,,,,,,,,,,
,,,,,,,,,,,left.png,,w,right,611bef869f91f800ad3b193e,2021-10-22_17h15.57.692,arrow_simon_punish,2021.1.2,Win32,59.96641881,,,,,,,,,,,,,,w,1,1.0341,1.546134665,1,1,5,3,23,3,1,,,,,,,,,,,,,,
,,,,,,,,,,,left.png,,w,right,611bef869f91f800ad3b193e,2021-10-22_17h15.57.692,arrow_simon_punish,2021.1.2,Win32,59.96641881,,,,,,,,,,,,,,p,0,1.3591,1.746909033,1,1,6,0,24,3,1,,,,,,,,,,,,,,
,,,,,,,,,,,left.png,,w,right,611bef869f91f800ad3b193e,2021-10-22_17h15.57.692,arrow_simon_punish,2021.1.2,Win32,59.96641881,,,,,,,,,,,,,,p,0,1.1336,1.587374333,1,1,6,1,25,3,1,,,,,,,,,,,,,,
,,,,,,,,,,,left.png,,w,left,611bef869f91f800ad3b193e,2021-10-22_17h15.57.692,arrow_simon_punish,2021.1.2,Win32,59.96641881,,,,,,,,,,,,,,w,1,1.7235,2.170438354,1,1,6,2,26,2,1,,,,,,,,,,,,,,
,,,,,,,,,,,left.png,,w,left,611bef869f91f800ad3b193e,2021-10-22_17h15.57.692,arrow_simon_punish,2021.1.2,Win32,59.96641881,,,,,,,,,,,,,,w,1,1.2066,1.596654065,1,1,6,3,27,2,1,,,,,,,,,,,,,,
,,,,,,,,,,,right.png,,p,left,611bef869f91f800ad3b193e,2021-10-22_17h15.57.692,arrow_simon_punish,2021.1.2,Win32,59.96641881,,,,,,,,,,,,,,p,1,1.45,1.524939524,0,1,7,0,28,0,1,,,,,,,,,,,,,,
,,,,,,,,,,,left.png,,w,right,611bef869f91f800ad3b193e,2021-10-22_17h15.57.692,arrow_simon_punish,2021.1.2,Win32,59.96641881,,,,,,,,,,,,,,w,1,1.5175,1.716318111,0,1,7,1,29,3,1,,,,,,,,,,,,,,
,,,,,,,,,,,right.png,,p,right,611bef869f91f800ad3b193e,2021-10-22_17h15.57.692,arrow_simon_punish,2021.1.2,Win32,59.96641881,,,,,,,,,,,,,,p,1,1.4074,1.858383925,0,1,7,2,30,1,1,,,,,,,,,,,,,,
,,,,,,,,,,,left.png,,w,left,611bef869f91f800ad3b193e,2021-10-22_17h15.57.692,arrow_simon_punish,2021.1.2,Win32,59.96641881,,,,,,,,,,,,,,w,1,1.5168,1.751099248,0,1,7,3,31,2,1,,,,,,,,,,,,,,
,,,,,,,,,,,left.png,,w,left,611bef869f91f800ad3b193e,2021-10-22_17h15.57.692,arrow_simon_punish,2021.1.2,Win32,59.96641881,,,,,,,,,,,,,,w,1,1.5003,1.874259135,0,1,8,0,32,2,1,,,,,,,,,,,,,,
,,,,,,,,,,,left.png,,w,right,611bef869f91f800ad3b193e,2021-10-22_17h15.57.692,arrow_simon_punish,2021.1.2,Win32,59.96641881,,,,,,,,,,,,,,w,1,1.5344,1.754685226,0,1,8,1,33,3,1,,,,,,,,,,,,,,
,,,,,,,,,,,left.png,,w,left,611bef869f91f800ad3b193e,2021-10-22_17h15.57.692,arrow_simon_punish,2021.1.2,Win32,59.96641881,,,,,,,,,,,,,,w,1,1.6501,2.121198134,1,1,8,2,34,2,1,,,,,,,,,,,,,,
,,,,,,,,,,,right.png,,p,left,611bef869f91f800ad3b193e,2021-10-22_17h15.57.692,arrow_simon_punish,2021.1.2,Win32,59.96641881,,,,,,,,,,,,,,w,0,1.7436,2.324918042,1,1,8,3,35,0,1,,,,,,,,,,,,,,
,,,,,,,,,,,left.png,,w,right,611bef869f91f800ad3b193e,2021-10-22_17h15.57.692,arrow_simon_punish,2021.1.2,Win32,59.96641881,,,,,,,,,,,,,,w,1,1.3693,1.514642136,1,1,9,0,36,3,1,,,,,,,,,,,,,,
,,,,,,,,,,,left.png,,w,left,611bef869f91f800ad3b193e,2021-10-22_17h15.57.692,arrow_simon_punish,2021.1.2,Win32,59.96641881,,,,,,,,,,,,,,w,1,2.0342,2.474195686,1,1,9,1,37,2,1,,,,,,,,,,,,,,
,,,,,,,,,,,left.png,,w,right,611bef869f91f800ad3b193e,2021-10-22_17h15.57.692,arrow_simon_punish,2021.1.2,Win32,59.96641881,,,,,,,,,,,,,,w,1,1.7166,2.08055526,1,1,9,2,38,3,1,,,,,,,,,,,,,,
,,,,,,,,,,,right.png,,p,right,611bef869f91f800ad3b193e,2021-10-22_17h15.57.692,arrow_simon_punish,2021.1.2,Win32,59.96641881,,,,,,,,,,,,,,p,1,1.9666,2.403341778,1,1,9,3,39,1,1,,,,,,,,,,,,,,
,,,,,,,,,,,right.png,,p,right,611bef869f91f800ad3b193e,2021-10-22_17h15.57.692,arrow_simon_punish,2021.1.2,Win32,59.96641881,,,,,,,,,,,,,,p,1,1.4377,1.838063984,0,1,10,0,40,1,1,,,,,,,,,,,,,,
,,,,,,,,,,,left.png,,w,right,611bef869f91f800ad3b193e,2021-10-22_17h15.57.692,arrow_simon_punish,2021.1.2,Win32,59.96641881,,,,,,,,,,,,,,w,1,1.5728,1.756617864,0,1,10,1,41,3,1,,,,,,,,,,,,,,
,,,,,,,,,,,right.png,,p,left,611bef869f91f800ad3b193e,2021-10-22_17h15.57.692,arrow_simon_punish,2021.1.2,Win32,59.96641881,,,,,,,,,,,,,,p,1,1.5407,1.835344701,0,1,10,2,42,0,1,,,,,,,,,,,,,,
,,,,,,,,,,,right.png,,p,right,611bef869f91f800ad3b193e,2021-10-22_17h15.57.692,arrow_simon_punish,2021.1.2,Win32,59.96641881,,,,,,,,,,,,,,p,1,2.0729,2.133313799,1,1,10,3,43,1,1,,,,,,,,,,,,,,
,,,,,,,,,,,right.png,,p,right,611bef869f91f800ad3b193e,2021-10-22_17h15.57.692,arrow_simon_punish,2021.1.2,Win32,59.96641881,,,,,,,,,,,,,,p,1,1.6548,1.982061318,1,1,11,0,44,1,1,,,,,,,,,,,,,,
,,,,,,,,,,,right.png,,p,right,611bef869f91f800ad3b193e,2021-10-22_17h15.57.692,arrow_simon_punish,2021.1.2,Win32,59.96641881,,,,,,,,,,,,,,p,1,1.5716,2.135828586,0,1,11,1,45,1,1,,,,,,,,,,,,,,
,,,,,,,,,,,right.png,,p,left,611bef869f91f800ad3b193e,2021-10-22_17h15.57.692,arrow_simon_punish,2021.1.2,Win32,59.96641881,,,,,,,,,,,,,,p,1,1.4603,1.58484633,0,1,11,2,46,0,1,,,,,,,,,,,,,,
,,,,,,,,,,,left.png,,w,right,611bef869f91f800ad3b193e,2021-10-22_17h15.57.692,arrow_simon_punish,2021.1.2,Win32,59.96641881,,,,,,,,,,,,,,w,1,1.5335,1.728823583,0,1,11,3,47,3,1,,,,,,,,,,,,,,
,,,,,,,,,,,right.png,,p,left,611bef869f91f800ad3b193e,2021-10-22_17h15.57.692,arrow_simon_punish,2021.1.2,Win32,59.96641881,,,,,,,,,,,,,,p,1,1.4854,1.720643993,0,1,12,0,48,0,1,,,,,,,,,,,,,,
,,,,,,,,,,,left.png,,w,right,611bef869f91f800ad3b193e,2021-10-22_17h15.57.692,arrow_simon_punish,2021.1.2,Win32,59.96641881,,,,,,,,,,,,,,w,1,1.4744,1.679528851,0,1,12,1,49,3,1,,,,,,,,,,,,,,
,,,,,,,,,,,left.png,,w,left,611bef869f91f800ad3b193e,2021-10-22_17h15.57.692,arrow_simon_punish,2021.1.2,Win32,59.96641881,,,,,,,,,,,,,,w,1,1.7685,2.106529831,1,1,12,2,50,2,1,,,,,,,,,,,,,,
,,,,,,,,,,,left.png,,w,left,611bef869f91f800ad3b193e,2021-10-22_17h15.57.692,arrow_simon_punish,2021.1.2,Win32,59.96641881,,,,,,,,,,,,,,w,1,1.4885,1.850705123,0,1,12,3,51,2,1,,,,,,,,,,,,,,
,,,,,,,,,,,right.png,,p,right,611bef869f91f800ad3b193e,2021-10-22_17h15.57.692,arrow_simon_punish,2021.1.2,Win32,59.96641881,,,,,,,,,,,,,,p,1,1.3009,1.695062707,1,1,13,0,52,1,1,,,,,,,,,,,,,,
,,,,,,,,,,,right.png,,p,left,611bef869f91f800ad3b193e,2021-10-22_17h15.57.692,arrow_simon_punish,2021.1.2,Win32,59.96641881,,,,,,,,,,,,,,p,1,1.5061,1.539927938,0,1,13,1,53,0,1,,,,,,,,,,,,,,
,,,,,,,,,,,right.png,,p,right,611bef869f91f800ad3b193e,2021-10-22_17h15.57.692,arrow_simon_punish,2021.1.2,Win32,59.96641881,,,,,,,,,,,,,,p,1,1.4928,1.82788831,0,1,13,2,54,1,1,,,,,,,,,,,,,,
,,,,,,,,,,,right.png,,p,right,611bef869f91f800ad3b193e,2021-10-22_17h15.57.692,arrow_simon_punish,2021.1.2,Win32,59.96641881,,,,,,,,,,,,,,p,1,1.8012,2.253735889,1,1,13,3,55,1,1,,,,,,,,,,,,,,
,,,,,,,,,,,right.png,,p,right,611bef869f91f800ad3b193e,2021-10-22_17h15.57.692,arrow_simon_punish,2021.1.2,Win32,59.96641881,,,,,,,,,,,,,,p,1,1.6667,2.203131159,1,1,14,0,56,1,1,,,,,,,,,,,,,,
,,,,,,,,,,,right.png,,p,left,611bef869f91f800ad3b193e,2021-10-22_17h15.57.692,arrow_simon_punish,2021.1.2,Win32,59.96641881,,,,,,,,,,,,,,p,1,1.7744,2.012519864,1,1,14,1,57,0,1,,,,,,,,,,,,,,
,,,,,,,,,,,right.png,,p,right,611bef869f91f800ad3b193e,2021-10-22_17h15.57.692,arrow_simon_punish,2021.1.2,Win32,59.96641881,,,,,,,,,,,,,,p,1,1.7845,2.197027031,1,1,14,2,58,1,1,,,,,,,,,,,,,,
,,,,,,,,,,,left.png,,w,left,611bef869f91f800ad3b193e,2021-10-22_17h15.57.692,arrow_simon_punish,2021.1.2,Win32,59.96641881,,,,,,,,,,,,,,w,1,1.474,1.916896042,0,1,14,3,59,2,1,,,,,,,,,,,,,,
,,,,,,,,,,,,,,,611bef869f91f800ad3b193e,2021-10-22_17h15.57.692,arrow_simon_punish,2021.1.2,Win32,59.96641881,,,,,,,,,,,,,,,,,,,,,,,,,space,27.2588,2,0,0,0,0,1,1,,,,,
,,,,,,,,,,,right.png,,p,left,611bef869f91f800ad3b193e,2021-10-22_17h15.57.692,arrow_simon_punish,2021.1.2,Win32,59.96641881,,,,,,,,,,,,,,w,0,1.5001,1.55112635,1,5,0,0,0,0,1,,,,,,,,,,,,,,
,,,,,,,,,,,left.png,,w,left,611bef869f91f800ad3b193e,2021-10-22_17h15.57.692,arrow_simon_punish,2021.1.2,Win32,59.96641881,,,,,,,,,,,,,,w,1,1.822,2.145109363,1,5,0,1,1,2,1,,,,,,,,,,,,,,
,,,,,,,,,,,left.png,,w,left,611bef869f91f800ad3b193e,2021-10-22_17h15.57.692,arrow_simon_punish,2021.1.2,Win32,59.96641881,,,,,,,,,,,,,,w,1,1.6222,2.213116606,1,5,0,2,2,2,1,,,,,,,,,,,,,,
,,,,,,,,,,,right.png,,p,right,611bef869f91f800ad3b193e,2021-10-22_17h15.57.692,arrow_simon_punish,2021.1.2,Win32,59.96641881,,,,,,,,,,,,,,p,1,1.2688,1.781560365,1,5,0,3,3,1,1,,,,,,,,,,,,,,
,,,,,,,,,,,left.png,,w,left,611bef869f91f800ad3b193e,2021-10-22_17h15.57.692,arrow_simon_punish,2021.1.2,Win32,59.96641881,,,,,,,,,,,,,,w,1,1.3621,1.955870395,1,5,1,0,4,2,1,,,,,,,,,,,,,,
,,,,,,,,,,,right.png,,p,left,611bef869f91f800ad3b193e,2021-10-22_17h15.57.692,arrow_simon_punish,2021.1.2,Win32,59.96641881,,,,,,,,,,,,,,w,0,1.5004,2.080128958,1,5,1,1,5,0,1,,,,,,,,,,,,,,
,,,,,,,,,,,left.png,,w,left,611bef869f91f800ad3b193e,2021-10-22_17h15.57.692,arrow_simon_punish,2021.1.2,Win32,59.96641881,,,,,,,,,,,,,,w,1,2.0673,2.494096901,1,5,1,2,6,2,1,,,,,,,,,,,,,,
,,,,,,,,,,,right.png,,p,right,611bef869f91f800ad3b193e,2021-10-22_17h15.57.692,arrow_simon_punish,2021.1.2,Win32,59.96641881,,,,,,,,,,,,,,p,1,1.8693,2.418781555,1,5,1,3,7,1,1,,,,,,,,,,,,,,
,,,,,,,,,,,right.png,,p,right,611bef869f91f800ad3b193e,2021-10-22_17h15.57.692,arrow_simon_punish,2021.1.2,Win32,59.96641881,,,,,,,,,,,,,,p,1,1.3502,1.697235592,1,5,2,0,8,1,1,,,,,,,,,,,,,,
,,,,,,,,,,,left.png,,w,left,611bef869f91f800ad3b193e,2021-10-22_17h15.57.692,arrow_simon_punish,2021.1.2,Win32,59.96641881,,,,,,,,,,,,,,w,1,1.6159,1.872568843,1,5,2,1,9,2,1,,,,,,,,,,,,,,
,,,,,,,,,,,left.png,,w,right,611bef869f91f800ad3b193e,2021-10-22_17h15.57.692,arrow_simon_punish,2021.1.2,Win32,59.96641881,,,,,,,,,,,,,,w,1,1.4839,1.536915233,0,5,2,2,10,3,1,,,,,,,,,,,,,,
,,,,,,,,,,,left.png,,w,left,611bef869f91f800ad3b193e,2021-10-22_17h15.57.692,arrow_simon_punish,2021.1.2,Win32,59.96641881,,,,,,,,,,,,,,w,1,2.0171,2.462994093,1,5,2,3,11,2,1,,,,,,,,,,,,,,
,,,,,,,,,,,left.png,,w,right,611bef869f91f800ad3b193e,2021-10-22_17h15.57.692,arrow_simon_punish,2021.1.2,Win32,59.96641881,,,,,,,,,,,,,,w,1,1.4395,1.728031051,0,5,3,0,12,3,1,,,,,,,,,,,,,,
,,,,,,,,,,,right.png,,p,right,611bef869f91f800ad3b193e,2021-10-22_17h15.57.692,arrow_simon_punish,2021.1.2,Win32,59.96641881,,,,,,,,,,,,,,p,1,1.4938,1.987161282,0,5,3,1,13,1,1,,,,,,,,,,,,,,
,,,,,,,,,,,right.png,,p,left,611bef869f91f800ad3b193e,2021-10-22_17h15.57.692,arrow_simon_punish,2021.1.2,Win32,59.96641881,,,,,,,,,,,,,,p,1,2.2837,2.448806853,1,5,3,2,14,0,1,,,,,,,,,,,,,,
,,,,,,,,,,,right.png,,p,right,611bef869f91f800ad3b193e,2021-10-22_17h15.57.692,arrow_simon_punish,2021.1.2,Win32,59.96641881,,,,,,,,,,,,,,p,1,1.7749,2.16544762,1,5,3,3,15,1,1,,,,,,,,,,,,,,
,,,,,,,,,,,right.png,,p,right,611bef869f91f800ad3b193e,2021-10-22_17h15.57.692,arrow_simon_punish,2021.1.2,Win32,59.96641881,,,,,,,,,,,,,,p,1,1.4006,1.788900435,0,5,4,0,16,1,1,,,,,,,,,,,,,,
,,,,,,,,,,,left.png,,w,right,611bef869f91f800ad3b193e,2021-10-22_17h15.57.692,arrow_simon_punish,2021.1.2,Win32,59.96641881,,,,,,,,,,,,,,w,1,1.3503,1.749174315,1,5,4,1,17,3,1,,,,,,,,,,,,,,
,,,,,,,,,,,left.png,,w,left,611bef869f91f800ad3b193e,2021-10-22_17h15.57.692,arrow_simon_punish,2021.1.2,Win32,59.96641881,,,,,,,,,,,,,,w,1,1.3381,1.723997011,1,5,4,2,18,2,1,,,,,,,,,,,,,,
,,,,,,,,,,,right.png,,p,left,611bef869f91f800ad3b193e,2021-10-22_17h15.57.692,arrow_simon_punish,2021.1.2,Win32,59.96641881,,,,,,,,,,,,,,p,1,1.9085,2.286610047,1,5,4,3,19,0,1,,,,,,,,,,,,,,
,,,,,,,,,,,right.png,,p,right,611bef869f91f800ad3b193e,2021-10-22_17h15.57.692,arrow_simon_punish,2021.1.2,Win32,59.96641881,,,,,,,,,,,,,,p,1,1.3852,1.571007707,1,5,5,0,20,1,1,,,,,,,,,,,,,,
,,,,,,,,,,,left.png,,w,left,611bef869f91f800ad3b193e,2021-10-22_17h15.57.692,arrow_simon_punish,2021.1.2,Win32,59.96641881,,,,,,,,,,,,,,w,1,1.5681,1.770274143,0,5,5,1,21,2,1,,,,,,,,,,,,,,
,,,,,,,,,,,right.png,,p,left,611bef869f91f800ad3b193e,2021-10-22_17h15.57.692,arrow_simon_punish,2021.1.2,Win32,59.96641881,,,,,,,,,,,,,,p,1,2.0505,2.384276637,1,5,5,2,22,0,1,,,,,,,,,,,,,,
,,,,,,,,,,,left.png,,w,right,611bef869f91f800ad3b193e,2021-10-22_17h15.57.692,arrow_simon_punish,2021.1.2,Win32,59.96641881,,,,,,,,,,,,,,w,1,2.0162,2.361154848,1,5,5,3,23,3,1,,,,,,,,,,,,,,
,,,,,,,,,,,right.png,,p,left,611bef869f91f800ad3b193e,2021-10-22_17h15.57.692,arrow_simon_punish,2021.1.2,Win32,59.96641881,,,,,,,,,,,,,,p,1,1.1681,1.527541143,1,5,6,0,24,0,1,,,,,,,,,,,,,,
,,,,,,,,,,,left.png,,w,left,611bef869f91f800ad3b193e,2021-10-22_17h15.57.692,arrow_simon_punish,2021.1.2,Win32,59.96641881,,,,,,,,,,,,,,w,1,2.2091,2.489894741,1,5,6,1,25,2,1,,,,,,,,,,,,,,
,,,,,,,,,,,left.png,,w,right,611bef869f91f800ad3b193e,2021-10-22_17h15.57.692,arrow_simon_punish,2021.1.2,Win32,59.96641881,,,,,,,,,,,,,,w,1,2.0167,2.331298919,1,5,6,2,26,3,1,,,,,,,,,,,,,,
,,,,,,,,,,,right.png,,p,right,611bef869f91f800ad3b193e,2021-10-22_17h15.57.692,arrow_simon_punish,2021.1.2,Win32,59.96641881,,,,,,,,,,,,,,p,1,1.1168,1.531261968,1,5,6,3,27,1,1,,,,,,,,,,,,,,
,,,,,,,,,,,right.png,,p,left,611bef869f91f800ad3b193e,2021-10-22_17h15.57.692,arrow_simon_punish,2021.1.2,Win32,59.96641881,,,,,,,,,,,,,,p,1,1.5501,1.903579988,0,5,7,0,28,0,1,,,,,,,,,,,,,,
,,,,,,,,,,,left.png,,w,right,611bef869f91f800ad3b193e,2021-10-22_17h15.57.692,arrow_simon_punish,2021.1.2,Win32,59.96641881,,,,,,,,,,,,,,w,1,1.6669,1.741188137,1,5,7,1,29,3,1,,,,,,,,,,,,,,
,,,,,,,,,,,left.png,,w,right,611bef869f91f800ad3b193e,2021-10-22_17h15.57.692,arrow_simon_punish,2021.1.2,Win32,59.96641881,,,,,,,,,,,,,,w,1,1.8822,2.11922011,1,5,7,2,30,3,1,,,,,,,,,,,,,,
,,,,,,,,,,,right.png,,p,right,611bef869f91f800ad3b193e,2021-10-22_17h15.57.692,arrow_simon_punish,2021.1.2,Win32,59.96641881,,,,,,,,,,,,,,p,1,1.4722,1.937034774,0,5,7,3,31,1,1,,,,,,,,,,,,,,
,,,,,,,,,,,right.png,,p,right,611bef869f91f800ad3b193e,2021-10-22_17h15.57.692,arrow_simon_punish,2021.1.2,Win32,59.96641881,,,,,,,,,,,,,,p,1,1.4001,1.936203293,0,5,8,0,32,1,1,,,,,,,,,,,,,,
,,,,,,,,,,,right.png,,p,left,611bef869f91f800ad3b193e,2021-10-22_17h15.57.692,arrow_simon_punish,2021.1.2,Win32,59.96641881,,,,,,,,,,,,,,p,1,1.8688,2.170996157,1,5,8,1,33,0,1,,,,,,,,,,,,,,
,,,,,,,,,,,left.png,,w,right,611bef869f91f800ad3b193e,2021-10-22_17h15.57.692,arrow_simon_punish,2021.1.2,Win32,59.96641881,,,,,,,,,,,,,,w,1,1.5856,1.548380511,0,5,8,2,34,3,1,,,,,,,,,,,,,,
,,,,,,,,,,,right.png,,p,left,611bef869f91f800ad3b193e,2021-10-22_17h15.57.692,arrow_simon_punish,2021.1.2,Win32,59.96641881,,,,,,,,,,,,,,p,1,1.5157,1.966255742,0,5,8,3,35,0,1,,,,,,,,,,,,,,
,,,,,,,,,,,right.png,,p,left,611bef869f91f800ad3b193e,2021-10-22_17h15.57.692,arrow_simon_punish,2021.1.2,Win32,59.96641881,,,,,,,,,,,,,,p,1,1.6233,2.088879563,1,5,9,0,36,0,1,,,,,,,,,,,,,,
,,,,,,,,,,,right.png,,p,right,611bef869f91f800ad3b193e,2021-10-22_17h15.57.692,arrow_simon_punish,2021.1.2,Win32,59.96641881,,,,,,,,,,,,,,p,1,1.4936,1.993914037,0,5,9,1,37,1,1,,,,,,,,,,,,,,
,,,,,,,,,,,right.png,,p,right,611bef869f91f800ad3b193e,2021-10-22_17h15.57.692,arrow_simon_punish,2021.1.2,Win32,59.96641881,,,,,,,,,,,,,,p,1,1.3547,1.758737352,1,5,9,2,38,1,1,,,,,,,,,,,,,,
,,,,,,,,,,,left.png,,w,left,611bef869f91f800ad3b193e,2021-10-22_17h15.57.692,arrow_simon_punish,2021.1.2,Win32,59.96641881,,,,,,,,,,,,,,w,1,1.8,2.282535059,1,5,9,3,39,2,1,,,,,,,,,,,,,,
,,,,,,,,,,,left.png,,w,left,611bef869f91f800ad3b193e,2021-10-22_17h15.57.692,arrow_simon_punish,2021.1.2,Win32,59.96641881,,,,,,,,,,,,,,w,1,1.8839,2.340429165,1,5,10,0,40,2,1,,,,,,,,,,,,,,
,,,,,,,,,,,right.png,,p,right,611bef869f91f800ad3b193e,2021-10-22_17h15.57.692,arrow_simon_punish,2021.1.2,Win32,59.96641881,,,,,,,,,,,,,,p,1,1.2835,1.619915762,1,5,10,1,41,1,1,,,,,,,,,,,,,,
,,,,,,,,,,,left.png,,w,right,611bef869f91f800ad3b193e,2021-10-22_17h15.57.692,arrow_simon_punish,2021.1.2,Win32,59.96641881,,,,,,,,,,,,,,w,1,2.1091,2.482788379,1,5,10,2,42,3,1,,,,,,,,,,,,,,
,,,,,,,,,,,right.png,,p,left,611bef869f91f800ad3b193e,2021-10-22_17h15.57.692,arrow_simon_punish,2021.1.2,Win32,59.96641881,,,,,,,,,,,,,,p,1,1.305,1.782112948,1,5,10,3,43,0,1,,,,,,,,,,,,,,
,,,,,,,,,,,left.png,,w,right,611bef869f91f800ad3b193e,2021-10-22_17h15.57.692,arrow_simon_punish,2021.1.2,Win32,59.96641881,,,,,,,,,,,,,,w,1,1.6057,1.613799981,1,5,11,0,44,3,1,,,,,,,,,,,,,,
,,,,,,,,,,,right.png,,p,right,611bef869f91f800ad3b193e,2021-10-22_17h15.57.692,arrow_simon_punish,2021.1.2,Win32,59.96641881,,,,,,,,,,,,,,p,1,1.5247,2.083550867,0,5,11,1,45,1,1,,,,,,,,,,,,,,
,,,,,,,,,,,left.png,,w,left,611bef869f91f800ad3b193e,2021-10-22_17h15.57.692,arrow_simon_punish,2021.1.2,Win32,59.96641881,,,,,,,,,,,,,,w,1,1.5445,1.890835511,0,5,11,2,46,2,1,,,,,,,,,,,,,,
,,,,,,,,,,,left.png,,w,right,611bef869f91f800ad3b193e,2021-10-22_17h15.57.692,arrow_simon_punish,2021.1.2,Win32,59.96641881,,,,,,,,,,,,,,p,0,1.7231,2.318587695,1,5,11,3,47,3,1,,,,,,,,,,,,,,
,,,,,,,,,,,right.png,,p,right,611bef869f91f800ad3b193e,2021-10-22_17h15.57.692,arrow_simon_punish,2021.1.2,Win32,59.96641881,,,,,,,,,,,,,,p,1,1.5573,1.728236773,0,5,12,0,48,1,1,,,,,,,,,,,,,,
,,,,,,,,,,,right.png,,p,left,611bef869f91f800ad3b193e,2021-10-22_17h15.57.692,arrow_simon_punish,2021.1.2,Win32,59.96641881,,,,,,,,,,,,,,p,1,1.5592,1.754448083,0,5,12,1,49,0,1,,,,,,,,,,,,,,
,,,,,,,,,,,left.png,,w,left,611bef869f91f800ad3b193e,2021-10-22_17h15.57.692,arrow_simon_punish,2021.1.2,Win32,59.96641881,,,,,,,,,,,,,,w,1,1.5171,1.599205857,0,5,12,2,50,2,1,,,,,,,,,,,,,,
,,,,,,,,,,,left.png,,w,right,611bef869f91f800ad3b193e,2021-10-22_17h15.57.692,arrow_simon_punish,2021.1.2,Win32,59.96641881,,,,,,,,,,,,,,w,1,1.5334,1.602057657,0,5,12,3,51,3,1,,,,,,,,,,,,,,
,,,,,,,,,,,left.png,,w,right,611bef869f91f800ad3b193e,2021-10-22_17h15.57.692,arrow_simon_punish,2021.1.2,Win32,59.96641881,,,,,,,,,,,,,,p,0,1.9508,2.285823778,1,5,13,0,52,3,1,,,,,,,,,,,,,,
,,,,,,,,,,,left.png,,w,right,611bef869f91f800ad3b193e,2021-10-22_17h15.57.692,arrow_simon_punish,2021.1.2,Win32,59.96641881,,,,,,,,,,,,,,w,1,1.7166,2.011635302,1,5,13,1,53,3,1,,,,,,,,,,,,,,
,,,,,,,,,,,right.png,,p,left,611bef869f91f800ad3b193e,2021-10-22_17h15.57.692,arrow_simon_punish,2021.1.2,Win32,59.96641881,,,,,,,,,,,,,,w,0,1.6501,2.183313772,1,5,13,2,54,0,1,,,,,,,,,,,,,,
,,,,,,,,,,,right.png,,p,left,611bef869f91f800ad3b193e,2021-10-22_17h15.57.692,arrow_simon_punish,2021.1.2,Win32,59.96641881,,,,,,,,,,,,,,p,1,1.5168,1.767123572,0,5,13,3,55,0,1,,,,,,,,,,,,,,
,,,,,,,,,,,left.png,,w,left,611bef869f91f800ad3b193e,2021-10-22_17h15.57.692,arrow_simon_punish,2021.1.2,Win32,59.96641881,,,,,,,,,,,,,,w,1,1.5016,1.557758417,0,5,14,0,56,2,1,,,,,,,,,,,,,,
,,,,,,,,,,,left.png,,w,left,611bef869f91f800ad3b193e,2021-10-22_17h15.57.692,arrow_simon_punish,2021.1.2,Win32,59.96641881,,,,,,,,,,,,,,w,1,1.5051,1.552286206,0,5,14,1,57,2,1,,,,,,,,,,,,,,
,,,,,,,,,,,right.png,,p,left,611bef869f91f800ad3b193e,2021-10-22_17h15.57.692,arrow_simon_punish,2021.1.2,Win32,59.96641881,,,,,,,,,,,,,,p,1,1.6529,1.929499407,1,5,14,2,58,0,1,,,,,,,,,,,,,,
,,,,,,,,,,,left.png,,w,right,611bef869f91f800ad3b193e,2021-10-22_17h15.57.692,arrow_simon_punish,2021.1.2,Win32,59.96641881,,,,,,,,,,,,,,w,1,2.0515,2.319460023,1,5,14,3,59,3,1,,,,,,,,,,,,,,
,,,,,,,,,,,,,,,611bef869f91f800ad3b193e,2021-10-22_17h15.57.692,arrow_simon_punish,2021.1.2,Win32,59.96641881,,,,,,,,,,,,,,,,,,,,,,,,,space,17.0632,3,0,1,1,1,1,5,,,,,
,,,,,,,,,,,right.png,,p,right,611bef869f91f800ad3b193e,2021-10-22_17h15.57.692,arrow_simon_punish,2021.1.2,Win32,59.96641881,,,,,,,,,,,,,,p,1,2.3831,1.590542653,1,1,0,0,0,1,1,,,,,,,,,,,,,,
,,,,,,,,,,,right.png,,p,left,611bef869f91f800ad3b193e,2021-10-22_17h15.57.692,arrow_simon_punish,2021.1.2,Win32,59.96641881,,,,,,,,,,,,,,p,1,1.9666,2.264495622,1,1,0,1,1,0,1,,,,,,,,,,,,,,
,,,,,,,,,,,right.png,,p,left,611bef869f91f800ad3b193e,2021-10-22_17h15.57.692,arrow_simon_punish,2021.1.2,Win32,59.96641881,,,,,,,,,,,,,,p,1,1.3893,1.541672365,1,1,0,2,2,0,1,,,,,,,,,,,,,,
,,,,,,,,,,,left.png,,w,right,611bef869f91f800ad3b193e,2021-10-22_17h15.57.692,arrow_simon_punish,2021.1.2,Win32,59.96641881,,,,,,,,,,,,,,w,1,1.5086,1.569579678,0,1,0,3,3,3,1,,,,,,,,,,,,,,
,,,,,,,,,,,left.png,,w,right,611bef869f91f800ad3b193e,2021-10-22_17h15.57.692,arrow_simon_punish,2021.1.2,Win32,59.96641881,,,,,,,,,,,,,,w,1,1.5502,1.679587271,0,1,1,0,4,3,1,,,,,,,,,,,,,,
,,,,,,,,,,,right.png,,p,left,611bef869f91f800ad3b193e,2021-10-22_17h15.57.692,arrow_simon_punish,2021.1.2,Win32,59.96641881,,,,,,,,,,,,,,p,1,1.6759,2.067352779,1,1,1,1,5,0,1,,,,,,,,,,,,,,
,,,,,,,,,,,left.png,,w,left,611bef869f91f800ad3b193e,2021-10-22_17h15.57.692,arrow_simon_punish,2021.1.2,Win32,59.96641881,,,,,,,,,,,,,,w,1,1.5601,2.257075326,0,1,1,2,6,2,1,,,,,,,,,,,,,,
,,,,,,,,,,,left.png,,w,left,611bef869f91f800ad3b193e,2021-10-22_17h15.57.692,arrow_simon_punish,2021.1.2,Win32,59.96641881,,,,,,,,,,,,,,w,1,1.517,1.761954285,0,1,1,3,7,2,1,,,,,,,,,,,,,,
,,,,,,,,,,,left.png,,w,right,611bef869f91f800ad3b193e,2021-10-22_17h15.57.692,arrow_simon_punish,2021.1.2,Win32,59.96641881,,,,,,,,,,,,,,p,0,1.517,1.6566383,1,1,2,0,8,3,1,,,,,,,,,,,,,,
,,,,,,,,,,,right.png,,p,right,611bef869f91f800ad3b193e,2021-10-22_17h15.57.692,arrow_simon_punish,2021.1.2,Win32,59.96641881,,,,,,,,,,,,,,p,1,1.618,1.703171493,1,1,2,1,9,1,1,,,,,,,,,,,,,,
,,,,,,,,,,,right.png,,p,right,611bef869f91f800ad3b193e,2021-10-22_17h15.57.692,arrow_simon_punish,2021.1.2,Win32,59.96641881,,,,,,,,,,,,,,p,1,1.4721,1.616857378,0,1,2,2,10,1,1,,,,,,,,,,,,,,
,,,,,,,,,,,left.png,,w,left,611bef869f91f800ad3b193e,2021-10-22_17h15.57.692,arrow_simon_punish,2021.1.2,Win32,59.96641881,,,,,,,,,,,,,,w,1,1.5413,1.935279522,0,1,2,3,11,2,1,,,,,,,,,,,,,,
,,,,,,,,,,,right.png,,p,right,611bef869f91f800ad3b193e,2021-10-22_17h15.57.692,arrow_simon_punish,2021.1.2,Win32,59.96641881,,,,,,,,,,,,,,p,1,1.5745,1.836747133,0,1,3,0,12,1,1,,,,,,,,,,,,,,
,,,,,,,,,,,right.png,,p,right,611bef869f91f800ad3b193e,2021-10-22_17h15.57.692,arrow_simon_punish,2021.1.2,Win32,59.96641881,,,,,,,,,,,,,,p,1,1.5761,1.614840823,0,1,3,1,13,1,1,,,,,,,,,,,,,,
,,,,,,,,,,,left.png,,w,left,611bef869f91f800ad3b193e,2021-10-22_17h15.57.692,arrow_simon_punish,2021.1.2,Win32,59.96641881,,,,,,,,,,,,,,w,1,1.7058,2.162308216,1,1,3,2,14,2,1,,,,,,,,,,,,,,
,,,,,,,,,,,right.png,,p,right,611bef869f91f800ad3b193e,2021-10-22_17h15.57.692,arrow_simon_punish,2021.1.2,Win32,59.96641881,,,,,,,,,,,,,,p,1,1.5569,1.937614003,0,1,3,3,15,1,1,,,,,,,,,,,,,,
,,,,,,,,,,,right.png,,p,left,611bef869f91f800ad3b193e,2021-10-22_17h15.57.692,arrow_simon_punish,2021.1.2,Win32,59.96641881,,,,,,,,,,,,,,p,1,1.5177,1.554190899,0,1,4,0,16,0,1,,,,,,,,,,,,,,
,,,,,,,,,,,left.png,,w,right,611bef869f91f800ad3b193e,2021-10-22_17h15.57.692,arrow_simon_punish,2021.1.2,Win32,59.96641881,,,,,,,,,,,,,,w,1,1.7543,2.144162177,1,1,4,1,17,3,1,,,,,,,,,,,,,,
,,,,,,,,,,,left.png,,w,left,611bef869f91f800ad3b193e,2021-10-22_17h15.57.692,arrow_simon_punish,2021.1.2,Win32,59.96641881,,,,,,,,,,,,,,w,1,1.5721,1.69893569,0,1,4,2,18,2,1,,,,,,,,,,,,,,
,,,,,,,,,,,left.png,,w,right,611bef869f91f800ad3b193e,2021-10-22_17h15.57.692,arrow_simon_punish,2021.1.2,Win32,59.96641881,,,,,,,,,,,,,,p,0,1.5572,2.16715849,1,1,4,3,19,3,1,,,,,,,,,,,,,,
,,,,,,,,,,,left.png,,w,left,611bef869f91f800ad3b193e,2021-10-22_17h15.57.692,arrow_simon_punish,2021.1.2,Win32,59.96641881,,,,,,,,,,,,,,w,1,1.7678,2.31128278,1,1,5,0,20,2,1,,,,,,,,,,,,,,
,,,,,,,,,,,right.png,,p,left,611bef869f91f800ad3b193e,2021-10-22_17h15.57.692,arrow_simon_punish,2021.1.2,Win32,59.96641881,,,,,,,,,,,,,,p,1,2.0333,2.412155061,1,1,5,1,21,0,1,,,,,,,,,,,,,,
,,,,,,,,,,,left.png,,w,right,611bef869f91f800ad3b193e,2021-10-22_17h15.57.692,arrow_simon_punish,2021.1.2,Win32,59.96641881,,,,,,,,,,,,,,w,1,1.6168,1.912999605,1,1,5,2,22,3,1,,,,,,,,,,,,,,
,,,,,,,,,,,left.png,,w,right,611bef869f91f800ad3b193e,2021-10-22_17h15.57.692,arrow_simon_punish,2021.1.2,Win32,59.96641881,,,,,,,,,,,,,,w,1,1.8711,2.347763118,1,1,5,3,23,3,1,,,,,,,,,,,,,,
,,,,,,,,,,,left.png,,w,left,611bef869f91f800ad3b193e,2021-10-22_17h15.57.692,arrow_simon_punish,2021.1.2,Win32,59.96641881,,,,,,,,,,,,,,w,1,1.5554,2.140169151,0,1,6,0,24,2,1,,,,,,,,,,,,,,
,,,,,,,,,,,left.png,,w,left,611bef869f91f800ad3b193e,2021-10-22_17h15.57.692,arrow_simon_punish,2021.1.2,Win32,59.96641881,,,,,,,,,,,,,,w,1,1.5083,1.988878112,0,1,6,1,25,2,1,,,,,,,,,,,,,,
,,,,,,,,,,,right.png,,p,right,611bef869f91f800ad3b193e,2021-10-22_17h15.57.692,arrow_simon_punish,2021.1.2,Win32,59.96641881,,,,,,,,,,,,,,p,1,1.8999,2.346316207,1,1,6,2,26,1,1,,,,,,,,,,,,,,
,,,,,,,,,,,left.png,,w,right,611bef869f91f800ad3b193e,2021-10-22_17h15.57.692,arrow_simon_punish,2021.1.2,Win32,59.96641881,,,,,,,,,,,,,,w,1,1.6932,2.189947011,1,1,6,3,27,3,1,,,,,,,,,,,,,,
,,,,,,,,,,,left.png,,w,left,611bef869f91f800ad3b193e,2021-10-22_17h15.57.692,arrow_simon_punish,2021.1.2,Win32,59.96641881,,,,,,,,,,,,,,w,1,1.6099,2.22572659,1,1,7,0,28,2,1,,,,,,,,,,,,,,
,,,,,,,,,,,right.png,,p,right,611bef869f91f800ad3b193e,2021-10-22_17h15.57.692,arrow_simon_punish,2021.1.2,Win32,59.96641881,,,,,,,,,,,,,,p,1,1.4836,2.021264093,0,1,7,1,29,1,1,,,,,,,,,,,,,,
,,,,,,,,,,,left.png,,w,right,611bef869f91f800ad3b193e,2021-10-22_17h15.57.692,arrow_simon_punish,2021.1.2,Win32,59.96641881,,,,,,,,,,,,,,w,1,1.5339,1.700833364,0,1,7,2,30,3,1,,,,,,,,,,,,,,
,,,,,,,,,,,right.png,,p,left,611bef869f91f800ad3b193e,2021-10-22_17h15.57.692,arrow_simon_punish,2021.1.2,Win32,59.96641881,,,,,,,,,,,,,,p,1,1.6007,1.937176909,1,1,7,3,31,0,1,,,,,,,,,,,,,,
,,,,,,,,,,,right.png,,p,right,611bef869f91f800ad3b193e,2021-10-22_17h15.57.692,arrow_simon_punish,2021.1.2,Win32,59.96641881,,,,,,,,,,,,,,p,1,1.6506,2.192519951,1,1,8,0,32,1,1,,,,,,,,,,,,,,
,,,,,,,,,,,right.png,,p,left,611bef869f91f800ad3b193e,2021-10-22_17h15.57.692,arrow_simon_punish,2021.1.2,Win32,59.96641881,,,,,,,,,,,,,,w,0,1.807,2.463208532,1,1,8,1,33,0,1,,,,,,,,,,,,,,
,,,,,,,,,,,left.png,,w,right,611bef869f91f800ad3b193e,2021-10-22_17h15.57.692,arrow_simon_punish,2021.1.2,Win32,59.96641881,,,,,,,,,,,,,,w,1,1.734,2.211314259,1,1,8,2,34,3,1,,,,,,,,,,,,,,
,,,,,,,,,,,right.png,,p,right,611bef869f91f800ad3b193e,2021-10-22_17h15.57.692,arrow_simon_punish,2021.1.2,Win32,59.96641881,,,,,,,,,,,,,,p,1,1.4247,1.600962503,0,1,8,3,35,1,1,,,,,,,,,,,,,,
,,,,,,,,,,,right.png,,p,right,611bef869f91f800ad3b193e,2021-10-22_17h15.57.692,arrow_simon_punish,2021.1.2,Win32,59.96641881,,,,,,,,,,,,,,p,1,1.7995,2.349605119,1,1,9,0,36,1,1,,,,,,,,,,,,,,
,,,,,,,,,,,right.png,,p,left,611bef869f91f800ad3b193e,2021-10-22_17h15.57.692,arrow_simon_punish,2021.1.2,Win32,59.96641881,,,,,,,,,,,,,,p,1,1.6666,1.962004,1,1,9,1,37,0,1,,,,,,,,,,,,,,
,,,,,,,,,,,right.png,,p,right,611bef869f91f800ad3b193e,2021-10-22_17h15.57.692,arrow_simon_punish,2021.1.2,Win32,59.96641881,,,,,,,,,,,,,,p,1,1.4222,1.744582325,0,1,9,2,38,1,1,,,,,,,,,,,,,,
,,,,,,,,,,,left.png,,w,left,611bef869f91f800ad3b193e,2021-10-22_17h15.57.692,arrow_simon_punish,2021.1.2,Win32,59.96641881,,,,,,,,,,,,,,w,1,1.5726,1.883404543,0,1,9,3,39,2,1,,,,,,,,,,,,,,
,,,,,,,,,,,right.png,,p,left,611bef869f91f800ad3b193e,2021-10-22_17h15.57.692,arrow_simon_punish,2021.1.2,Win32,59.96641881,,,,,,,,,,,,,,p,1,1.45,1.622764152,0,1,10,0,40,0,1,,,,,,,,,,,,,,
,,,,,,,,,,,left.png,,w,left,611bef869f91f800ad3b193e,2021-10-22_17h15.57.692,arrow_simon_punish,2021.1.2,Win32,59.96641881,,,,,,,,,,,,,,w,1,1.5501,1.841244028,0,1,10,1,41,2,1,,,,,,,,,,,,,,
,,,,,,,,,,,left.png,,w,left,611bef869f91f800ad3b193e,2021-10-22_17h15.57.692,arrow_simon_punish,2021.1.2,Win32,59.96641881,,,,,,,,,,,,,,w,1,1.5666,2.080105917,0,1,10,2,42,2,1,,,,,,,,,,,,,,
,,,,,,,,,,,right.png,,p,left,611bef869f91f800ad3b193e,2021-10-22_17h15.57.692,arrow_simon_punish,2021.1.2,Win32,59.96641881,,,,,,,,,,,,,,p,1,1.7581,1.999284428,1,1,10,3,43,0,1,,,,,,,,,,,,,,
,,,,,,,,,,,left.png,,w,left,611bef869f91f800ad3b193e,2021-10-22_17h15.57.692,arrow_simon_punish,2021.1.2,Win32,59.96641881,,,,,,,,,,,,,,p,0,1.7382,2.41968962,1,1,11,0,44,2,1,,,,,,,,,,,,,,
,,,,,,,,,,,left.png,,w,right,611bef869f91f800ad3b193e,2021-10-22_17h15.57.692,arrow_simon_punish,2021.1.2,Win32,59.96641881,,,,,,,,,,,,,,w,1,1.9709,2.288804268,1,1,11,1,45,3,1,,,,,,,,,,,,,,
,,,,,,,,,,,right.png,,p,right,611bef869f91f800ad3b193e,2021-10-22_17h15.57.692,arrow_simon_punish,2021.1.2,Win32,59.96641881,,,,,,,,,,,,,,p,1,1.4606,1.737604955,0,1,11,2,46,1,1,,,,,,,,,,,,,,
,,,,,,,,,,,right.png,,p,right,611bef869f91f800ad3b193e,2021-10-22_17h15.57.692,arrow_simon_punish,2021.1.2,Win32,59.96641881,,,,,,,,,,,,,,p,1,1.6749,2.26113361,1,1,11,3,47,1,1,,,,,,,,,,,,,,
,,,,,,,,,,,right.png,,p,left,611bef869f91f800ad3b193e,2021-10-22_17h15.57.692,arrow_simon_punish,2021.1.2,Win32,59.96641881,,,,,,,,,,,,,,p,1,1.8166,2.210049029,1,1,12,0,48,0,1,,,,,,,,,,,,,,
,,,,,,,,,,,left.png,,w,right,611bef869f91f800ad3b193e,2021-10-22_17h15.57.692,arrow_simon_punish,2021.1.2,Win32,59.96641881,,,,,,,,,,,,,,w,1,2.05,2.442675381,1,1,12,1,49,3,1,,,,,,,,,,,,,,
,,,,,,,,,,,left.png,,w,right,611bef869f91f800ad3b193e,2021-10-22_17h15.57.692,arrow_simon_punish,2021.1.2,Win32,59.96641881,,,,,,,,,,,,,,w,1,1.3258,1.527706149,1,1,12,2,50,3,1,,,,,,,,,,,,,,
,,,,,,,,,,,right.png,,p,left,611bef869f91f800ad3b193e,2021-10-22_17h15.57.692,arrow_simon_punish,2021.1.2,Win32,59.96641881,,,,,,,,,,,,,,w,0,1.6718,2.311573654,1,1,12,3,51,0,1,,,,,,,,,,,,,,
,,,,,,,,,,,right.png,,p,left,611bef869f91f800ad3b193e,2021-10-22_17h15.57.692,arrow_simon_punish,2021.1.2,Win32,59.96641881,,,,,,,,,,,,,,p,1,1.4502,1.849853113,0,1,13,0,52,0,1,,,,,,,,,,,,,,
,,,,,,,,,,,right.png,,p,left,611bef869f91f800ad3b193e,2021-10-22_17h15.57.692,arrow_simon_punish,2021.1.2,Win32,59.96641881,,,,,,,,,,,,,,p,1,1.724,2.197270318,1,1,13,1,53,0,1,,,,,,,,,,,,,,
,,,,,,,,,,,right.png,,p,right,611bef869f91f800ad3b193e,2021-10-22_17h15.57.692,arrow_simon_punish,2021.1.2,Win32,59.96641881,,,,,,,,,,,,,,p,1,1.5421,1.515825749,0,1,13,2,54,1,1,,,,,,,,,,,,,,
,,,,,,,,,,,right.png,,p,left,611bef869f91f800ad3b193e,2021-10-22_17h15.57.692,arrow_simon_punish,2021.1.2,Win32,59.96641881,,,,,,,,,,,,,,p,1,1.4668,1.705190191,0,1,13,3,55,0,1,,,,,,,,,,,,,,
,,,,,,,,,,,left.png,,w,left,611bef869f91f800ad3b193e,2021-10-22_17h15.57.692,arrow_simon_punish,2021.1.2,Win32,59.96641881,,,,,,,,,,,,,,w,1,1.5668,1.606060188,0,1,14,0,56,2,1,,,,,,,,,,,,,,
,,,,,,,,,,,left.png,,w,right,611bef869f91f800ad3b193e,2021-10-22_17h15.57.692,arrow_simon_punish,2021.1.2,Win32,59.96641881,,,,,,,,,,,,,,w,1,1.7001,2.099667196,1,1,14,1,57,3,1,,,,,,,,,,,,,,
,,,,,,,,,,,left.png,,w,left,611bef869f91f800ad3b193e,2021-10-22_17h15.57.692,arrow_simon_punish,2021.1.2,Win32,59.96641881,,,,,,,,,,,,,,w,1,1.5668,1.905832632,0,1,14,2,58,2,1,,,,,,,,,,,,,,
,,,,,,,,,,,left.png,,w,right,611bef869f91f800ad3b193e,2021-10-22_17h15.57.692,arrow_simon_punish,2021.1.2,Win32,59.96641881,,,,,,,,,,,,,,w,1,1.725,2.261602139,1,1,14,3,59,3,1,,,,,,,,,,,,,,
,,,,,,,,,,,,,,,611bef869f91f800ad3b193e,2021-10-22_17h15.57.692,arrow_simon_punish,2021.1.2,Win32,59.96641881,,,,,,,,,,,,,,,,,,,,,,,,,space,15.9975,4,1,0,2,0,1,1,,,,,
,,,,,,,,,,,left.png,,w,left,611bef869f91f800ad3b193e,2021-10-22_17h15.57.692,arrow_simon_punish,2021.1.2,Win32,59.96641881,,,,,,,,,,,,,,w,1,1.4194,1.613181132,0,5,0,0,0,2,1,,,,,,,,,,,,,,
,,,,,,,,,,,left.png,,w,right,611bef869f91f800ad3b193e,2021-10-22_17h15.57.692,arrow_simon_punish,2021.1.2,Win32,59.96641881,,,,,,,,,,,,,,w,1,1.3002,1.513727737,1,5,0,1,1,3,1,,,,,,,,,,,,,,
,,,,,,,,,,,right.png,,p,right,611bef869f91f800ad3b193e,2021-10-22_17h15.57.692,arrow_simon_punish,2021.1.2,Win32,59.96641881,,,,,,,,,,,,,,p,1,1.4854,1.959455404,0,5,0,2,2,1,1,,,,,,,,,,,,,,
,,,,,,,,,,,left.png,,w,right,611bef869f91f800ad3b193e,2021-10-22_17h15.57.692,arrow_simon_punish,2021.1.2,Win32,59.96641881,,,,,,,,,,,,,,w,1,1.8446,2.208723055,1,5,0,3,3,3,1,,,,,,,,,,,,,,
,,,,,,,,,,,left.png,,w,right,611bef869f91f800ad3b193e,2021-10-22_17h15.57.692,arrow_simon_punish,2021.1.2,Win32,59.96641881,,,,,,,,,,,,,,p,0,1.8015,2.293371357,1,5,1,0,4,3,1,,,,,,,,,,,,,,
,,,,,,,,,,,right.png,,p,right,611bef869f91f800ad3b193e,2021-10-22_17h15.57.692,arrow_simon_punish,2021.1.2,Win32,59.96641881,,,,,,,,,,,,,,p,1,1.9865,2.369495171,1,5,1,1,5,1,1,,,,,,,,,,,,,,
,,,,,,,,,,,left.png,,w,left,611bef869f91f800ad3b193e,2021-10-22_17h15.57.692,arrow_simon_punish,2021.1.2,Win32,59.96641881,,,,,,,,,,,,,,w,1,1.5399,1.968709608,0,5,1,2,6,2,1,,,,,,,,,,,,,,
,,,,,,,,,,,right.png,,p,right,611bef869f91f800ad3b193e,2021-10-22_17h15.57.692,arrow_simon_punish,2021.1.2,Win32,59.96641881,,,,,,,,,,,,,,p,1,1.4447,1.711836575,0,5,1,3,7,1,1,,,,,,,,,,,,,,
,,,,,,,,,,,left.png,,w,right,611bef869f91f800ad3b193e,2021-10-22_17h15.57.692,arrow_simon_punish,2021.1.2,Win32,59.96641881,,,,,,,,,,,,,,w,1,1.5508,1.957515562,0,5,2,0,8,3,1,,,,,,,,,,,,,,
,,,,,,,,,,,left.png,,w,right,611bef869f91f800ad3b193e,2021-10-22_17h15.57.692,arrow_simon_punish,2021.1.2,Win32,59.96641881,,,,,,,,,,,,,,w,1,1.567,1.538079244,0,5,2,1,9,3,1,,,,,,,,,,,,,,
,,,,,,,,,,,right.png,,p,right,611bef869f91f800ad3b193e,2021-10-22_17h15.57.692,arrow_simon_punish,2021.1.2,Win32,59.96641881,,,,,,,,,,,,,,p,1,1.3902,1.542538462,1,5,2,2,10,1,1,,,,,,,,,,,,,,
,,,,,,,,,,,left.png,,w,right,611bef869f91f800ad3b193e,2021-10-22_17h15.57.692,arrow_simon_punish,2021.1.2,Win32,59.96641881,,,,,,,,,,,,,,p,0,1.7187,2.215959786,1,5,2,3,11,3,1,,,,,,,,,,,,,,
,,,,,,,,,,,right.png,,p,left,611bef869f91f800ad3b193e,2021-10-22_17h15.57.692,arrow_simon_punish,2021.1.2,Win32,59.96641881,,,,,,,,,,,,,,p,1,1.5393,1.665113482,0,5,3,0,12,0,1,,,,,,,,,,,,,,
,,,,,,,,,,,right.png,,p,left,611bef869f91f800ad3b193e,2021-10-22_17h15.57.692,arrow_simon_punish,2021.1.2,Win32,59.96641881,,,,,,,,,,,,,,w,0,1.8209,2.34363395,1,5,3,1,13,0,1,,,,,,,,,,,,,,
,,,,,,,,,,,right.png,,p,left,611bef869f91f800ad3b193e,2021-10-22_17h15.57.692,arrow_simon_punish,2021.1.2,Win32,59.96641881,,,,,,,,,,,,,,p,1,2.0168,2.348200818,1,5,3,2,14,0,1,,,,,,,,,,,,,,
,,,,,,,,,,,left.png,,w,left,611bef869f91f800ad3b193e,2021-10-22_17h15.57.692,arrow_simon_punish,2021.1.2,Win32,59.96641881,,,,,,,,,,,,,,w,1,1.8367,2.137183089,1,5,3,3,15,2,1,,,,,,,,,,,,,,
,,,,,,,,,,,right.png,,p,left,611bef869f91f800ad3b193e,2021-10-22_17h15.57.692,arrow_simon_punish,2021.1.2,Win32,59.96641881,,,,,,,,,,,,,,p,1,1.4419,1.855223661,0,5,4,0,16,0,1,,,,,,,,,,,,,,
,,,,,,,,,,,left.png,,w,left,611bef869f91f800ad3b193e,2021-10-22_17h15.57.692,arrow_simon_punish,2021.1.2,Win32,59.96641881,,,,,,,,,,,,,,w,1,1.8649,2.254778391,1,5,4,1,17,2,1,,,,,,,,,,,,,,
,,,,,,,,,,,left.png,,w,left,611bef869f91f800ad3b193e,2021-10-22_17h15.57.692,arrow_simon_punish,2021.1.2,Win32,59.96641881,,,,,,,,,,,,,,w,1,1.5678,1.86922912,0,5,4,2,18,2,1,,,,,,,,,,,,,,
,,,,,,,,,,,left.png,,w,right,611bef869f91f800ad3b193e,2021-10-22_17h15.57.692,arrow_simon_punish,2021.1.2,Win32,59.96641881,,,,,,,,,,,,,,w,1,1.4077,1.658857448,0,5,4,3,19,3,1,,,,,,,,,,,,,,
,,,,,,,,,,,left.png,,w,left,611bef869f91f800ad3b193e,2021-10-22_17h15.57.692,arrow_simon_punish,2021.1.2,Win32,59.96641881,,,,,,,,,,,,,,w,1,1.5908,2.131122324,0,5,5,0,20,2,1,,,,,,,,,,,,,,
,,,,,,,,,,,right.png,,p,left,611bef869f91f800ad3b193e,2021-10-22_17h15.57.692,arrow_simon_punish,2021.1.2,Win32,59.96641881,,,,,,,,,,,,,,p,1,1.5334,1.819985479,0,5,5,1,21,0,1,,,,,,,,,,,,,,
,,,,,,,,,,,left.png,,w,left,611bef869f91f800ad3b193e,2021-10-22_17h15.57.692,arrow_simon_punish,2021.1.2,Win32,59.96641881,,,,,,,,,,,,,,w,1,1.5668,1.843341413,0,5,5,2,22,2,1,,,,,,,,,,,,,,
,,,,,,,,,,,right.png,,p,left,611bef869f91f800ad3b193e,2021-10-22_17h15.57.692,arrow_simon_punish,2021.1.2,Win32,59.96641881,,,,,,,,,,,,,,p,1,1.5831,1.927723802,0,5,5,3,23,0,1,,,,,,,,,,,,,,
,,,,,,,,,,,left.png,,w,left,611bef869f91f800ad3b193e,2021-10-22_17h15.57.692,arrow_simon_punish,2021.1.2,Win32,59.96641881,,,,,,,,,,,,,,w,1,1.5999,1.543615848,0,5,6,0,24,2,1,,,,,,,,,,,,,,
,,,,,,,,,,,left.png,,w,right,611bef869f91f800ad3b193e,2021-10-22_17h15.57.692,arrow_simon_punish,2021.1.2,Win32,59.96641881,,,,,,,,,,,,,,w,1,1.5502,1.580596615,0,5,6,1,25,3,1,,,,,,,,,,,,,,
,,,,,,,,,,,left.png,,w,left,611bef869f91f800ad3b193e,2021-10-22_17h15.57.692,arrow_simon_punish,2021.1.2,Win32,59.96641881,,,,,,,,,,,,,,w,1,1.5668,1.713535966,0,5,6,2,26,2,1,,,,,,,,,,,,,,
,,,,,,,,,,,right.png,,p,right,611bef869f91f800ad3b193e,2021-10-22_17h15.57.692,arrow_simon_punish,2021.1.2,Win32,59.96641881,,,,,,,,,,,,,,p,1,1.984,2.268406309,1,5,6,3,27,1,1,,,,,,,,,,,,,,
,,,,,,,,,,,right.png,,p,right,611bef869f91f800ad3b193e,2021-10-22_17h15.57.692,arrow_simon_punish,2021.1.2,Win32,59.96641881,,,,,,,,,,,,,,p,1,1.9832,2.437213866,1,5,7,0,28,1,1,,,,,,,,,,,,,,
,,,,,,,,,,,right.png,,p,left,611bef869f91f800ad3b193e,2021-10-22_17h15.57.692,arrow_simon_punish,2021.1.2,Win32,59.96641881,,,,,,,,,,,,,,p,1,1.7602,2.073937472,1,5,7,1,29,0,1,,,,,,,,,,,,,,
,,,,,,,,,,,right.png,,p,right,611bef869f91f800ad3b193e,2021-10-22_17h15.57.692,arrow_simon_punish,2021.1.2,Win32,59.96641881,,,,,,,,,,,,,,p,1,1.4189,1.522440764,0,5,7,2,30,1,1,,,,,,,,,,,,,,
,,,,,,,,,,,right.png,,p,right,611bef869f91f800ad3b193e,2021-10-22_17h15.57.692,arrow_simon_punish,2021.1.2,Win32,59.96641881,,,,,,,,,,,,,,p,1,1.3774,1.580028335,1,5,7,3,31,1,1,,,,,,,,,,,,,,
,,,,,,,,,,,right.png,,p,right,611bef869f91f800ad3b193e,2021-10-22_17h15.57.692,arrow_simon_punish,2021.1.2,Win32,59.96641881,,,,,,,,,,,,,,p,1,1.4019,1.578279419,0,5,8,0,32,1,1,,,,,,,,,,,,,,
,,,,,,,,,,,right.png,,p,left,611bef869f91f800ad3b193e,2021-10-22_17h15.57.692,arrow_simon_punish,2021.1.2,Win32,59.96641881,,,,,,,,,,,,,,p,1,2.0999,2.490619055,1,5,8,1,33,0,1,,,,,,,,,,,,,,
,,,,,,,,,,,right.png,,p,left,611bef869f91f800ad3b193e,2021-10-22_17h15.57.692,arrow_simon_punish,2021.1.2,Win32,59.96641881,,,,,,,,,,,,,,p,1,1.5339,1.638918513,0,5,8,2,34,0,1,,,,,,,,,,,,,,
,,,,,,,,,,,left.png,,w,right,611bef869f91f800ad3b193e,2021-10-22_17h15.57.692,arrow_simon_punish,2021.1.2,Win32,59.96641881,,,,,,,,,,,,,,w,1,1.9205,2.292392356,1,5,8,3,35,3,1,,,,,,,,,,,,,,
,,,,,,,,,,,left.png,,w,left,611bef869f91f800ad3b193e,2021-10-22_17h15.57.692,arrow_simon_punish,2021.1.2,Win32,59.96641881,,,,,,,,,,,,,,w,1,1.8929,2.254479548,1,5,9,0,36,2,1,,,,,,,,,,,,,,
,,,,,,,,,,,left.png,,w,right,611bef869f91f800ad3b193e,2021-10-22_17h15.57.692,arrow_simon_punish,2021.1.2,Win32,59.96641881,,,,,,,,,,,,,,w,1,1.7363,2.276584167,1,5,9,1,37,3,1,,,,,,,,,,,,,,
,,,,,,,,,,,right.png,,p,left,611bef869f91f800ad3b193e,2021-10-22_17h15.57.692,arrow_simon_punish,2021.1.2,Win32,59.96641881,,,,,,,,,,,,,,p,1,1.4913,1.818765908,0,5,9,2,38,0,1,,,,,,,,,,,,,,
,,,,,,,,,,,right.png,,p,right,611bef869f91f800ad3b193e,2021-10-22_17h15.57.692,arrow_simon_punish,2021.1.2,Win32,59.96641881,,,,,,,,,,,,,,p,1,1.5435,2.034336698,0,5,9,3,39,1,1,,,,,,,,,,,,,,
,,,,,,,,,,,right.png,,p,left,611bef869f91f800ad3b193e,2021-10-22_17h15.57.692,arrow_simon_punish,2021.1.2,Win32,59.96641881,,,,,,,,,,,,,,p,1,1.6584,2.073627322,1,5,10,0,40,0,1,,,,,,,,,,,,,,
,,,,,,,,,,,left.png,,w,left,611bef869f91f800ad3b193e,2021-10-22_17h15.57.692,arrow_simon_punish,2021.1.2,Win32,59.96641881,,,,,,,,,,,,,,w,1,1.7042,2.327494864,1,5,10,1,41,2,1,,,,,,,,,,,,,,
,,,,,,,,,,,right.png,,p,right,611bef869f91f800ad3b193e,2021-10-22_17h15.57.692,arrow_simon_punish,2021.1.2,Win32,59.96641881,,,,,,,,,,,,,,p,1,1.382,1.652606495,1,5,10,2,42,1,1,,,,,,,,,,,,,,
,,,,,,,,,,,left.png,,w,left,611bef869f91f800ad3b193e,2021-10-22_17h15.57.692,arrow_simon_punish,2021.1.2,Win32,59.96641881,,,,,,,,,,,,,,w,1,1.6602,2.106741806,1,5,10,3,43,2,1,,,,,,,,,,,,,,
,,,,,,,,,,,left.png,,w,left,611bef869f91f800ad3b193e,2021-10-22_17h15.57.692,arrow_simon_punish,2021.1.2,Win32,59.96641881,,,,,,,,,,,,,,w,1,1.6431,2.179716177,1,5,11,0,44,2,1,,,,,,,,,,,,,,
,,,,,,,,,,,right.png,,p,right,611bef869f91f800ad3b193e,2021-10-22_17h15.57.692,arrow_simon_punish,2021.1.2,Win32,59.96641881,,,,,,,,,,,,,,w,0,1.5834,2.299930273,1,5,11,1,45,1,1,,,,,,,,,,,,,,
,,,,,,,,,,,left.png,,w,right,611bef869f91f800ad3b193e,2021-10-22_17h15.57.692,arrow_simon_punish,2021.1.2,Win32,59.96641881,,,,,,,,,,,,,,w,1,2.0415,2.379282678,1,5,11,2,46,3,1,,,,,,,,,,,,,,
,,,,,,,,,,,left.png,,w,left,611bef869f91f800ad3b193e,2021-10-22_17h15.57.692,arrow_simon_punish,2021.1.2,Win32,59.96641881,,,,,,,,,,,,,,w,1,1.5438,1.910671163,0,5,11,3,47,2,1,,,,,,,,,,,,,,
,,,,,,,,,,,right.png,,p,left,611bef869f91f800ad3b193e,2021-10-22_17h15.57.692,arrow_simon_punish,2021.1.2,Win32,59.96641881,,,,,,,,,,,,,,p,1,1.5003,1.733605853,0,5,12,0,48,0,1,,,,,,,,,,,,,,
,,,,,,,,,,,right.png,,p,right,611bef869f91f800ad3b193e,2021-10-22_17h15.57.692,arrow_simon_punish,2021.1.2,Win32,59.96641881,,,,,,,,,,,,,,p,1,1.6499,2.057456673,1,5,12,1,49,1,1,,,,,,,,,,,,,,
,,,,,,,,,,,right.png,,p,left,611bef869f91f800ad3b193e,2021-10-22_17h15.57.692,arrow_simon_punish,2021.1.2,Win32,59.96641881,,,,,,,,,,,,,,p,1,1.7085,2.121691783,1,5,12,2,50,0,1,,,,,,,,,,,,,,
,,,,,,,,,,,left.png,,w,right,611bef869f91f800ad3b193e,2021-10-22_17h15.57.692,arrow_simon_punish,2021.1.2,Win32,59.96641881,,,,,,,,,,,,,,w,1,1.8344,2.227402558,1,5,12,3,51,3,1,,,,,,,,,,,,,,
,,,,,,,,,,,left.png,,w,right,611bef869f91f800ad3b193e,2021-10-22_17h15.57.692,arrow_simon_punish,2021.1.2,Win32,59.96641881,,,,,,,,,,,,,,p,0,1.7418,2.382775482,1,5,13,0,52,3,1,,,,,,,,,,,,,,
,,,,,,,,,,,right.png,,p,right,611bef869f91f800ad3b193e,2021-10-22_17h15.57.692,arrow_simon_punish,2021.1.2,Win32,59.96641881,,,,,,,,,,,,,,p,1,1.7688,2.17771936,1,5,13,1,53,1,1,,,,,,,,,,,,,,
,,,,,,,,,,,left.png,,w,left,611bef869f91f800ad3b193e,2021-10-22_17h15.57.692,arrow_simon_punish,2021.1.2,Win32,59.96641881,,,,,,,,,,,,,,w,1,1.588,1.99413474,0,5,13,2,54,2,1,,,,,,,,,,,,,,
,,,,,,,,,,,right.png,,p,left,611bef869f91f800ad3b193e,2021-10-22_17h15.57.692,arrow_simon_punish,2021.1.2,Win32,59.96641881,,,,,,,,,,,,,,p,1,1.7167,2.038743987,1,5,13,3,55,0,1,,,,,,,,,,,,,,
,,,,,,,,,,,right.png,,p,right,611bef869f91f800ad3b193e,2021-10-22_17h15.57.692,arrow_simon_punish,2021.1.2,Win32,59.96641881,,,,,,,,,,,,,,p,1,1.5025,1.884799121,0,5,14,0,56,1,1,,,,,,,,,,,,,,
,,,,,,,,,,,left.png,,w,right,611bef869f91f800ad3b193e,2021-10-22_17h15.57.692,arrow_simon_punish,2021.1.2,Win32,59.96641881,,,,,,,,,,,,,,w,1,2.0675,2.487515433,1,5,14,1,57,3,1,,,,,,,,,,,,,,
,,,,,,,,,,,left.png,,w,right,611bef869f91f800ad3b193e,2021-10-22_17h15.57.692,arrow_simon_punish,2021.1.2,Win32,59.96641881,,,,,,,,,,,,,,w,1,1.4074,1.596292107,0,5,14,2,58,3,1,,,,,,,,,,,,,,
,,,,,,,,,,,right.png,,p,left,611bef869f91f800ad3b193e,2021-10-22_17h15.57.692,arrow_simon_punish,2021.1.2,Win32,59.96641881,,,,,,,,,,,,,,w,0,1.7192,2.318918659,1,5,14,3,59,0,1,,,,,,,,,,,,,,
,,,,,,,,,,,,,,,611bef869f91f800ad3b193e,2021-10-22_17h15.57.692,arrow_simon_punish,2021.1.2,Win32,59.96641881,,,,,,,,,,,,,,,,,,,,,,,,,space,12.9848,5,1,1,3,1,1,5,,,,,
,,,,,,,,,,,left.png,,w,right,611bef869f91f800ad3b193e,2021-10-22_17h15.57.692,arrow_simon_punish,2021.1.2,Win32,59.96641881,,,,,,,,,,,,,,w,1,1.4065,1.516449817,0,1,0,0,0,3,1,,,,,,,,,,,,,,
,,,,,,,,,,,right.png,,p,left,611bef869f91f800ad3b193e,2021-10-22_17h15.57.692,arrow_simon_punish,2021.1.2,Win32,59.96641881,,,,,,,,,,,,,,p,1,1.8172,2.252908225,1,1,0,1,1,0,1,,,,,,,,,,,,,,
,,,,,,,,,,,right.png,,p,left,611bef869f91f800ad3b193e,2021-10-22_17h15.57.692,arrow_simon_punish,2021.1.2,Win32,59.96641881,,,,,,,,,,,,,,p,1,1.358,1.718915258,1,1,0,2,2,0,1,,,,,,,,,,,,,,
,,,,,,,,,,,left.png,,w,right,611bef869f91f800ad3b193e,2021-10-22_17h15.57.692,arrow_simon_punish,2021.1.2,Win32,59.96641881,,,,,,,,,,,,,,w,1,1.5011,1.850023814,0,1,0,3,3,3,1,,,,,,,,,,,,,,
,,,,,,,,,,,left.png,,w,right,611bef869f91f800ad3b193e,2021-10-22_17h15.57.692,arrow_simon_punish,2021.1.2,Win32,59.96641881,,,,,,,,,,,,,,w,1,1.7871,2.119980502,1,1,1,0,4,3,1,,,,,,,,,,,,,,
,,,,,,,,,,,right.png,,p,right,611bef869f91f800ad3b193e,2021-10-22_17h15.57.692,arrow_simon_punish,2021.1.2,Win32,59.96641881,,,,,,,,,,,,,,p,1,2.0835,2.468386408,1,1,1,1,5,1,1,,,,,,,,,,,,,,
,,,,,,,,,,,right.png,,p,left,611bef869f91f800ad3b193e,2021-10-22_17h15.57.692,arrow_simon_punish,2021.1.2,Win32,59.96641881,,,,,,,,,,,,,,p,1,1.4569,1.642828928,0,1,1,2,6,0,1,,,,,,,,,,,,,,
,,,,,,,,,,,left.png,,w,right,611bef869f91f800ad3b193e,2021-10-22_17h15.57.692,arrow_simon_punish,2021.1.2,Win32,59.96641881,,,,,,,,,,,,,,w,1,1.5577,1.686865119,0,1,1,3,7,3,1,,,,,,,,,,,,,,
,,,,,,,,,,,left.png,,w,left,611bef869f91f800ad3b193e,2021-10-22_17h15.57.692,arrow_simon_punish,2021.1.2,Win32,59.96641881,,,,,,,,,,,,,,w,1,1.5597,1.547542707,0,1,2,0,8,2,1,,,,,,,,,,,,,,
,,,,,,,,,,,right.png,,p,left,611bef869f91f800ad3b193e,2021-10-22_17h15.57.692,arrow_simon_punish,2021.1.2,Win32,59.96641881,,,,,,,,,,,,,,p,1,1.5835,1.969506023,0,1,2,1,9,0,1,,,,,,,,,,,,,,
,,,,,,,,,,,right.png,,p,right,611bef869f91f800ad3b193e,2021-10-22_17h15.57.692,arrow_simon_punish,2021.1.2,Win32,59.96641881,,,,,,,,,,,,,,w,0,1.8182,2.400402411,1,1,2,2,10,1,1,,,,,,,,,,,,,,
,,,,,,,,,,,left.png,,w,right,611bef869f91f800ad3b193e,2021-10-22_17h15.57.692,arrow_simon_punish,2021.1.2,Win32,59.96641881,,,,,,,,,,,,,,w,1,1.634,1.987786032,1,1,2,3,11,3,1,,,,,,,,,,,,,,
,,,,,,,,,,,left.png,,w,left,611bef869f91f800ad3b193e,2021-10-22_17h15.57.692,arrow_simon_punish,2021.1.2,Win32,59.96641881,,,,,,,,,,,,,,w,1,1.618,1.949266417,1,1,3,0,12,2,1,,,,,,,,,,,,,,
,,,,,,,,,,,right.png,,p,left,611bef869f91f800ad3b193e,2021-10-22_17h15.57.692,arrow_simon_punish,2021.1.2,Win32,59.96641881,,,,,,,,,,,,,,p,1,1.7009,2.067108494,1,1,3,1,13,0,1,,,,,,,,,,,,,,
,,,,,,,,,,,right.png,,p,right,611bef869f91f800ad3b193e,2021-10-22_17h15.57.692,arrow_simon_punish,2021.1.2,Win32,59.96641881,,,,,,,,,,,,,,p,1,1.65,2.186029049,1,1,3,2,14,1,1,,,,,,,,,,,,,,
,,,,,,,,,,,left.png,,w,right,611bef869f91f800ad3b193e,2021-10-22_17h15.57.692,arrow_simon_punish,2021.1.2,Win32,59.96641881,,,,,,,,,,,,,,w,1,1.55,1.829405533,0,1,3,3,15,3,1,,,,,,,,,,,,,,
,,,,,,,,,,,left.png,,w,left,611bef869f91f800ad3b193e,2021-10-22_17h15.57.692,arrow_simon_punish,2021.1.2,Win32,59.96641881,,,,,,,,,,,,,,w,1,1.692,2.087347077,1,1,4,0,16,2,1,,,,,,,,,,,,,,
,,,,,,,,,,,left.png,,w,left,611bef869f91f800ad3b193e,2021-10-22_17h15.57.692,arrow_simon_punish,2021.1.2,Win32,59.96641881,,,,,,,,,,,,,,w,1,1.6088,2.038590477,1,1,4,1,17,2,1,,,,,,,,,,,,,,
,,,,,,,,,,,right.png,,p,left,611bef869f91f800ad3b193e,2021-10-22_17h15.57.692,arrow_simon_punish,2021.1.2,Win32,59.96641881,,,,,,,,,,,,,,p,1,1.6,1.758531817,1,1,4,2,18,0,1,,,,,,,,,,,,,,
,,,,,,,,,,,right.png,,p,right,611bef869f91f800ad3b193e,2021-10-22_17h15.57.692,arrow_simon_punish,2021.1.2,Win32,59.96641881,,,,,,,,,,,,,,p,1,1.6252,1.953903899,1,1,4,3,19,1,1,,,,,,,,,,,,,,
,,,,,,,,,,,right.png,,p,right,611bef869f91f800ad3b193e,2021-10-22_17h15.57.692,arrow_simon_punish,2021.1.2,Win32,59.96641881,,,,,,,,,,,,,,p,1,1.6721,1.557126579,1,1,5,0,20,1,1,,,,,,,,,,,,,,
,,,,,,,,,,,left.png,,w,right,611bef869f91f800ad3b193e,2021-10-22_17h15.57.692,arrow_simon_punish,2021.1.2,Win32,59.96641881,,,,,,,,,,,,,,w,1,1.6223,2.006219336,1,1,5,1,21,3,1,,,,,,,,,,,,,,
,,,,,,,,,,,left.png,,w,left,611bef869f91f800ad3b193e,2021-10-22_17h15.57.692,arrow_simon_punish,2021.1.2,Win32,59.96641881,,,,,,,,,,,,,,w,1,1.5087,1.837552953,0,1,5,2,22,2,1,,,,,,,,,,,,,,
,,,,,,,,,,,right.png,,p,right,611bef869f91f800ad3b193e,2021-10-22_17h15.57.692,arrow_simon_punish,2021.1.2,Win32,59.96641881,,,,,,,,,,,,,,p,1,2.0242,2.393213516,1,1,5,3,23,1,1,,,,,,,,,,,,,,
,,,,,,,,,,,left.png,,w,right,611bef869f91f800ad3b193e,2021-10-22_17h15.57.692,arrow_simon_punish,2021.1.2,Win32,59.96641881,,,,,,,,,,,,,,w,1,1.5501,1.962986235,0,1,6,0,24,3,1,,,,,,,,,,,,,,
,,,,,,,,,,,left.png,,w,left,611bef869f91f800ad3b193e,2021-10-22_17h15.57.692,arrow_simon_punish,2021.1.2,Win32,59.96641881,,,,,,,,,,,,,,w,1,1.6416,1.751268385,1,1,6,1,25,2,1,,,,,,,,,,,,,,
,,,,,,,,,,,right.png,,p,right,611bef869f91f800ad3b193e,2021-10-22_17h15.57.692,arrow_simon_punish,2021.1.2,Win32,59.96641881,,,,,,,,,,,,,,p,1,2.0889,2.140571199,1,1,6,2,26,1,1,,,,,,,,,,,,,,
,,,,,,,,,,,right.png,,p,left,611bef869f91f800ad3b193e,2021-10-22_17h15.57.692,arrow_simon_punish,2021.1.2,Win32,59.96641881,,,,,,,,,,,,,,p,1,1.606,1.537554692,1,1,6,3,27,0,1,,,,,,,,,,,,,,
,,,,,,,,,,,left.png,,w,left,611bef869f91f800ad3b193e,2021-10-22_17h15.57.692,arrow_simon_punish,2021.1.2,Win32,59.96641881,,,,,,,,,,,,,,w,1,1.75,2.157698095,1,1,7,0,28,2,1,,,,,,,,,,,,,,
,,,,,,,,,,,left.png,,w,left,611bef869f91f800ad3b193e,2021-10-22_17h15.57.692,arrow_simon_punish,2021.1.2,Win32,59.96641881,,,,,,,,,,,,,,w,1,1.5185,1.537764826,0,1,7,1,29,2,1,,,,,,,,,,,,,,
,,,,,,,,,,,right.png,,p,left,611bef869f91f800ad3b193e,2021-10-22_17h15.57.692,arrow_simon_punish,2021.1.2,Win32,59.96641881,,,,,,,,,,,,,,p,1,2.003,2.380281753,1,1,7,2,30,0,1,,,,,,,,,,,,,,
,,,,,,,,,,,right.png,,p,right,611bef869f91f800ad3b193e,2021-10-22_17h15.57.692,arrow_simon_punish,2021.1.2,Win32,59.96641881,,,,,,,,,,,,,,p,1,1.8415,2.299712,1,1,7,3,31,1,1,,,,,,,,,,,,,,
,,,,,,,,,,,right.png,,p,right,611bef869f91f800ad3b193e,2021-10-22_17h15.57.692,arrow_simon_punish,2021.1.2,Win32,59.96641881,,,,,,,,,,,,,,p,1,1.6732,2.182335634,1,1,8,0,32,1,1,,,,,,,,,,,,,,
,,,,,,,,,,,right.png,,p,left,611bef869f91f800ad3b193e,2021-10-22_17h15.57.692,arrow_simon_punish,2021.1.2,Win32,59.96641881,,,,,,,,,,,,,,w,0,1.8002,2.324072562,1,1,8,1,33,0,1,,,,,,,,,,,,,,
,,,,,,,,,,,right.png,,p,right,611bef869f91f800ad3b193e,2021-10-22_17h15.57.692,arrow_simon_punish,2021.1.2,Win32,59.96641881,,,,,,,,,,,,,,p,1,1.8215,2.347838861,1,1,8,2,34,1,1,,,,,,,,,,,,,,
,,,,,,,,,,,left.png,,w,right,611bef869f91f800ad3b193e,2021-10-22_17h15.57.692,arrow_simon_punish,2021.1.2,Win32,59.96641881,,,,,,,,,,,,,,w,1,1.9893,2.286453881,1,1,8,3,35,3,1,,,,,,,,,,,,,,
,,,,,,,,,,,left.png,,w,right,611bef869f91f800ad3b193e,2021-10-22_17h15.57.692,arrow_simon_punish,2021.1.2,Win32,59.96641881,,,,,,,,,,,,,,w,1,1.5334,1.567398568,0,1,9,0,36,3,1,,,,,,,,,,,,,,
,,,,,,,,,,,left.png,,w,right,611bef869f91f800ad3b193e,2021-10-22_17h15.57.692,arrow_simon_punish,2021.1.2,Win32,59.96641881,,,,,,,,,,,,,,w,1,2.0083,2.443009958,1,1,9,1,37,3,1,,,,,,,,,,,,,,
,,,,,,,,,,,left.png,,w,left,611bef869f91f800ad3b193e,2021-10-22_17h15.57.692,arrow_simon_punish,2021.1.2,Win32,59.96641881,,,,,,,,,,,,,,w,1,1.6573,1.929792039,1,1,9,2,38,2,1,,,,,,,,,,,,,,
,,,,,,,,,,,right.png,,p,right,611bef869f91f800ad3b193e,2021-10-22_17h15.57.692,arrow_simon_punish,2021.1.2,Win32,59.96641881,,,,,,,,,,,,,,p,1,2.0071,2.489562418,1,1,9,3,39,1,1,,,,,,,,,,,,,,
,,,,,,,,,,,left.png,,w,left,611bef869f91f800ad3b193e,2021-10-22_17h15.57.692,arrow_simon_punish,2021.1.2,Win32,59.96641881,,,,,,,,,,,,,,w,1,1.516,1.576445429,0,1,10,0,40,2,1,,,,,,,,,,,,,,
,,,,,,,,,,,left.png,,w,right,611bef869f91f800ad3b193e,2021-10-22_17h15.57.692,arrow_simon_punish,2021.1.2,Win32,59.96641881,,,,,,,,,,,,,,w,1,1.4668,1.520419714,0,1,10,1,41,3,1,,,,,,,,,,,,,,
,,,,,,,,,,,left.png,,w,right,611bef869f91f800ad3b193e,2021-10-22_17h15.57.692,arrow_simon_punish,2021.1.2,Win32,59.96641881,,,,,,,,,,,,,,w,1,1.6006,1.726868653,1,1,10,2,42,3,1,,,,,,,,,,,,,,
,,,,,,,,,,,right.png,,p,left,611bef869f91f800ad3b193e,2021-10-22_17h15.57.692,arrow_simon_punish,2021.1.2,Win32,59.96641881,,,,,,,,,,,,,,p,1,1.6656,1.691046329,1,1,10,3,43,0,1,,,,,,,,,,,,,,
,,,,,,,,,,,left.png,,w,left,611bef869f91f800ad3b193e,2021-10-22_17h15.57.692,arrow_simon_punish,2021.1.2,Win32,59.96641881,,,,,,,,,,,,,,w,1,1.6001,1.540865587,1,1,11,0,44,2,1,,,,,,,,,,,,,,
,,,,,,,,,,,right.png,,p,left,611bef869f91f800ad3b193e,2021-10-22_17h15.57.692,arrow_simon_punish,2021.1.2,Win32,59.96641881,,,,,,,,,,,,,,p,1,1.5834,1.869781396,0,1,11,1,45,0,1,,,,,,,,,,,,,,
,,,,,,,,,,,left.png,,w,left,611bef869f91f800ad3b193e,2021-10-22_17h15.57.692,arrow_simon_punish,2021.1.2,Win32,59.96641881,,,,,,,,,,,,,,w,1,1.6155,2.491453094,1,1,11,2,46,2,1,,,,,,,,,,,,,,
,,,,,,,,,,,left.png,,w,left,611bef869f91f800ad3b193e,2021-10-22_17h15.57.692,arrow_simon_punish,2021.1.2,Win32,59.96641881,,,,,,,,,,,,,,w,1,1.6608,1.827597072,1,1,11,3,47,2,1,,,,,,,,,,,,,,
,,,,,,,,,,,left.png,,w,right,611bef869f91f800ad3b193e,2021-10-22_17h15.57.692,arrow_simon_punish,2021.1.2,Win32,59.96641881,,,,,,,,,,,,,,w,1,1.6501,1.823306594,1,1,12,0,48,3,1,,,,,,,,,,,,,,
,,,,,,,,,,,right.png,,p,left,611bef869f91f800ad3b193e,2021-10-22_17h15.57.692,arrow_simon_punish,2021.1.2,Win32,59.96641881,,,,,,,,,,,,,,p,1,2.1366,2.449209525,1,1,12,1,49,0,1,,,,,,,,,,,,,,
,,,,,,,,,,,right.png,,p,right,611bef869f91f800ad3b193e,2021-10-22_17h15.57.692,arrow_simon_punish,2021.1.2,Win32,59.96641881,,,,,,,,,,,,,,p,1,1.2836,1.621674491,1,1,12,2,50,1,1,,,,,,,,,,,,,,
,,,,,,,,,,,right.png,,p,right,611bef869f91f800ad3b193e,2021-10-22_17h15.57.692,arrow_simon_punish,2021.1.2,Win32,59.96641881,,,,,,,,,,,,,,p,1,1.4567,1.641713032,0,1,12,3,51,1,1,,,,,,,,,,,,,,
,,,,,,,,,,,right.png,,p,left,611bef869f91f800ad3b193e,2021-10-22_17h15.57.692,arrow_simon_punish,2021.1.2,Win32,59.96641881,,,,,,,,,,,,,,p,1,1.5575,1.667142405,0,1,13,0,52,0,1,,,,,,,,,,,,,,
,,,,,,,,,,,left.png,,w,left,611bef869f91f800ad3b193e,2021-10-22_17h15.57.692,arrow_simon_punish,2021.1.2,Win32,59.96641881,,,,,,,,,,,,,,w,1,1.6395,1.915660539,1,1,13,1,53,2,1,,,,,,,,,,,,,,
,,,,,,,,,,,left.png,,w,right,611bef869f91f800ad3b193e,2021-10-22_17h15.57.692,arrow_simon_punish,2021.1.2,Win32,59.96641881,,,,,,,,,,,,,,w,1,1.7191,1.78424789,1,1,13,2,54,3,1,,,,,,,,,,,,,,
,,,,,,,,,,,right.png,,p,left,611bef869f91f800ad3b193e,2021-10-22_17h15.57.692,arrow_simon_punish,2021.1.2,Win32,59.96641881,,,,,,,,,,,,,,p,1,1.5499,1.670566452,0,1,13,3,55,0,1,,,,,,,,,,,,,,
,,,,,,,,,,,right.png,,p,right,611bef869f91f800ad3b193e,2021-10-22_17h15.57.692,arrow_simon_punish,2021.1.2,Win32,59.96641881,,,,,,,,,,,,,,p,1,1.6487,2.178818247,1,1,14,0,56,1,1,,,,,,,,,,,,,,
,,,,,,,,,,,right.png,,p,left,611bef869f91f800ad3b193e,2021-10-22_17h15.57.692,arrow_simon_punish,2021.1.2,Win32,59.96641881,,,,,,,,,,,,,,p,1,1.6839,1.832798676,1,1,14,1,57,0,1,,,,,,,,,,,,,,
,,,,,,,,,,,right.png,,p,right,611bef869f91f800ad3b193e,2021-10-22_17h15.57.692,arrow_simon_punish,2021.1.2,Win32,59.96641881,,,,,,,,,,,,,,p,1,1.5836,1.919568353,0,1,14,2,58,1,1,,,,,,,,,,,,,,
,,,,,,,,,,,left.png,,w,left,611bef869f91f800ad3b193e,2021-10-22_17h15.57.692,arrow_simon_punish,2021.1.2,Win32,59.96641881,,,,,,,,,,,,,,w,1,1.5194,1.540669185,0,1,14,3,59,2,1,,,,,,,,,,,,,,
,,,,,,,,,,,,,,,611bef869f91f800ad3b193e,2021-10-22_17h15.57.692,arrow_simon_punish,2021.1.2,Win32,59.96641881,,,,,,,,,,,,,,,,,,,,,,,,,space,21.7246,6,2,0,4,0,1,1,,,,,
,,,,,,,,,,,left.png,,w,left,611bef869f91f800ad3b193e,2021-10-22_17h15.57.692,arrow_simon_punish,2021.1.2,Win32,59.96641881,,,,,,,,,,,,,,w,1,1.9869,1.856008917,1,5,0,0,0,2,1,,,,,,,,,,,,,,
,,,,,,,,,,,right.png,,p,left,611bef869f91f800ad3b193e,2021-10-22_17h15.57.692,arrow_simon_punish,2021.1.2,Win32,59.96641881,,,,,,,,,,,,,,p,1,1.4434,1.711731748,0,5,0,1,1,0,1,,,,,,,,,,,,,,
,,,,,,,,,,,left.png,,w,right,611bef869f91f800ad3b193e,2021-10-22_17h15.57.692,arrow_simon_punish,2021.1.2,Win32,59.96641881,,,,,,,,,,,,,,w,1,1.5668,2.027520584,0,5,0,2,2,3,1,,,,,,,,,,,,,,
,,,,,,,,,,,right.png,,p,right,611bef869f91f800ad3b193e,2021-10-22_17h15.57.692,arrow_simon_punish,2021.1.2,Win32,59.96641881,,,,,,,,,,,,,,p,1,1.4354,1.746665162,0,5,0,3,3,1,1,,,,,,,,,,,,,,
,,,,,,,,,,,right.png,,p,right,611bef869f91f800ad3b193e,2021-10-22_17h15.57.692,arrow_simon_punish,2021.1.2,Win32,59.96641881,,,,,,,,,,,,,,p,1,1.5217,2.15987534,0,5,1,0,4,1,1,,,,,,,,,,,,,,
,,,,,,,,,,,left.png,,w,left,611bef869f91f800ad3b193e,2021-10-22_17h15.57.692,arrow_simon_punish,2021.1.2,Win32,59.96641881,,,,,,,,,,,,,,w,1,1.4323,1.748053007,0,5,1,1,5,2,1,,,,,,,,,,,,,,
,,,,,,,,,,,left.png,,w,left,611bef869f91f800ad3b193e,2021-10-22_17h15.57.692,arrow_simon_punish,2021.1.2,Win32,59.96641881,,,,,,,,,,,,,,w,1,1.6277,1.75584753,1,5,1,2,6,2,1,,,,,,,,,,,,,,
,,,,,,,,,,,left.png,,w,right,611bef869f91f800ad3b193e,2021-10-22_17h15.57.692,arrow_simon_punish,2021.1.2,Win32,59.96641881,,,,,,,,,,,,,,w,1,1.5178,1.545150202,0,5,1,3,7,3,1,,,,,,,,,,,,,,
,,,,,,,,,,,right.png,,p,left,611bef869f91f800ad3b193e,2021-10-22_17h15.57.692,arrow_simon_punish,2021.1.2,Win32,59.96641881,,,,,,,,,,,,,,p,1,1.5024,1.878547627,0,5,2,0,8,0,1,,,,,,,,,,,,,,
,,,,,,,,,,,left.png,,w,left,611bef869f91f800ad3b193e,2021-10-22_17h15.57.692,arrow_simon_punish,2021.1.2,Win32,59.96641881,,,,,,,,,,,,,,w,1,1.7662,1.528522455,1,5,2,1,9,2,1,,,,,,,,,,,,,,
,,,,,,,,,,,right.png,,p,right,611bef869f91f800ad3b193e,2021-10-22_17h15.57.692,arrow_simon_punish,2021.1.2,Win32,59.96641881,,,,,,,,,,,,,,p,1,1.5668,1.92723971,0,5,2,2,10,1,1,,,,,,,,,,,,,,
,,,,,,,,,,,right.png,,p,right,611bef869f91f800ad3b193e,2021-10-22_17h15.57.692,arrow_simon_punish,2021.1.2,Win32,59.96641881,,,,,,,,,,,,,,p,1,1.9172,2.308293233,1,5,2,3,11,1,1,,,,,,,,,,,,,,
,,,,,,,,,,,left.png,,w,right,611bef869f91f800ad3b193e,2021-10-22_17h15.57.692,arrow_simon_punish,2021.1.2,Win32,59.96641881,,,,,,,,,,,,,,w,1,1.9689,2.417142338,1,5,3,0,12,3,1,,,,,,,,,,,,,,
,,,,,,,,,,,left.png,,w,right,611bef869f91f800ad3b193e,2021-10-22_17h15.57.692,arrow_simon_punish,2021.1.2,Win32,59.96641881,,,,,,,,,,,,,,w,1,1.5541,2.040765152,0,5,3,1,13,3,1,,,,,,,,,,,,,,
,,,,,,,,,,,right.png,,p,right,611bef869f91f800ad3b193e,2021-10-22_17h15.57.692,arrow_simon_punish,2021.1.2,Win32,59.96641881,,,,,,,,,,,,,,w,0,1.5407,2.218149133,1,5,3,2,14,1,1,,,,,,,,,,,,,,
,,,,,,,,,,,right.png,,p,right,611bef869f91f800ad3b193e,2021-10-22_17h15.57.692,arrow_simon_punish,2021.1.2,Win32,59.96641881,,,,,,,,,,,,,,p,1,1.5105,1.968936218,0,5,3,3,15,1,1,,,,,,,,,,,,,,
,,,,,,,,,,,left.png,,w,right,611bef869f91f800ad3b193e,2021-10-22_17h15.57.692,arrow_simon_punish,2021.1.2,Win32,59.96641881,,,,,,,,,,,,,,w,1,1.5933,2.046923429,0,5,4,0,16,3,1,,,,,,,,,,,,,,
,,,,,,,,,,,left.png,,w,left,611bef869f91f800ad3b193e,2021-10-22_17h15.57.692,arrow_simon_punish,2021.1.2,Win32,59.96641881,,,,,,,,,,,,,,w,1,1.6915,2.185943552,1,5,4,1,17,2,1,,,,,,,,,,,,,,
,,,,,,,,,,,left.png,,w,right,611bef869f91f800ad3b193e,2021-10-22_17h15.57.692,arrow_simon_punish,2021.1.2,Win32,59.96641881,,,,,,,,,,,,,,p,0,1.6553,2.260714115,1,5,4,2,18,3,1,,,,,,,,,,,,,,
,,,,,,,,,,,left.png,,w,left,611bef869f91f800ad3b193e,2021-10-22_17h15.57.692,arrow_simon_punish,2021.1.2,Win32,59.96641881,,,,,,,,,,,,,,w,1,1.62,2.176979407,1,5,4,3,19,2,1,,,,,,,,,,,,,,
,,,,,,,,,,,right.png,,p,left,611bef869f91f800ad3b193e,2021-10-22_17h15.57.692,arrow_simon_punish,2021.1.2,Win32,59.96641881,,,,,,,,,,,,,,p,1,1.5735,1.858554462,0,5,5,0,20,0,1,,,,,,,,,,,,,,
,,,,,,,,,,,right.png,,p,left,611bef869f91f800ad3b193e,2021-10-22_17h15.57.692,arrow_simon_punish,2021.1.2,Win32,59.96641881,,,,,,,,,,,,,,p,1,1.6693,2.130432302,1,5,5,1,21,0,1,,,,,,,,,,,,,,
,,,,,,,,,,,right.png,,p,right,611bef869f91f800ad3b193e,2021-10-22_17h15.57.692,arrow_simon_punish,2021.1.2,Win32,59.96641881,,,,,,,,,,,,,,p,1,2.0347,2.403282016,1,5,5,2,22,1,1,,,,,,,,,,,,,,
,,,,,,,,,,,left.png,,w,left,611bef869f91f800ad3b193e,2021-10-22_17h15.57.692,arrow_simon_punish,2021.1.2,Win32,59.96641881,,,,,,,,,,,,,,w,1,1.6669,2.114850938,1,5,5,3,23,2,1,,,,,,,,,,,,,,
,,,,,,,,,,,right.png,,p,left,611bef869f91f800ad3b193e,2021-10-22_17h15.57.692,arrow_simon_punish,2021.1.2,Win32,59.96641881,,,,,,,,,,,,,,p,1,1.7002,2.061419249,1,5,6,0,24,0,1,,,,,,,,,,,,,,
,,,,,,,,,,,left.png,,w,right,611bef869f91f800ad3b193e,2021-10-22_17h15.57.692,arrow_simon_punish,2021.1.2,Win32,59.96641881,,,,,,,,,,,,,,w,1,1.6166,1.667405146,1,5,6,1,25,3,1,,,,,,,,,,,,,,
,,,,,,,,,,,left.png,,w,right,611bef869f91f800ad3b193e,2021-10-22_17h15.57.692,arrow_simon_punish,2021.1.2,Win32,59.96641881,,,,,,,,,,,,,,p,0,1.1836,1.740333539,1,5,6,2,26,3,1,,,,,,,,,,,,,,
,,,,,,,,,,,right.png,,p,right,611bef869f91f800ad3b193e,2021-10-22_17h15.57.692,arrow_simon_punish,2021.1.2,Win32,59.96641881,,,,,,,,,,,,,,p,1,1.9666,2.467204246,1,5,6,3,27,1,1,,,,,,,,,,,,,,
,,,,,,,,,,,right.png,,p,left,611bef869f91f800ad3b193e,2021-10-22_17h15.57.692,arrow_simon_punish,2021.1.2,Win32,59.96641881,,,,,,,,,,,,,,p,1,1.4837,1.504616349,0,5,7,0,28,0,1,,,,,,,,,,,,,,
,,,,,,,,,,,left.png,,w,left,611bef869f91f800ad3b193e,2021-10-22_17h15.57.692,arrow_simon_punish,2021.1.2,Win32,59.96641881,,,,,,,,,,,,,,w,1,1.6501,2.033540858,1,5,7,1,29,2,1,,,,,,,,,,,,,,
,,,,,,,,,,,left.png,,w,left,611bef869f91f800ad3b193e,2021-10-22_17h15.57.692,arrow_simon_punish,2021.1.2,Win32,59.96641881,,,,,,,,,,,,,,w,1,1.7499,2.318575585,1,5,7,2,30,2,1,,,,,,,,,,,,,,
,,,,,,,,,,,right.png,,p,left,611bef869f91f800ad3b193e,2021-10-22_17h15.57.692,arrow_simon_punish,2021.1.2,Win32,59.96641881,,,,,,,,,,,,,,p,1,1.8169,2.156009697,1,5,7,3,31,0,1,,,,,,,,,,,,,,
,,,,,,,,,,,left.png,,w,right,611bef869f91f800ad3b193e,2021-10-22_17h15.57.692,arrow_simon_punish,2021.1.2,Win32,59.96641881,,,,,,,,,,,,,,w,1,1.9669,2.459039355,1,5,8,0,32,3,1,,,,,,,,,,,,,,
,,,,,,,,,,,left.png,,w,left,611bef869f91f800ad3b193e,2021-10-22_17h15.57.692,arrow_simon_punish,2021.1.2,Win32,59.96641881,,,,,,,,,,,,,,w,1,1.3656,1.572421955,1,5,8,1,33,2,1,,,,,,,,,,,,,,
,,,,,,,,,,,left.png,,w,right,611bef869f91f800ad3b193e,2021-10-22_17h15.57.692,arrow_simon_punish,2021.1.2,Win32,59.96641881,,,,,,,,,,,,,,w,1,1.4668,1.624854454,0,5,8,2,34,3,1,,,,,,,,,,,,,,
,,,,,,,,,,,right.png,,p,right,611bef869f91f800ad3b193e,2021-10-22_17h15.57.692,arrow_simon_punish,2021.1.2,Win32,59.96641881,,,,,,,,,,,,,,p,1,1.5323,1.972896565,0,5,8,3,35,1,1,,,,,,,,,,,,,,
,,,,,,,,,,,right.png,,p,left,611bef869f91f800ad3b193e,2021-10-22_17h15.57.692,arrow_simon_punish,2021.1.2,Win32,59.96641881,,,,,,,,,,,,,,p,1,1.5841,1.674746734,0,5,9,0,36,0,1,,,,,,,,,,,,,,
,,,,,,,,,,,right.png,,p,left,611bef869f91f800ad3b193e,2021-10-22_17h15.57.692,arrow_simon_punish,2021.1.2,Win32,59.96641881,,,,,,,,,,,,,,p,1,1.666,1.960250555,1,5,9,1,37,0,1,,,,,,,,,,,,,,
,,,,,,,,,,,right.png,,p,left,611bef869f91f800ad3b193e,2021-10-22_17h15.57.692,arrow_simon_punish,2021.1.2,Win32,59.96641881,,,,,,,,,,,,,,p,1,1.5848,1.845932252,0,5,9,2,38,0,1,,,,,,,,,,,,,,
,,,,,,,,,,,left.png,,w,left,611bef869f91f800ad3b193e,2021-10-22_17h15.57.692,arrow_simon_punish,2021.1.2,Win32,59.96641881,,,,,,,,,,,,,,w,1,2.0831,2.46046692,1,5,9,3,39,2,1,,,,,,,,,,,,,,
,,,,,,,,,,,left.png,,w,left,611bef869f91f800ad3b193e,2021-10-22_17h15.57.692,arrow_simon_punish,2021.1.2,Win32,59.96641881,,,,,,,,,,,,,,w,1,1.5167,1.848759552,0,5,10,0,40,2,1,,,,,,,,,,,,,,
,,,,,,,,,,,right.png,,p,left,611bef869f91f800ad3b193e,2021-10-22_17h15.57.692,arrow_simon_punish,2021.1.2,Win32,59.96641881,,,,,,,,,,,,,,p,1,1.456,1.553743495,0,5,10,1,41,0,1,,,,,,,,,,,,,,
,,,,,,,,,,,left.png,,w,left,611bef869f91f800ad3b193e,2021-10-22_17h15.57.692,arrow_simon_punish,2021.1.2,Win32,59.96641881,,,,,,,,,,,,,,w,1,2.0368,2.495261439,1,5,10,2,42,2,1,,,,,,,,,,,,,,
,,,,,,,,,,,right.png,,p,right,611bef869f91f800ad3b193e,2021-10-22_17h15.57.692,arrow_simon_punish,2021.1.2,Win32,59.96641881,,,,,,,,,,,,,,p,1,1.8917,2.47010839,1,5,10,3,43,1,1,,,,,,,,,,,,,,
,,,,,,,,,,,left.png,,w,right,611bef869f91f800ad3b193e,2021-10-22_17h15.57.692,arrow_simon_punish,2021.1.2,Win32,59.96641881,,,,,,,,,,,,,,w,1,1.3533,1.579188578,1,5,11,0,44,3,1,,,,,,,,,,,,,,
,,,,,,,,,,,right.png,,p,left,611bef869f91f800ad3b193e,2021-10-22_17h15.57.692,arrow_simon_punish,2021.1.2,Win32,59.96641881,,,,,,,,,,,,,,w,0,1.5861,2.221895835,1,5,11,1,45,0,1,,,,,,,,,,,,,,
,,,,,,,,,,,left.png,,w,right,611bef869f91f800ad3b193e,2021-10-22_17h15.57.692,arrow_simon_punish,2021.1.2,Win32,59.96641881,,,,,,,,,,,,,,w,1,1.7942,2.221257437,1,5,11,2,46,3,1,,,,,,,,,,,,,,
,,,,,,,,,,,right.png,,p,left,611bef869f91f800ad3b193e,2021-10-22_17h15.57.692,arrow_simon_punish,2021.1.2,Win32,59.96641881,,,,,,,,,,,,,,p,1,1.5003,1.74279725,0,5,11,3,47,0,1,,,,,,,,,,,,,,
,,,,,,,,,,,right.png,,p,right,611bef869f91f800ad3b193e,2021-10-22_17h15.57.692,arrow_simon_punish,2021.1.2,Win32,59.96641881,,,,,,,,,,,,,,p,1,1.6,1.8875013,0,5,12,0,48,1,1,,,,,,,,,,,,,,
,,,,,,,,,,,left.png,,w,right,611bef869f91f800ad3b193e,2021-10-22_17h15.57.692,arrow_simon_punish,2021.1.2,Win32,59.96641881,,,,,,,,,,,,,,w,1,1.5673,1.748467304,0,5,12,1,49,3,1,,,,,,,,,,,,,,
,,,,,,,,,,,right.png,,p,right,611bef869f91f800ad3b193e,2021-10-22_17h15.57.692,arrow_simon_punish,2021.1.2,Win32,59.96641881,,,,,,,,,,,,,,p,1,1.617,1.967094318,1,5,12,2,50,1,1,,,,,,,,,,,,,,
,,,,,,,,,,,left.png,,w,left,611bef869f91f800ad3b193e,2021-10-22_17h15.57.692,arrow_simon_punish,2021.1.2,Win32,59.96641881,,,,,,,,,,,,,,w,1,1.6003,2.085329344,1,5,12,3,51,2,1,,,,,,,,,,,,,,
,,,,,,,,,,,right.png,,p,left,611bef869f91f800ad3b193e,2021-10-22_17h15.57.692,arrow_simon_punish,2021.1.2,Win32,59.96641881,,,,,,,,,,,,,,p,1,1.5192,1.847471563,0,5,13,0,52,0,1,,,,,,,,,,,,,,
,,,,,,,,,,,right.png,,p,right,611bef869f91f800ad3b193e,2021-10-22_17h15.57.692,arrow_simon_punish,2021.1.2,Win32,59.96641881,,,,,,,,,,,,,,p,1,1.4907,1.653768821,0,5,13,1,53,1,1,,,,,,,,,,,,,,
,,,,,,,,,,,right.png,,p,right,611bef869f91f800ad3b193e,2021-10-22_17h15.57.692,arrow_simon_punish,2021.1.2,Win32,59.96641881,,,,,,,,,,,,,,p,1,1.5422,1.624840009,0,5,13,2,54,1,1,,,,,,,,,,,,,,
,,,,,,,,,,,left.png,,w,right,611bef869f91f800ad3b193e,2021-10-22_17h15.57.692,arrow_simon_punish,2021.1.2,Win32,59.96641881,,,,,,,,,,,,,,w,1,1.7208,2.163538374,1,5,13,3,55,3,1,,,,,,,,,,,,,,
,,,,,,,,,,,left.png,,w,left,611bef869f91f800ad3b193e,2021-10-22_17h15.57.692,arrow_simon_punish,2021.1.2,Win32,59.96641881,,,,,,,,,,,,,,w,1,1.4669,1.660272838,0,5,14,0,56,2,1,,,,,,,,,,,,,,
,,,,,,,,,,,right.png,,p,left,611bef869f91f800ad3b193e,2021-10-22_17h15.57.692,arrow_simon_punish,2021.1.2,Win32,59.96641881,,,,,,,,,,,,,,p,1,1.6105,1.92788202,1,5,14,1,57,0,1,,,,,,,,,,,,,,
,,,,,,,,,,,right.png,,p,right,611bef869f91f800ad3b193e,2021-10-22_17h15.57.692,arrow_simon_punish,2021.1.2,Win32,59.96641881,,,,,,,,,,,,,,p,1,1.5332,1.581926307,0,5,14,2,58,1,1,,,,,,,,,,,,,,
,,,,,,,,,,,left.png,,w,right,611bef869f91f800ad3b193e,2021-10-22_17h15.57.692,arrow_simon_punish,2021.1.2,Win32,59.96641881,,,,,,,,,,,,,,w,1,1.4708,1.545848115,0,5,14,3,59,3,1,,,,,,,,,,,,,,
,,,,,,,,,,,,,,,611bef869f91f800ad3b193e,2021-10-22_17h15.57.692,arrow_simon_punish,2021.1.2,Win32,59.96641881,,,,,,,,,,,,,,,,,,,,,,,,,space,5.6383,7,2,1,5,1,1,5,,,,,
,,,,,,,,,,,left.png,,w,right,611bef869f91f800ad3b193e,2021-10-22_17h15.57.692,arrow_simon_punish,2021.1.2,Win32,59.96641881,,,,,,,,,,,,,,w,1,1.6335,2.01067757,1,1,0,0,0,3,1,,,,,,,,,,,,,,
,,,,,,,,,,,left.png,,w,left,611bef869f91f800ad3b193e,2021-10-22_17h15.57.692,arrow_simon_punish,2021.1.2,Win32,59.96641881,,,,,,,,,,,,,,w,1,1.4721,1.754508671,0,1,0,1,1,2,1,,,,,,,,,,,,,,
,,,,,,,,,,,left.png,,w,right,611bef869f91f800ad3b193e,2021-10-22_17h15.57.692,arrow_simon_punish,2021.1.2,Win32,59.96641881,,,,,,,,,,,,,,p,0,1.7999,2.445584001,1,1,0,2,2,3,1,,,,,,,,,,,,,,
,,,,,,,,,,,right.png,,p,right,611bef869f91f800ad3b193e,2021-10-22_17h15.57.692,arrow_simon_punish,2021.1.2,Win32,59.96641881,,,,,,,,,,,,,,p,1,1.4522,1.673425426,0,1,0,3,3,1,1,,,,,,,,,,,,,,
,,,,,,,,,,,left.png,,w,right,611bef869f91f800ad3b193e,2021-10-22_17h15.57.692,arrow_simon_punish,2021.1.2,Win32,59.96641881,,,,,,,,,,,,,,w,1,1.5226,1.77742573,0,1,1,0,4,3,1,,,,,,,,,,,,,,
,,,,,,,,,,,right.png,,p,left,611bef869f91f800ad3b193e,2021-10-22_17h15.57.692,arrow_simon_punish,2021.1.2,Win32,59.96641881,,,,,,,,,,,,,,w,0,1.8334,2.326219654,1,1,1,1,5,0,1,,,,,,,,,,,,,,
,,,,,,,,,,,left.png,,w,right,611bef869f91f800ad3b193e,2021-10-22_17h15.57.692,arrow_simon_punish,2021.1.2,Win32,59.96641881,,,,,,,,,,,,,,w,1,1.8843,2.322992935,1,1,1,2,6,3,1,,,,,,,,,,,,,,
,,,,,,,,,,,left.png,,w,right,611bef869f91f800ad3b193e,2021-10-22_17h15.57.692,arrow_simon_punish,2021.1.2,Win32,59.96641881,,,,,,,,,,,,,,w,1,1.5058,1.847759732,0,1,1,3,7,3,1,,,,,,,,,,,,,,
,,,,,,,,,,,left.png,,w,left,611bef869f91f800ad3b193e,2021-10-22_17h15.57.692,arrow_simon_punish,2021.1.2,Win32,59.96641881,,,,,,,,,,,,,,w,1,1.5158,1.725433875,0,1,2,0,8,2,1,,,,,,,,,,,,,,
,,,,,,,,,,,right.png,,p,left,611bef869f91f800ad3b193e,2021-10-22_17h15.57.692,arrow_simon_punish,2021.1.2,Win32,59.96641881,,,,,,,,,,,,,,p,1,1.721,2.060438239,1,1,2,1,9,0,1,,,,,,,,,,,,,,
,,,,,,,,,,,left.png,,w,left,611bef869f91f800ad3b193e,2021-10-22_17h15.57.692,arrow_simon_punish,2021.1.2,Win32,59.96641881,,,,,,,,,,,,,,w,1,1.4769,1.779224594,0,1,2,2,10,2,1,,,,,,,,,,,,,,
,,,,,,,,,,,left.png,,w,left,611bef869f91f800ad3b193e,2021-10-22_17h15.57.692,arrow_simon_punish,2021.1.2,Win32,59.96641881,,,,,,,,,,,,,,w,1,1.8006,2.308464059,1,1,2,3,11,2,1,,,,,,,,,,,,,,
,,,,,,,,,,,right.png,,p,right,611bef869f91f800ad3b193e,2021-10-22_17h15.57.692,arrow_simon_punish,2021.1.2,Win32,59.96641881,,,,,,,,,,,,,,p,1,1.7928,2.335358852,1,1,3,0,12,1,1,,,,,,,,,,,,,,
,,,,,,,,,,,left.png,,w,left,611bef869f91f800ad3b193e,2021-10-22_17h15.57.692,arrow_simon_punish,2021.1.2,Win32,59.96641881,,,,,,,,,,,,,,w,1,1.5667,1.894040873,0,1,3,1,13,2,1,,,,,,,,,,,,,,
,,,,,,,,,,,left.png,,w,left,611bef869f91f800ad3b193e,2021-10-22_17h15.57.692,arrow_simon_punish,2021.1.2,Win32,59.96641881,,,,,,,,,,,,,,w,1,1.6108,2.066396601,1,1,3,2,14,2,1,,,,,,,,,,,,,,
,,,,,,,,,,,left.png,,w,left,611bef869f91f800ad3b193e,2021-10-22_17h15.57.692,arrow_simon_punish,2021.1.2,Win32,59.96641881,,,,,,,,,,,,,,w,1,1.7227,2.320743876,1,1,3,3,15,2,1,,,,,,,,,,,,,,
,,,,,,,,,,,left.png,,w,right,611bef869f91f800ad3b193e,2021-10-22_17h15.57.692,arrow_simon_punish,2021.1.2,Win32,59.96641881,,,,,,,,,,,,,,p,0,1.8999,2.484916442,1,1,4,0,16,3,1,,,,,,,,,,,,,,
,,,,,,,,,,,left.png,,w,right,611bef869f91f800ad3b193e,2021-10-22_17h15.57.692,arrow_simon_punish,2021.1.2,Win32,59.96641881,,,,,,,,,,,,,,w,1,1.95,2.424408467,1,1,4,1,17,3,1,,,,,,,,,,,,,,
,,,,,,,,,,,right.png,,p,left,611bef869f91f800ad3b193e,2021-10-22_17h15.57.692,arrow_simon_punish,2021.1.2,Win32,59.96641881,,,,,,,,,,,,,,p,1,1.3397,1.565818812,1,1,4,2,18,0,1,,,,,,,,,,,,,,
,,,,,,,,,,,left.png,,w,right,611bef869f91f800ad3b193e,2021-10-22_17h15.57.692,arrow_simon_punish,2021.1.2,Win32,59.96641881,,,,,,,,,,,,,,w,1,1.5333,1.54610761,0,1,4,3,19,3,1,,,,,,,,,,,,,,
,,,,,,,,,,,right.png,,p,left,611bef869f91f800ad3b193e,2021-10-22_17h15.57.692,arrow_simon_punish,2021.1.2,Win32,59.96641881,,,,,,,,,,,,,,p,1,2.2489,2.471526414,1,1,5,0,20,0,1,,,,,,,,,,,,,,
,,,,,,,,,,,left.png,,w,left,611bef869f91f800ad3b193e,2021-10-22_17h15.57.692,arrow_simon_punish,2021.1.2,Win32,59.96641881,,,,,,,,,,,,,,w,1,1.4553,1.846914887,0,1,5,1,21,2,1,,,,,,,,,,,,,,
,,,,,,,,,,,right.png,,p,right,611bef869f91f800ad3b193e,2021-10-22_17h15.57.692,arrow_simon_punish,2021.1.2,Win32,59.96641881,,,,,,,,,,,,,,p,1,1.732,2.360549063,1,1,5,2,22,1,1,,,,,,,,,,,,,,
,,,,,,,,,,,left.png,,w,right,611bef869f91f800ad3b193e,2021-10-22_17h15.57.692,arrow_simon_punish,2021.1.2,Win32,59.96641881,,,,,,,,,,,,,,w,1,1.7598,2.081232427,1,1,5,3,23,3,1,,,,,,,,,,,,,,
,,,,,,,,,,,right.png,,p,right,611bef869f91f800ad3b193e,2021-10-22_17h15.57.692,arrow_simon_punish,2021.1.2,Win32,59.96641881,,,,,,,,,,,,,,p,1,1.5768,2.347317242,0,1,6,0,24,1,1,,,,,,,,,,,,,,
,,,,,,,,,,,left.png,,w,right,611bef869f91f800ad3b193e,2021-10-22_17h15.57.692,arrow_simon_punish,2021.1.2,Win32,59.96641881,,,,,,,,,,,,,,p,0,1.4511,2.068744438,1,1,6,1,25,3,1,,,,,,,,,,,,,,
,,,,,,,,,,,right.png,,p,right,611bef869f91f800ad3b193e,2021-10-22_17h15.57.692,arrow_simon_punish,2021.1.2,Win32,59.96641881,,,,,,,,,,,,,,p,1,1.4877,1.661240565,0,1,6,2,26,1,1,,,,,,,,,,,,,,
,,,,,,,,,,,right.png,,p,left,611bef869f91f800ad3b193e,2021-10-22_17h15.57.692,arrow_simon_punish,2021.1.2,Win32,59.96641881,,,,,,,,,,,,,,p,1,1.5722,1.647527765,0,1,6,3,27,0,1,,,,,,,,,,,,,,
,,,,,,,,,,,right.png,,p,left,611bef869f91f800ad3b193e,2021-10-22_17h15.57.692,arrow_simon_punish,2021.1.2,Win32,59.96641881,,,,,,,,,,,,,,p,1,1.7021,2.198158714,1,1,7,0,28,0,1,,,,,,,,,,,,,,
,,,,,,,,,,,left.png,,w,left,611bef869f91f800ad3b193e,2021-10-22_17h15.57.692,arrow_simon_punish,2021.1.2,Win32,59.96641881,,,,,,,,,,,,,,w,1,1.538,1.597947067,0,1,7,1,29,2,1,,,,,,,,,,,,,,
,,,,,,,,,,,right.png,,p,left,611bef869f91f800ad3b193e,2021-10-22_17h15.57.692,arrow_simon_punish,2021.1.2,Win32,59.96641881,,,,,,,,,,,,,,w,0,2.084,2.423064093,1,1,7,2,30,0,1,,,,,,,,,,,,,,
,,,,,,,,,,,left.png,,w,right,611bef869f91f800ad3b193e,2021-10-22_17h15.57.692,arrow_simon_punish,2021.1.2,Win32,59.96641881,,,,,,,,,,,,,,w,1,1.8,2.204157911,1,1,7,3,31,3,1,,,,,,,,,,,,,,
,,,,,,,,,,,right.png,,p,left,611bef869f91f800ad3b193e,2021-10-22_17h15.57.692,arrow_simon_punish,2021.1.2,Win32,59.96641881,,,,,,,,,,,,,,p,1,1.6726,2.074778627,1,1,8,0,32,0,1,,,,,,,,,,,,,,
,,,,,,,,,,,right.png,,p,left,611bef869f91f800ad3b193e,2021-10-22_17h15.57.692,arrow_simon_punish,2021.1.2,Win32,59.96641881,,,,,,,,,,,,,,p,1,1.5098,1.910627753,0,1,8,1,33,0,1,,,,,,,,,,,,,,
,,,,,,,,,,,left.png,,w,right,611bef869f91f800ad3b193e,2021-10-22_17h15.57.692,arrow_simon_punish,2021.1.2,Win32,59.96641881,,,,,,,,,,,,,,w,1,1.4834,1.851922691,0,1,8,2,34,3,1,,,,,,,,,,,,,,
,,,,,,,,,,,right.png,,p,right,611bef869f91f800ad3b193e,2021-10-22_17h15.57.692,arrow_simon_punish,2021.1.2,Win32,59.96641881,,,,,,,,,,,,,,p,1,1.5504,2.018343763,0,1,8,3,35,1,1,,,,,,,,,,,,,,
,,,,,,,,,,,right.png,,p,right,611bef869f91f800ad3b193e,2021-10-22_17h15.57.692,arrow_simon_punish,2021.1.2,Win32,59.96641881,,,,,,,,,,,,,,p,1,1.5682,1.934288405,0,1,9,0,36,1,1,,,,,,,,,,,,,,
,,,,,,,,,,,left.png,,w,right,611bef869f91f800ad3b193e,2021-10-22_17h15.57.692,arrow_simon_punish,2021.1.2,Win32,59.96641881,,,,,,,,,,,,,,w,1,1.6342,1.587007465,1,1,9,1,37,3,1,,,,,,,,,,,,,,
,,,,,,,,,,,left.png,,w,left,611bef869f91f800ad3b193e,2021-10-22_17h15.57.692,arrow_simon_punish,2021.1.2,Win32,59.96641881,,,,,,,,,,,,,,w,1,2.0169,2.442794491,1,1,9,2,38,2,1,,,,,,,,,,,,,,
,,,,,,,,,,,left.png,,w,left,611bef869f91f800ad3b193e,2021-10-22_17h15.57.692,arrow_simon_punish,2021.1.2,Win32,59.96641881,,,,,,,,,,,,,,w,1,1.5673,1.968847544,0,1,9,3,39,2,1,,,,,,,,,,,,,,
,,,,,,,,,,,right.png,,p,right,611bef869f91f800ad3b193e,2021-10-22_17h15.57.692,arrow_simon_punish,2021.1.2,Win32,59.96641881,,,,,,,,,,,,,,p,1,1.5052,2.086471575,0,1,10,0,40,1,1,,,,,,,,,,,,,,
,,,,,,,,,,,right.png,,p,left,611bef869f91f800ad3b193e,2021-10-22_17h15.57.692,arrow_simon_punish,2021.1.2,Win32,59.96641881,,,,,,,,,,,,,,p,1,1.5076,1.805912342,0,1,10,1,41,0,1,,,,,,,,,,,,,,
,,,,,,,,,,,left.png,,w,left,611bef869f91f800ad3b193e,2021-10-22_17h15.57.692,arrow_simon_punish,2021.1.2,Win32,59.96641881,,,,,,,,,,,,,,w,1,1.467,1.600048093,0,1,10,2,42,2,1,,,,,,,,,,,,,,
,,,,,,,,,,,left.png,,w,left,611bef869f91f800ad3b193e,2021-10-22_17h15.57.692,arrow_simon_punish,2021.1.2,Win32,59.96641881,,,,,,,,,,,,,,w,1,1.9509,2.490112449,1,1,10,3,43,2,1,,,,,,,,,,,,,,
,,,,,,,,,,,right.png,,p,right,611bef869f91f800ad3b193e,2021-10-22_17h15.57.692,arrow_simon_punish,2021.1.2,Win32,59.96641881,,,,,,,,,,,,,,p,1,1.6989,2.325836737,1,1,11,0,44,1,1,,,,,,,,,,,,,,
,,,,,,,,,,,right.png,,p,right,611bef869f91f800ad3b193e,2021-10-22_17h15.57.692,arrow_simon_punish,2021.1.2,Win32,59.96641881,,,,,,,,,,,,,,p,1,1.3397,1.575238177,1,1,11,1,45,1,1,,,,,,,,,,,,,,
,,,,,,,,,,,left.png,,w,left,611bef869f91f800ad3b193e,2021-10-22_17h15.57.692,arrow_simon_punish,2021.1.2,Win32,59.96641881,,,,,,,,,,,,,,w,1,1.7022,2.23686911,1,1,11,2,46,2,1,,,,,,,,,,,,,,
,,,,,,,,,,,right.png,,p,right,611bef869f91f800ad3b193e,2021-10-22_17h15.57.692,arrow_simon_punish,2021.1.2,Win32,59.96641881,,,,,,,,,,,,,,p,1,1.2174,1.681049383,1,1,11,3,47,1,1,,,,,,,,,,,,,,
,,,,,,,,,,,right.png,,p,right,611bef869f91f800ad3b193e,2021-10-22_17h15.57.692,arrow_simon_punish,2021.1.2,Win32,59.96641881,,,,,,,,,,,,,,p,1,1.4883,1.633996686,0,1,12,0,48,1,1,,,,,,,,,,,,,,
,,,,,,,,,,,right.png,,p,left,611bef869f91f800ad3b193e,2021-10-22_17h15.57.692,arrow_simon_punish,2021.1.2,Win32,59.96641881,,,,,,,,,,,,,,w,0,1.7668,2.274016701,1,1,12,1,49,0,1,,,,,,,,,,,,,,
,,,,,,,,,,,right.png,,p,right,611bef869f91f800ad3b193e,2021-10-22_17h15.57.692,arrow_simon_punish,2021.1.2,Win32,59.96641881,,,,,,,,,,,,,,p,1,1.7098,2.144395826,1,1,12,2,50,1,1,,,,,,,,,,,,,,
,,,,,,,,,,,right.png,,p,left,611bef869f91f800ad3b193e,2021-10-22_17h15.57.692,arrow_simon_punish,2021.1.2,Win32,59.96641881,,,,,,,,,,,,,,w,0,1.6897,2.173725508,1,1,12,3,51,0,1,,,,,,,,,,,,,,
,,,,,,,,,,,left.png,,w,right,611bef869f91f800ad3b193e,2021-10-22_17h15.57.692,arrow_simon_punish,2021.1.2,Win32,59.96641881,,,,,,,,,,,,,,w,1,1.5275,1.571387562,0,1,13,0,52,3,1,,,,,,,,,,,,,,
,,,,,,,,,,,right.png,,p,left,611bef869f91f800ad3b193e,2021-10-22_17h15.57.692,arrow_simon_punish,2021.1.2,Win32,59.96641881,,,,,,,,,,,,,,p,1,1.5001,1.6370996,0,1,13,1,53,0,1,,,,,,,,,,,,,,
,,,,,,,,,,,right.png,,p,left,611bef869f91f800ad3b193e,2021-10-22_17h15.57.692,arrow_simon_punish,2021.1.2,Win32,59.96641881,,,,,,,,,,,,,,p,1,1.6667,1.956174708,1,1,13,2,54,0,1,,,,,,,,,,,,,,
,,,,,,,,,,,right.png,,p,right,611bef869f91f800ad3b193e,2021-10-22_17h15.57.692,arrow_simon_punish,2021.1.2,Win32,59.96641881,,,,,,,,,,,,,,p,1,1.5667,1.89491988,0,1,13,3,55,1,1,,,,,,,,,,,,,,
,,,,,,,,,,,left.png,,w,right,611bef869f91f800ad3b193e,2021-10-22_17h15.57.692,arrow_simon_punish,2021.1.2,Win32,59.96641881,,,,,,,,,,,,,,w,1,1.8836,2.273466329,1,1,14,0,56,3,1,,,,,,,,,,,,,,
,,,,,,,,,,,right.png,,p,right,611bef869f91f800ad3b193e,2021-10-22_17h15.57.692,arrow_simon_punish,2021.1.2,Win32,59.96641881,,,,,,,,,,,,,,p,1,1.4565,1.84661797,0,1,14,1,57,1,1,,,,,,,,,,,,,,
,,,,,,,,,,,right.png,,p,left,611bef869f91f800ad3b193e,2021-10-22_17h15.57.692,arrow_simon_punish,2021.1.2,Win32,59.96641881,,,,,,,,,,,,,,p,1,1.5152,1.865666494,0,1,14,2,58,0,1,,,,,,,,,,,,,,
,,,,,,,,,,,left.png,,w,left,611bef869f91f800ad3b193e,2021-10-22_17h15.57.692,arrow_simon_punish,2021.1.2,Win32,59.96641881,,,,,,,,,,,,,,w,1,1.7066,1.752913747,1,1,14,3,59,2,1,,,,,,,,,,,,,,
,,,,,,,,,,,,,,,611bef869f91f800ad3b193e,2021-10-22_17h15.57.692,arrow_simon_punish,2021.1.2,Win32,59.96641881,,,,,,,,,,,,,,,,,,,,,,,,,space,19.7086,8,3,0,6,0,1,1,,,,,
,,,,,,,,,,,right.png,,p,left,611bef869f91f800ad3b193e,2021-10-22_17h15.57.692,arrow_simon_punish,2021.1.2,Win32,59.96641881,,,,,,,,,,,,,,p,1,2.2331,2.437894327,1,5,0,0,0,0,1,,,,,,,,,,,,,,
,,,,,,,,,,,left.png,,w,right,611bef869f91f800ad3b193e,2021-10-22_17h15.57.692,arrow_simon_punish,2021.1.2,Win32,59.96641881,,,,,,,,,,,,,,w,1,1.8848,2.383643982,1,5,0,1,1,3,1,,,,,,,,,,,,,,
,,,,,,,,,,,right.png,,p,right,611bef869f91f800ad3b193e,2021-10-22_17h15.57.692,arrow_simon_punish,2021.1.2,Win32,59.96641881,,,,,,,,,,,,,,p,1,1.6834,2.161554917,1,5,0,2,2,1,1,,,,,,,,,,,,,,
,,,,,,,,,,,right.png,,p,right,611bef869f91f800ad3b193e,2021-10-22_17h15.57.692,arrow_simon_punish,2021.1.2,Win32,59.96641881,,,,,,,,,,,,,,p,1,1.2942,1.539042852,1,5,0,3,3,1,1,,,,,,,,,,,,,,
,,,,,,,,,,,right.png,,p,left,611bef869f91f800ad3b193e,2021-10-22_17h15.57.692,arrow_simon_punish,2021.1.2,Win32,59.96641881,,,,,,,,,,,,,,p,1,1.6001,1.647171517,1,5,1,0,4,0,1,,,,,,,,,,,,,,
,,,,,,,,,,,left.png,,w,left,611bef869f91f800ad3b193e,2021-10-22_17h15.57.692,arrow_simon_punish,2021.1.2,Win32,59.96641881,,,,,,,,,,,,,,w,1,1.8031,2.276971227,1,5,1,1,5,2,1,,,,,,,,,,,,,,
,,,,,,,,,,,left.png,,w,right,611bef869f91f800ad3b193e,2021-10-22_17h15.57.692,arrow_simon_punish,2021.1.2,Win32,59.96641881,,,,,,,,,,,,,,w,1,1.4906,1.838182038,0,5,1,2,6,3,1,,,,,,,,,,,,,,
,,,,,,,,,,,left.png,,w,left,611bef869f91f800ad3b193e,2021-10-22_17h15.57.692,arrow_simon_punish,2021.1.2,Win32,59.96641881,,,,,,,,,,,,,,w,1,1.6393,2.16851127,1,5,1,3,7,2,1,,,,,,,,,,,,,,
,,,,,,,,,,,left.png,,w,left,611bef869f91f800ad3b193e,2021-10-22_17h15.57.692,arrow_simon_punish,2021.1.2,Win32,59.96641881,,,,,,,,,,,,,,w,1,1.5334,1.647374384,0,5,2,0,8,2,1,,,,,,,,,,,,,,
