instruct_resp_simon.keys,instruct_resp_simon.corr,instruct_resp_simon.rt,trial_resp_simon.keys,trial_resp_simon.corr,trial_resp_simon.rt,trials_train_simon.thisRepN,trials_train_simon.thisTrialN,trials_train_simon.thisN,trials_train_simon.thisIndex,trials_train_simon.ran,target_file,target_pos,target_resp,target_side,participant,date,expName,psychopyVersion,OS,frameRate,instruct_resp_timing.keys,instruct_resp_timing.corr,instruct_resp_timing.rt,trial_resp_timing.keys,trial_resp_timing.rt,trials_train_timing.thisRepN,trials_train_timing.thisTrialN,trials_train_timing.thisN,trials_train_timing.thisIndex,trials_train_timing.ran,instruct_resp.keys,instruct_resp.corr,instruct_resp.rt,trial_resp.keys,trial_resp.corr,trial_resp.rt,target_onset,err,pun,trials.thisRepN,trials.thisTrialN,trials.thisN,trials.thisIndex,trials.ran,block_note_resp.keys,block_note_resp.rt,block_num,blocks.thisRepN,blocks.thisTrialN,blocks.thisN,blocks.thisIndex,blocks.ran,punish,complete_resp.keys,complete_resp.rt,raffle_trial,raffle_err,raffle_rew
space,0,28.9682,w,0,1.0491,0,0,0,0,1,right.png,,p,left,61329758a6a8f07ab3d640cf,2021-10-27_10h42.26.542,arrow_simon_punish,2021.1.2,Win32,59.21013678,,,,,,,,,,,,,,,,,,,,,,,,,,,,,,,,,,,,,,
,,,w,0,1.3588,0,1,1,1,1,right.png,,p,right,61329758a6a8f07ab3d640cf,2021-10-27_10h42.26.542,arrow_simon_punish,2021.1.2,Win32,59.21013678,,,,,,,,,,,,,,,,,,,,,,,,,,,,,,,,,,,,,,
,,,w,1,1.2588,0,2,2,2,1,left.png,,w,left,61329758a6a8f07ab3d640cf,2021-10-27_10h42.26.542,arrow_simon_punish,2021.1.2,Win32,59.21013678,,,,,,,,,,,,,,,,,,,,,,,,,,,,,,,,,,,,,,
,,,w,1,1.0757,0,3,3,3,1,left.png,,w,right,61329758a6a8f07ab3d640cf,2021-10-27_10h42.26.542,arrow_simon_punish,2021.1.2,Win32,59.21013678,,,,,,,,,,,,,,,,,,,,,,,,,,,,,,,,,,,,,,
,,,p,1,1.4752,1,0,4,1,1,right.png,,p,right,61329758a6a8f07ab3d640cf,2021-10-27_10h42.26.542,arrow_simon_punish,2021.1.2,Win32,59.21013678,,,,,,,,,,,,,,,,,,,,,,,,,,,,,,,,,,,,,,
,,,w,1,1.3921,1,1,5,2,1,left.png,,w,left,61329758a6a8f07ab3d640cf,2021-10-27_10h42.26.542,arrow_simon_punish,2021.1.2,Win32,59.21013678,,,,,,,,,,,,,,,,,,,,,,,,,,,,,,,,,,,,,,
,,,p,1,1.3756,1,2,6,0,1,right.png,,p,left,61329758a6a8f07ab3d640cf,2021-10-27_10h42.26.542,arrow_simon_punish,2021.1.2,Win32,59.21013678,,,,,,,,,,,,,,,,,,,,,,,,,,,,,,,,,,,,,,
,,,w,1,1.5755,1,3,7,3,1,left.png,,w,right,61329758a6a8f07ab3d640cf,2021-10-27_10h42.26.542,arrow_simon_punish,2021.1.2,Win32,59.21013678,,,,,,,,,,,,,,,,,,,,,,,,,,,,,,,,,,,,,,
,,,w,1,1.0422,2,0,8,3,1,left.png,,w,right,61329758a6a8f07ab3d640cf,2021-10-27_10h42.26.542,arrow_simon_punish,2021.1.2,Win32,59.21013678,,,,,,,,,,,,,,,,,,,,,,,,,,,,,,,,,,,,,,
,,,w,1,2.0587,2,1,9,2,1,left.png,,w,left,61329758a6a8f07ab3d640cf,2021-10-27_10h42.26.542,arrow_simon_punish,2021.1.2,Win32,59.21013678,,,,,,,,,,,,,,,,,,,,,,,,,,,,,,,,,,,,,,
,,,p,1,0.7756,2,2,10,0,1,right.png,,p,left,61329758a6a8f07ab3d640cf,2021-10-27_10h42.26.542,arrow_simon_punish,2021.1.2,Win32,59.21013678,,,,,,,,,,,,,,,,,,,,,,,,,,,,,,,,,,,,,,
,,,w,0,1.5258,2,3,11,1,1,right.png,,p,right,61329758a6a8f07ab3d640cf,2021-10-27_10h42.26.542,arrow_simon_punish,2021.1.2,Win32,59.21013678,,,,,,,,,,,,,,,,,,,,,,,,,,,,,,,,,,,,,,
,,,p,1,1.4752,3,0,12,1,1,right.png,,p,right,61329758a6a8f07ab3d640cf,2021-10-27_10h42.26.542,arrow_simon_punish,2021.1.2,Win32,59.21013678,,,,,,,,,,,,,,,,,,,,,,,,,,,,,,,,,,,,,,
,,,w,1,1.2255,3,1,13,3,1,left.png,,w,right,61329758a6a8f07ab3d640cf,2021-10-27_10h42.26.542,arrow_simon_punish,2021.1.2,Win32,59.21013678,,,,,,,,,,,,,,,,,,,,,,,,,,,,,,,,,,,,,,
,,,w,1,1.1418,3,2,14,2,1,left.png,,w,left,61329758a6a8f07ab3d640cf,2021-10-27_10h42.26.542,arrow_simon_punish,2021.1.2,Win32,59.21013678,,,,,,,,,,,,,,,,,,,,,,,,,,,,,,,,,,,,,,
,,,p,1,0.6757,3,3,15,0,1,right.png,,p,left,61329758a6a8f07ab3d640cf,2021-10-27_10h42.26.542,arrow_simon_punish,2021.1.2,Win32,59.21013678,,,,,,,,,,,,,,,,,,,,,,,,,,,,,,,,,,,,,,
,,,w,1,1.0087,4,0,16,3,1,left.png,,w,right,61329758a6a8f07ab3d640cf,2021-10-27_10h42.26.542,arrow_simon_punish,2021.1.2,Win32,59.21013678,,,,,,,,,,,,,,,,,,,,,,,,,,,,,,,,,,,,,,
,,,p,1,0.7591,4,1,17,0,1,right.png,,p,left,61329758a6a8f07ab3d640cf,2021-10-27_10h42.26.542,arrow_simon_punish,2021.1.2,Win32,59.21013678,,,,,,,,,,,,,,,,,,,,,,,,,,,,,,,,,,,,,,
,,,w,1,1.8587,4,2,18,2,1,left.png,,w,left,61329758a6a8f07ab3d640cf,2021-10-27_10h42.26.542,arrow_simon_punish,2021.1.2,Win32,59.21013678,,,,,,,,,,,,,,,,,,,,,,,,,,,,,,,,,,,,,,
,,,p,1,1.0753,4,3,19,1,1,right.png,,p,right,61329758a6a8f07ab3d640cf,2021-10-27_10h42.26.542,arrow_simon_punish,2021.1.2,Win32,59.21013678,,,,,,,,,,,,,,,,,,,,,,,,,,,,,,,,,,,,,,
,,,w,1,1.1749,5,0,20,3,1,left.png,,w,right,61329758a6a8f07ab3d640cf,2021-10-27_10h42.26.542,arrow_simon_punish,2021.1.2,Win32,59.21013678,,,,,,,,,,,,,,,,,,,,,,,,,,,,,,,,,,,,,,
,,,p,1,1.5251,5,1,21,0,1,right.png,,p,left,61329758a6a8f07ab3d640cf,2021-10-27_10h42.26.542,arrow_simon_punish,2021.1.2,Win32,59.21013678,,,,,,,,,,,,,,,,,,,,,,,,,,,,,,,,,,,,,,
,,,w,1,0.9417,5,2,22,2,1,left.png,,w,left,61329758a6a8f07ab3d640cf,2021-10-27_10h42.26.542,arrow_simon_punish,2021.1.2,Win32,59.21013678,,,,,,,,,,,,,,,,,,,,,,,,,,,,,,,,,,,,,,
,,,p,1,1.3256,5,3,23,1,1,right.png,,p,right,61329758a6a8f07ab3d640cf,2021-10-27_10h42.26.542,arrow_simon_punish,2021.1.2,Win32,59.21013678,,,,,,,,,,,,,,,,,,,,,,,,,,,,,,,,,,,,,,
,,,p,1,0.6427,6,0,24,0,1,right.png,,p,left,61329758a6a8f07ab3d640cf,2021-10-27_10h42.26.542,arrow_simon_punish,2021.1.2,Win32,59.21013678,,,,,,,,,,,,,,,,,,,,,,,,,,,,,,,,,,,,,,
,,,w,1,0.5578,6,1,25,3,1,left.png,,w,right,61329758a6a8f07ab3d640cf,2021-10-27_10h42.26.542,arrow_simon_punish,2021.1.2,Win32,59.21013678,,,,,,,,,,,,,,,,,,,,,,,,,,,,,,,,,,,,,,
,,,p,1,1.3592,6,2,26,1,1,right.png,,p,right,61329758a6a8f07ab3d640cf,2021-10-27_10h42.26.542,arrow_simon_punish,2021.1.2,Win32,59.21013678,,,,,,,,,,,,,,,,,,,,,,,,,,,,,,,,,,,,,,
,,,w,1,0.5257,6,3,27,2,1,left.png,,w,left,61329758a6a8f07ab3d640cf,2021-10-27_10h42.26.542,arrow_simon_punish,2021.1.2,Win32,59.21013678,,,,,,,,,,,,,,,,,,,,,,,,,,,,,,,,,,,,,,
,,,p,1,0.8255,7,0,28,0,1,right.png,,p,left,61329758a6a8f07ab3d640cf,2021-10-27_10h42.26.542,arrow_simon_punish,2021.1.2,Win32,59.21013678,,,,,,,,,,,,,,,,,,,,,,,,,,,,,,,,,,,,,,
,,,p,1,1.2255,7,1,29,1,1,right.png,,p,right,61329758a6a8f07ab3d640cf,2021-10-27_10h42.26.542,arrow_simon_punish,2021.1.2,Win32,59.21013678,,,,,,,,,,,,,,,,,,,,,,,,,,,,,,,,,,,,,,
,,,w,1,0.5948,7,2,30,2,1,left.png,,w,left,61329758a6a8f07ab3d640cf,2021-10-27_10h42.26.542,arrow_simon_punish,2021.1.2,Win32,59.21013678,,,,,,,,,,,,,,,,,,,,,,,,,,,,,,,,,,,,,,
,,,w,1,1.2923,7,3,31,3,1,left.png,,w,right,61329758a6a8f07ab3d640cf,2021-10-27_10h42.26.542,arrow_simon_punish,2021.1.2,Win32,59.21013678,,,,,,,,,,,,,,,,,,,,,,,,,,,,,,,,,,,,,,
,,,p,1,0.9756,8,0,32,1,1,right.png,,p,right,61329758a6a8f07ab3d640cf,2021-10-27_10h42.26.542,arrow_simon_punish,2021.1.2,Win32,59.21013678,,,,,,,,,,,,,,,,,,,,,,,,,,,,,,,,,,,,,,
,,,w,1,1.4259,8,1,33,3,1,left.png,,w,right,61329758a6a8f07ab3d640cf,2021-10-27_10h42.26.542,arrow_simon_punish,2021.1.2,Win32,59.21013678,,,,,,,,,,,,,,,,,,,,,,,,,,,,,,,,,,,,,,
,,,p,1,1.0091,8,2,34,0,1,right.png,,p,left,61329758a6a8f07ab3d640cf,2021-10-27_10h42.26.542,arrow_simon_punish,2021.1.2,Win32,59.21013678,,,,,,,,,,,,,,,,,,,,,,,,,,,,,,,,,,,,,,
,,,w,1,1.0755,8,3,35,2,1,left.png,,w,left,61329758a6a8f07ab3d640cf,2021-10-27_10h42.26.542,arrow_simon_punish,2021.1.2,Win32,59.21013678,,,,,,,,,,,,,,,,,,,,,,,,,,,,,,,,,,,,,,
,,,p,1,0.5088,9,0,36,1,1,right.png,,p,right,61329758a6a8f07ab3d640cf,2021-10-27_10h42.26.542,arrow_simon_punish,2021.1.2,Win32,59.21013678,,,,,,,,,,,,,,,,,,,,,,,,,,,,,,,,,,,,,,
,,,w,1,1.3435,9,1,37,2,1,left.png,,w,left,61329758a6a8f07ab3d640cf,2021-10-27_10h42.26.542,arrow_simon_punish,2021.1.2,Win32,59.21013678,,,,,,,,,,,,,,,,,,,,,,,,,,,,,,,,,,,,,,
,,,p,1,0.7252,9,2,38,0,1,right.png,,p,left,61329758a6a8f07ab3d640cf,2021-10-27_10h42.26.542,arrow_simon_punish,2021.1.2,Win32,59.21013678,,,,,,,,,,,,,,,,,,,,,,,,,,,,,,,,,,,,,,
,,,w,1,0.7779,9,3,39,3,1,left.png,,w,right,61329758a6a8f07ab3d640cf,2021-10-27_10h42.26.542,arrow_simon_punish,2021.1.2,Win32,59.21013678,,,,,,,,,,,,,,,,,,,,,,,,,,,,,,,,,,,,,,
,,,,,,,,,,,,,,,61329758a6a8f07ab3d640cf,2021-10-27_10h42.26.542,arrow_simon_punish,2021.1.2,Win32,59.21013678,space,0,29.0587,p,2.7739,0,0,0,0,1,,,,,,,,,,,,,,,,,,,,,,,,,,,,
,,,,,,,,,,,,,,,61329758a6a8f07ab3d640cf,2021-10-27_10h42.26.542,arrow_simon_punish,2021.1.2,Win32,59.21013678,,,,p,2.4566,1,0,1,0,1,,,,,,,,,,,,,,,,,,,,,,,,,,,,
,,,,,,,,,,,,,,,61329758a6a8f07ab3d640cf,2021-10-27_10h42.26.542,arrow_simon_punish,2021.1.2,Win32,59.21013678,,,,p,2.4584,2,0,2,0,1,,,,,,,,,,,,,,,,,,,,,,,,,,,,
,,,,,,,,,,,,,,,61329758a6a8f07ab3d640cf,2021-10-27_10h42.26.542,arrow_simon_punish,2021.1.2,Win32,59.21013678,,,,p,2.44,3,0,3,0,1,,,,,,,,,,,,,,,,,,,,,,,,,,,,
,,,,,,,,,,,,,,,61329758a6a8f07ab3d640cf,2021-10-27_10h42.26.542,arrow_simon_punish,2021.1.2,Win32,59.21013678,,,,p,2.4399,4,0,4,0,1,,,,,,,,,,,,,,,,,,,,,,,,,,,,
,,,,,,,,,,,,,,,61329758a6a8f07ab3d640cf,2021-10-27_10h42.26.542,arrow_simon_punish,2021.1.2,Win32,59.21013678,,,,p,2.5256,5,0,5,0,1,,,,,,,,,,,,,,,,,,,,,,,,,,,,
,,,,,,,,,,,,,,,61329758a6a8f07ab3d640cf,2021-10-27_10h42.26.542,arrow_simon_punish,2021.1.2,Win32,59.21013678,,,,p,2.4941,6,0,6,0,1,,,,,,,,,,,,,,,,,,,,,,,,,,,,
,,,,,,,,,,,,,,,61329758a6a8f07ab3d640cf,2021-10-27_10h42.26.542,arrow_simon_punish,2021.1.2,Win32,59.21013678,,,,w,2.4892,7,0,7,0,1,,,,,,,,,,,,,,,,,,,,,,,,,,,,
,,,,,,,,,,,,,,,61329758a6a8f07ab3d640cf,2021-10-27_10h42.26.542,arrow_simon_punish,2021.1.2,Win32,59.21013678,,,,w,2.5253,8,0,8,0,1,,,,,,,,,,,,,,,,,,,,,,,,,,,,
,,,,,,,,,,,,,,,61329758a6a8f07ab3d640cf,2021-10-27_10h42.26.542,arrow_simon_punish,2021.1.2,Win32,59.21013678,,,,w,2.4402,9,0,9,0,1,,,,,,,,,,,,,,,,,,,,,,,,,,,,
,,,,,,,,,,,,,,,61329758a6a8f07ab3d640cf,2021-10-27_10h42.26.542,arrow_simon_punish,2021.1.2,Win32,59.21013678,,,,p,2.4732,10,0,10,0,1,,,,,,,,,,,,,,,,,,,,,,,,,,,,
,,,,,,,,,,,,,,,61329758a6a8f07ab3d640cf,2021-10-27_10h42.26.542,arrow_simon_punish,2021.1.2,Win32,59.21013678,,,,w,2.4897,11,0,11,0,1,,,,,,,,,,,,,,,,,,,,,,,,,,,,
,,,,,,,,,,,,,,,61329758a6a8f07ab3d640cf,2021-10-27_10h42.26.542,arrow_simon_punish,2021.1.2,Win32,59.21013678,,,,w,2.4942,12,0,12,0,1,,,,,,,,,,,,,,,,,,,,,,,,,,,,
,,,,,,,,,,,,,,,61329758a6a8f07ab3d640cf,2021-10-27_10h42.26.542,arrow_simon_punish,2021.1.2,Win32,59.21013678,,,,p,2.5253,13,0,13,0,1,,,,,,,,,,,,,,,,,,,,,,,,,,,,
,,,,,,,,,,,,,,,61329758a6a8f07ab3d640cf,2021-10-27_10h42.26.542,arrow_simon_punish,2021.1.2,Win32,59.21013678,,,,w,2.4925,14,0,14,0,1,,,,,,,,,,,,,,,,,,,,,,,,,,,,
,,,,,,,,,,,,,,,61329758a6a8f07ab3d640cf,2021-10-27_10h42.26.542,arrow_simon_punish,2021.1.2,Win32,59.21013678,,,,p,2.5424,15,0,15,0,1,,,,,,,,,,,,,,,,,,,,,,,,,,,,
,,,,,,,,,,,,,,,61329758a6a8f07ab3d640cf,2021-10-27_10h42.26.542,arrow_simon_punish,2021.1.2,Win32,59.21013678,,,,w,2.5425,16,0,16,0,1,,,,,,,,,,,,,,,,,,,,,,,,,,,,
,,,,,,,,,,,,,,,61329758a6a8f07ab3d640cf,2021-10-27_10h42.26.542,arrow_simon_punish,2021.1.2,Win32,59.21013678,,,,w,2.4603,17,0,17,0,1,,,,,,,,,,,,,,,,,,,,,,,,,,,,
,,,,,,,,,,,,,,,61329758a6a8f07ab3d640cf,2021-10-27_10h42.26.542,arrow_simon_punish,2021.1.2,Win32,59.21013678,,,,p,2.4904,18,0,18,0,1,,,,,,,,,,,,,,,,,,,,,,,,,,,,
,,,,,,,,,,,,,,,61329758a6a8f07ab3d640cf,2021-10-27_10h42.26.542,arrow_simon_punish,2021.1.2,Win32,59.21013678,,,,p,2.477,19,0,19,0,1,,,,,,,,,,,,,,,,,,,,,,,,,,,,
,,,,,,,,,,,,,,,61329758a6a8f07ab3d640cf,2021-10-27_10h42.26.542,arrow_simon_punish,2021.1.2,Win32,59.21013678,,,,w,2.4898,20,0,20,0,1,,,,,,,,,,,,,,,,,,,,,,,,,,,,
,,,,,,,,,,,,,,,61329758a6a8f07ab3d640cf,2021-10-27_10h42.26.542,arrow_simon_punish,2021.1.2,Win32,59.21013678,,,,w,2.4578,21,0,21,0,1,,,,,,,,,,,,,,,,,,,,,,,,,,,,
,,,,,,,,,,,,,,,61329758a6a8f07ab3d640cf,2021-10-27_10h42.26.542,arrow_simon_punish,2021.1.2,Win32,59.21013678,,,,p,2.4897,22,0,22,0,1,,,,,,,,,,,,,,,,,,,,,,,,,,,,
,,,,,,,,,,,,,,,61329758a6a8f07ab3d640cf,2021-10-27_10h42.26.542,arrow_simon_punish,2021.1.2,Win32,59.21013678,,,,p,2.5258,23,0,23,0,1,,,,,,,,,,,,,,,,,,,,,,,,,,,,
,,,,,,,,,,,,,,,61329758a6a8f07ab3d640cf,2021-10-27_10h42.26.542,arrow_simon_punish,2021.1.2,Win32,59.21013678,,,,w,2.5421,24,0,24,0,1,,,,,,,,,,,,,,,,,,,,,,,,,,,,
,,,,,,,,,,,,,,,61329758a6a8f07ab3d640cf,2021-10-27_10h42.26.542,arrow_simon_punish,2021.1.2,Win32,59.21013678,,,,p,2.5082,25,0,25,0,1,,,,,,,,,,,,,,,,,,,,,,,,,,,,
,,,,,,,,,,,,,,,61329758a6a8f07ab3d640cf,2021-10-27_10h42.26.542,arrow_simon_punish,2021.1.2,Win32,59.21013678,,,,w,2.5072,26,0,26,0,1,,,,,,,,,,,,,,,,,,,,,,,,,,,,
,,,,,,,,,,,,,,,61329758a6a8f07ab3d640cf,2021-10-27_10h42.26.542,arrow_simon_punish,2021.1.2,Win32,59.21013678,,,,p,2.5074,27,0,27,0,1,,,,,,,,,,,,,,,,,,,,,,,,,,,,
,,,,,,,,,,,,,,,61329758a6a8f07ab3d640cf,2021-10-27_10h42.26.542,arrow_simon_punish,2021.1.2,Win32,59.21013678,,,,w,2.4908,28,0,28,0,1,,,,,,,,,,,,,,,,,,,,,,,,,,,,
,,,,,,,,,,,,,,,61329758a6a8f07ab3d640cf,2021-10-27_10h42.26.542,arrow_simon_punish,2021.1.2,Win32,59.21013678,,,,p,2.5267,29,0,29,0,1,,,,,,,,,,,,,,,,,,,,,,,,,,,,
,,,,,,,,,,,,,,,61329758a6a8f07ab3d640cf,2021-10-27_10h42.26.542,arrow_simon_punish,2021.1.2,Win32,59.21013678,,,,w,2.4747,30,0,30,0,1,,,,,,,,,,,,,,,,,,,,,,,,,,,,
,,,,,,,,,,,,,,,61329758a6a8f07ab3d640cf,2021-10-27_10h42.26.542,arrow_simon_punish,2021.1.2,Win32,59.21013678,,,,p,2.5066,31,0,31,0,1,,,,,,,,,,,,,,,,,,,,,,,,,,,,
,,,,,,,,,,,,,,,61329758a6a8f07ab3d640cf,2021-10-27_10h42.26.542,arrow_simon_punish,2021.1.2,Win32,59.21013678,,,,w,2.5063,32,0,32,0,1,,,,,,,,,,,,,,,,,,,,,,,,,,,,
,,,,,,,,,,,,,,,61329758a6a8f07ab3d640cf,2021-10-27_10h42.26.542,arrow_simon_punish,2021.1.2,Win32,59.21013678,,,,p,2.4941,33,0,33,0,1,,,,,,,,,,,,,,,,,,,,,,,,,,,,
,,,,,,,,,,,,,,,61329758a6a8f07ab3d640cf,2021-10-27_10h42.26.542,arrow_simon_punish,2021.1.2,Win32,59.21013678,,,,w,2.5069,34,0,34,0,1,,,,,,,,,,,,,,,,,,,,,,,,,,,,
,,,,,,,,,,,,,,,61329758a6a8f07ab3d640cf,2021-10-27_10h42.26.542,arrow_simon_punish,2021.1.2,Win32,59.21013678,,,,w,2.5251,35,0,35,0,1,,,,,,,,,,,,,,,,,,,,,,,,,,,,
,,,,,,,,,,,,,,,61329758a6a8f07ab3d640cf,2021-10-27_10h42.26.542,arrow_simon_punish,2021.1.2,Win32,59.21013678,,,,p,2.5065,36,0,36,0,1,,,,,,,,,,,,,,,,,,,,,,,,,,,,
,,,,,,,,,,,,,,,61329758a6a8f07ab3d640cf,2021-10-27_10h42.26.542,arrow_simon_punish,2021.1.2,Win32,59.21013678,,,,p,2.5428,37,0,37,0,1,,,,,,,,,,,,,,,,,,,,,,,,,,,,
,,,,,,,,,,,,,,,61329758a6a8f07ab3d640cf,2021-10-27_10h42.26.542,arrow_simon_punish,2021.1.2,Win32,59.21013678,,,,w,2.5421,38,0,38,0,1,,,,,,,,,,,,,,,,,,,,,,,,,,,,
,,,,,,,,,,,,,,,61329758a6a8f07ab3d640cf,2021-10-27_10h42.26.542,arrow_simon_punish,2021.1.2,Win32,59.21013678,,,,w,2.4573,39,0,39,0,1,,,,,,,,,,,,,,,,,,,,,,,,,,,,
,,,,,,,,,,,,,,,61329758a6a8f07ab3d640cf,2021-10-27_10h42.26.542,arrow_simon_punish,2021.1.2,Win32,59.21013678,,,,p,2.4432,40,0,40,0,1,,,,,,,,,,,,,,,,,,,,,,,,,,,,
,,,,,,,,,,,,,,,61329758a6a8f07ab3d640cf,2021-10-27_10h42.26.542,arrow_simon_punish,2021.1.2,Win32,59.21013678,,,,p,2.4911,41,0,41,0,1,,,,,,,,,,,,,,,,,,,,,,,,,,,,
,,,,,,,,,,,,,,,61329758a6a8f07ab3d640cf,2021-10-27_10h42.26.542,arrow_simon_punish,2021.1.2,Win32,59.21013678,,,,p,2.4451,42,0,42,0,1,,,,,,,,,,,,,,,,,,,,,,,,,,,,
,,,,,,,,,,,,,,,61329758a6a8f07ab3d640cf,2021-10-27_10h42.26.542,arrow_simon_punish,2021.1.2,Win32,59.21013678,,,,p,2.4751,43,0,43,0,1,,,,,,,,,,,,,,,,,,,,,,,,,,,,
,,,,,,,,,,,,,,,61329758a6a8f07ab3d640cf,2021-10-27_10h42.26.542,arrow_simon_punish,2021.1.2,Win32,59.21013678,,,,w,2.5419,44,0,44,0,1,,,,,,,,,,,,,,,,,,,,,,,,,,,,
,,,,,,,,,,,,,,,61329758a6a8f07ab3d640cf,2021-10-27_10h42.26.542,arrow_simon_punish,2021.1.2,Win32,59.21013678,,,,p,2.5622,45,0,45,0,1,,,,,,,,,,,,,,,,,,,,,,,,,,,,
,,,,,,,,,,,,,,,61329758a6a8f07ab3d640cf,2021-10-27_10h42.26.542,arrow_simon_punish,2021.1.2,Win32,59.21013678,,,,p,2.5427,46,0,46,0,1,,,,,,,,,,,,,,,,,,,,,,,,,,,,
,,,,,,,,,,,,,,,61329758a6a8f07ab3d640cf,2021-10-27_10h42.26.542,arrow_simon_punish,2021.1.2,Win32,59.21013678,,,,w,2.5252,47,0,47,0,1,,,,,,,,,,,,,,,,,,,,,,,,,,,,
,,,,,,,,,,,,,,,61329758a6a8f07ab3d640cf,2021-10-27_10h42.26.542,arrow_simon_punish,2021.1.2,Win32,59.21013678,,,,p,2.5104,48,0,48,0,1,,,,,,,,,,,,,,,,,,,,,,,,,,,,
,,,,,,,,,,,,,,,61329758a6a8f07ab3d640cf,2021-10-27_10h42.26.542,arrow_simon_punish,2021.1.2,Win32,59.21013678,,,,w,2.5942,49,0,49,0,1,,,,,,,,,,,,,,,,,,,,,,,,,,,,
,,,,,,,,,,,,,,,61329758a6a8f07ab3d640cf,2021-10-27_10h42.26.542,arrow_simon_punish,2021.1.2,Win32,59.21013678,,,,p,2.457,50,0,50,0,1,,,,,,,,,,,,,,,,,,,,,,,,,,,,
,,,,,,,,,,,,,,,61329758a6a8f07ab3d640cf,2021-10-27_10h42.26.542,arrow_simon_punish,2021.1.2,Win32,59.21013678,,,,p,2.5061,51,0,51,0,1,,,,,,,,,,,,,,,,,,,,,,,,,,,,
,,,,,,,,,,,,,,,61329758a6a8f07ab3d640cf,2021-10-27_10h42.26.542,arrow_simon_punish,2021.1.2,Win32,59.21013678,,,,w,2.558,52,0,52,0,1,,,,,,,,,,,,,,,,,,,,,,,,,,,,
,,,,,,,,,,,,,,,61329758a6a8f07ab3d640cf,2021-10-27_10h42.26.542,arrow_simon_punish,2021.1.2,Win32,59.21013678,,,,w,2.525,53,0,53,0,1,,,,,,,,,,,,,,,,,,,,,,,,,,,,
,,,,,,,,,,,,,,,61329758a6a8f07ab3d640cf,2021-10-27_10h42.26.542,arrow_simon_punish,2021.1.2,Win32,59.21013678,,,,w,2.542,54,0,54,0,1,,,,,,,,,,,,,,,,,,,,,,,,,,,,
,,,,,,,,,,,,,,,61329758a6a8f07ab3d640cf,2021-10-27_10h42.26.542,arrow_simon_punish,2021.1.2,Win32,59.21013678,,,,w,2.4801,55,0,55,0,1,,,,,,,,,,,,,,,,,,,,,,,,,,,,
,,,,,,,,,,,,,,,61329758a6a8f07ab3d640cf,2021-10-27_10h42.26.542,arrow_simon_punish,2021.1.2,Win32,59.21013678,,,,w,2.3739,56,0,56,0,1,,,,,,,,,,,,,,,,,,,,,,,,,,,,
,,,,,,,,,,,,,,,61329758a6a8f07ab3d640cf,2021-10-27_10h42.26.542,arrow_simon_punish,2021.1.2,Win32,59.21013678,,,,w,2.509,57,0,57,0,1,,,,,,,,,,,,,,,,,,,,,,,,,,,,
,,,,,,,,,,,,,,,61329758a6a8f07ab3d640cf,2021-10-27_10h42.26.542,arrow_simon_punish,2021.1.2,Win32,59.21013678,,,,w,2.4958,58,0,58,0,1,,,,,,,,,,,,,,,,,,,,,,,,,,,,
,,,,,,,,,,,,,,,61329758a6a8f07ab3d640cf,2021-10-27_10h42.26.542,arrow_simon_punish,2021.1.2,Win32,59.21013678,,,,p,2.5071,59,0,59,0,1,,,,,,,,,,,,,,,,,,,,,,,,,,,,
,,,,,,,,,,,left.png,,w,left,61329758a6a8f07ab3d640cf,2021-10-27_10h42.26.542,arrow_simon_punish,2021.1.2,Win32,59.21013678,,,,,,,,,,,space,0,174.4777,w,1,1.5494,1.639416389,0,1,0,0,0,2,1,,,,,,,,,,,,,,
,,,,,,,,,,,right.png,,p,right,61329758a6a8f07ab3d640cf,2021-10-27_10h42.26.542,arrow_simon_punish,2021.1.2,Win32,59.21013678,,,,,,,,,,,,,,p,1,1.6075,2.174314966,1,1,0,1,1,1,1,,,,,,,,,,,,,,
,,,,,,,,,,,right.png,,p,right,61329758a6a8f07ab3d640cf,2021-10-27_10h42.26.542,arrow_simon_punish,2021.1.2,Win32,59.21013678,,,,,,,,,,,,,,p,1,1.5619,2.011231769,0,1,0,2,2,1,1,,,,,,,,,,,,,,
,,,,,,,,,,,right.png,,p,left,61329758a6a8f07ab3d640cf,2021-10-27_10h42.26.542,arrow_simon_punish,2021.1.2,Win32,59.21013678,,,,,,,,,,,,,,p,1,1.4582,2.367988764,0,1,0,3,3,0,1,,,,,,,,,,,,,,
,,,,,,,,,,,left.png,,w,left,61329758a6a8f07ab3d640cf,2021-10-27_10h42.26.542,arrow_simon_punish,2021.1.2,Win32,59.21013678,,,,,,,,,,,,,,w,1,3.0466,2.132407021,1,1,1,0,4,2,1,,,,,,,,,,,,,,
,,,,,,,,,,,left.png,,w,left,61329758a6a8f07ab3d640cf,2021-10-27_10h42.26.542,arrow_simon_punish,2021.1.2,Win32,59.21013678,,,,,,,,,,,,,,w,1,1.7745,2.413210149,1,1,1,1,5,2,1,,,,,,,,,,,,,,
,,,,,,,,,,,right.png,,p,right,61329758a6a8f07ab3d640cf,2021-10-27_10h42.26.542,arrow_simon_punish,2021.1.2,Win32,59.21013678,,,,,,,,,,,,,,p,1,1.5411,2.314150503,0,1,1,2,6,1,1,,,,,,,,,,,,,,
,,,,,,,,,,,left.png,,w,right,61329758a6a8f07ab3d640cf,2021-10-27_10h42.26.542,arrow_simon_punish,2021.1.2,Win32,59.21013678,,,,,,,,,,,,,,w,1,1.4922,2.416408362,0,1,1,3,7,3,1,,,,,,,,,,,,,,
,,,,,,,,,,,left.png,,w,left,61329758a6a8f07ab3d640cf,2021-10-27_10h42.26.542,arrow_simon_punish,2021.1.2,Win32,59.21013678,,,,,,,,,,,,,,w,1,1.5122,2.366986473,0,1,2,0,8,2,1,,,,,,,,,,,,,,
,,,,,,,,,,,left.png,,w,right,61329758a6a8f07ab3d640cf,2021-10-27_10h42.26.542,arrow_simon_punish,2021.1.2,Win32,59.21013678,,,,,,,,,,,,,,w,1,1.4261,2.035008187,0,1,2,1,9,3,1,,,,,,,,,,,,,,
,,,,,,,,,,,right.png,,p,left,61329758a6a8f07ab3d640cf,2021-10-27_10h42.26.542,arrow_simon_punish,2021.1.2,Win32,59.21013678,,,,,,,,,,,,,,p,1,1.3761,1.516054624,1,1,2,2,10,0,1,,,,,,,,,,,,,,
,,,,,,,,,,,left.png,,w,left,61329758a6a8f07ab3d640cf,2021-10-27_10h42.26.542,arrow_simon_punish,2021.1.2,Win32,59.21013678,,,,,,,,,,,,,,w,1,1.5911,1.529430009,0,1,2,3,11,2,1,,,,,,,,,,,,,,
,,,,,,,,,,,right.png,,p,left,61329758a6a8f07ab3d640cf,2021-10-27_10h42.26.542,arrow_simon_punish,2021.1.2,Win32,59.21013678,,,,,,,,,,,,,,w,0,1.5591,2.180680826,1,1,3,0,12,0,1,,,,,,,,,,,,,,
,,,,,,,,,,,left.png,,w,right,61329758a6a8f07ab3d640cf,2021-10-27_10h42.26.542,arrow_simon_punish,2021.1.2,Win32,59.21013678,,,,,,,,,,,,,,w,1,1.5272,1.693070287,0,1,3,1,13,3,1,,,,,,,,,,,,,,
,,,,,,,,,,,left.png,,w,right,61329758a6a8f07ab3d640cf,2021-10-27_10h42.26.542,arrow_simon_punish,2021.1.2,Win32,59.21013678,,,,,,,,,,,,,,w,1,1.5412,2.134267438,0,1,3,2,14,3,1,,,,,,,,,,,,,,
,,,,,,,,,,,left.png,,w,right,61329758a6a8f07ab3d640cf,2021-10-27_10h42.26.542,arrow_simon_punish,2021.1.2,Win32,59.21013678,,,,,,,,,,,,,,w,1,1.4907,1.58055942,0,1,3,3,15,3,1,,,,,,,,,,,,,,
,,,,,,,,,,,right.png,,p,left,61329758a6a8f07ab3d640cf,2021-10-27_10h42.26.542,arrow_simon_punish,2021.1.2,Win32,59.21013678,,,,,,,,,,,,,,w,0,1.5115,2.295829835,1,1,4,0,16,0,1,,,,,,,,,,,,,,
,,,,,,,,,,,left.png,,w,left,61329758a6a8f07ab3d640cf,2021-10-27_10h42.26.542,arrow_simon_punish,2021.1.2,Win32,59.21013678,,,,,,,,,,,,,,p,0,1.5409,2.143454031,1,1,4,1,17,2,1,,,,,,,,,,,,,,
,,,,,,,,,,,left.png,,w,right,61329758a6a8f07ab3d640cf,2021-10-27_10h42.26.542,arrow_simon_punish,2021.1.2,Win32,59.21013678,,,,,,,,,,,,,,w,1,1.541,1.934942413,0,1,4,2,18,3,1,,,,,,,,,,,,,,
,,,,,,,,,,,right.png,,p,right,61329758a6a8f07ab3d640cf,2021-10-27_10h42.26.542,arrow_simon_punish,2021.1.2,Win32,59.21013678,,,,,,,,,,,,,,p,1,1.5962,2.10122842,0,1,4,3,19,1,1,,,,,,,,,,,,,,
,,,,,,,,,,,left.png,,w,left,61329758a6a8f07ab3d640cf,2021-10-27_10h42.26.542,arrow_simon_punish,2021.1.2,Win32,59.21013678,,,,,,,,,,,,,,w,1,1.5245,2.044921021,0,1,5,0,20,2,1,,,,,,,,,,,,,,
,,,,,,,,,,,right.png,,p,left,61329758a6a8f07ab3d640cf,2021-10-27_10h42.26.542,arrow_simon_punish,2021.1.2,Win32,59.21013678,,,,,,,,,,,,,,p,1,1.5409,1.767662511,0,1,5,1,21,0,1,,,,,,,,,,,,,,
,,,,,,,,,,,left.png,,w,left,61329758a6a8f07ab3d640cf,2021-10-27_10h42.26.542,arrow_simon_punish,2021.1.2,Win32,59.21013678,,,,,,,,,,,,,,w,1,1.4784,2.112940531,0,1,5,2,22,2,1,,,,,,,,,,,,,,
,,,,,,,,,,,right.png,,p,right,61329758a6a8f07ab3d640cf,2021-10-27_10h42.26.542,arrow_simon_punish,2021.1.2,Win32,59.21013678,,,,,,,,,,,,,,p,1,1.5249,1.764846434,0,1,5,3,23,1,1,,,,,,,,,,,,,,
,,,,,,,,,,,left.png,,w,right,61329758a6a8f07ab3d640cf,2021-10-27_10h42.26.542,arrow_simon_punish,2021.1.2,Win32,59.21013678,,,,,,,,,,,,,,w,1,1.5581,2.452231839,0,1,6,0,24,3,1,,,,,,,,,,,,,,
,,,,,,,,,,,left.png,,w,right,61329758a6a8f07ab3d640cf,2021-10-27_10h42.26.542,arrow_simon_punish,2021.1.2,Win32,59.21013678,,,,,,,,,,,,,,p,0,1.6078,2.429656506,1,1,6,1,25,3,1,,,,,,,,,,,,,,
,,,,,,,,,,,left.png,,w,right,61329758a6a8f07ab3d640cf,2021-10-27_10h42.26.542,arrow_simon_punish,2021.1.2,Win32,59.21013678,,,,,,,,,,,,,,w,1,1.4568,1.552100587,0,1,6,2,26,3,1,,,,,,,,,,,,,,
,,,,,,,,,,,left.png,,w,left,61329758a6a8f07ab3d640cf,2021-10-27_10h42.26.542,arrow_simon_punish,2021.1.2,Win32,59.21013678,,,,,,,,,,,,,,w,1,1.508,1.700077121,0,1,6,3,27,2,1,,,,,,,,,,,,,,
,,,,,,,,,,,right.png,,p,left,61329758a6a8f07ab3d640cf,2021-10-27_10h42.26.542,arrow_simon_punish,2021.1.2,Win32,59.21013678,,,,,,,,,,,,,,p,1,1.5071,1.967406935,0,1,7,0,28,0,1,,,,,,,,,,,,,,
,,,,,,,,,,,right.png,,p,left,61329758a6a8f07ab3d640cf,2021-10-27_10h42.26.542,arrow_simon_punish,2021.1.2,Win32,59.21013678,,,,,,,,,,,,,,p,1,1.5911,1.822316832,0,1,7,1,29,0,1,,,,,,,,,,,,,,
,,,,,,,,,,,right.png,,p,right,61329758a6a8f07ab3d640cf,2021-10-27_10h42.26.542,arrow_simon_punish,2021.1.2,Win32,59.21013678,,,,,,,,,,,,,,p,1,1.5745,2.026353332,0,1,7,2,30,1,1,,,,,,,,,,,,,,
,,,,,,,,,,,left.png,,w,right,61329758a6a8f07ab3d640cf,2021-10-27_10h42.26.542,arrow_simon_punish,2021.1.2,Win32,59.21013678,,,,,,,,,,,,,,w,1,1.4132,1.865838958,0,1,7,3,31,3,1,,,,,,,,,,,,,,
,,,,,,,,,,,right.png,,p,left,61329758a6a8f07ab3d640cf,2021-10-27_10h42.26.542,arrow_simon_punish,2021.1.2,Win32,59.21013678,,,,,,,,,,,,,,p,1,1.4913,1.762158475,0,1,8,0,32,0,1,,,,,,,,,,,,,,
,,,,,,,,,,,right.png,,p,right,61329758a6a8f07ab3d640cf,2021-10-27_10h42.26.542,arrow_simon_punish,2021.1.2,Win32,59.21013678,,,,,,,,,,,,,,p,1,1.3073,1.659380872,1,1,8,1,33,1,1,,,,,,,,,,,,,,
,,,,,,,,,,,right.png,,p,right,61329758a6a8f07ab3d640cf,2021-10-27_10h42.26.542,arrow_simon_punish,2021.1.2,Win32,59.21013678,,,,,,,,,,,,,,p,1,1.5298,1.705718696,0,1,8,2,34,1,1,,,,,,,,,,,,,,
,,,,,,,,,,,left.png,,w,right,61329758a6a8f07ab3d640cf,2021-10-27_10h42.26.542,arrow_simon_punish,2021.1.2,Win32,59.21013678,,,,,,,,,,,,,,w,1,1.5245,2.203847657,0,1,8,3,35,3,1,,,,,,,,,,,,,,
,,,,,,,,,,,right.png,,p,right,61329758a6a8f07ab3d640cf,2021-10-27_10h42.26.542,arrow_simon_punish,2021.1.2,Win32,59.21013678,,,,,,,,,,,,,,p,1,1.5408,1.665655146,0,1,9,0,36,1,1,,,,,,,,,,,,,,
,,,,,,,,,,,right.png,,p,left,61329758a6a8f07ab3d640cf,2021-10-27_10h42.26.542,arrow_simon_punish,2021.1.2,Win32,59.21013678,,,,,,,,,,,,,,w,0,1.5745,2.323816134,1,1,9,1,37,0,1,,,,,,,,,,,,,,
,,,,,,,,,,,left.png,,w,left,61329758a6a8f07ab3d640cf,2021-10-27_10h42.26.542,arrow_simon_punish,2021.1.2,Win32,59.21013678,,,,,,,,,,,,,,w,1,1.5418,1.795391901,0,1,9,2,38,2,1,,,,,,,,,,,,,,
,,,,,,,,,,,right.png,,p,right,61329758a6a8f07ab3d640cf,2021-10-27_10h42.26.542,arrow_simon_punish,2021.1.2,Win32,59.21013678,,,,,,,,,,,,,,p,1,1.5749,2.170488164,0,1,9,3,39,1,1,,,,,,,,,,,,,,
,,,,,,,,,,,right.png,,p,left,61329758a6a8f07ab3d640cf,2021-10-27_10h42.26.542,arrow_simon_punish,2021.1.2,Win32,59.21013678,,,,,,,,,,,,,,p,1,1.5909,2.481966049,0,1,10,0,40,0,1,,,,,,,,,,,,,,
,,,,,,,,,,,left.png,,w,left,61329758a6a8f07ab3d640cf,2021-10-27_10h42.26.542,arrow_simon_punish,2021.1.2,Win32,59.21013678,,,,,,,,,,,,,,w,1,1.5568,1.546421689,0,1,10,1,41,2,1,,,,,,,,,,,,,,
,,,,,,,,,,,right.png,,p,left,61329758a6a8f07ab3d640cf,2021-10-27_10h42.26.542,arrow_simon_punish,2021.1.2,Win32,59.21013678,,,,,,,,,,,,,,p,1,1.5582,2.318492837,0,1,10,2,42,0,1,,,,,,,,,,,,,,
,,,,,,,,,,,right.png,,p,right,61329758a6a8f07ab3d640cf,2021-10-27_10h42.26.542,arrow_simon_punish,2021.1.2,Win32,59.21013678,,,,,,,,,,,,,,p,1,1.541,1.66107082,0,1,10,3,43,1,1,,,,,,,,,,,,,,
,,,,,,,,,,,left.png,,w,left,61329758a6a8f07ab3d640cf,2021-10-27_10h42.26.542,arrow_simon_punish,2021.1.2,Win32,59.21013678,,,,,,,,,,,,,,w,1,1.525,1.588526138,0,1,11,0,44,2,1,,,,,,,,,,,,,,
,,,,,,,,,,,right.png,,p,right,61329758a6a8f07ab3d640cf,2021-10-27_10h42.26.542,arrow_simon_punish,2021.1.2,Win32,59.21013678,,,,,,,,,,,,,,p,1,1.5732,2.387436226,0,1,11,1,45,1,1,,,,,,,,,,,,,,
,,,,,,,,,,,left.png,,w,right,61329758a6a8f07ab3d640cf,2021-10-27_10h42.26.542,arrow_simon_punish,2021.1.2,Win32,59.21013678,,,,,,,,,,,,,,w,1,1.5248,1.664106175,0,1,11,2,46,3,1,,,,,,,,,,,,,,
,,,,,,,,,,,right.png,,p,right,61329758a6a8f07ab3d640cf,2021-10-27_10h42.26.542,arrow_simon_punish,2021.1.2,Win32,59.21013678,,,,,,,,,,,,,,p,1,1.5077,2.210014552,0,1,11,3,47,1,1,,,,,,,,,,,,,,
,,,,,,,,,,,left.png,,w,right,61329758a6a8f07ab3d640cf,2021-10-27_10h42.26.542,arrow_simon_punish,2021.1.2,Win32,59.21013678,,,,,,,,,,,,,,w,1,1.4953,1.57063715,0,1,12,0,48,3,1,,,,,,,,,,,,,,
,,,,,,,,,,,left.png,,w,left,61329758a6a8f07ab3d640cf,2021-10-27_10h42.26.542,arrow_simon_punish,2021.1.2,Win32,59.21013678,,,,,,,,,,,,,,w,1,1.5142,1.986984067,0,1,12,1,49,2,1,,,,,,,,,,,,,,
,,,,,,,,,,,left.png,,w,left,61329758a6a8f07ab3d640cf,2021-10-27_10h42.26.542,arrow_simon_punish,2021.1.2,Win32,59.21013678,,,,,,,,,,,,,,p,0,1.5575,2.216524368,1,1,12,2,50,2,1,,,,,,,,,,,,,,
,,,,,,,,,,,right.png,,p,left,61329758a6a8f07ab3d640cf,2021-10-27_10h42.26.542,arrow_simon_punish,2021.1.2,Win32,59.21013678,,,,,,,,,,,,,,w,0,1.5921,2.49883744,1,1,12,3,51,0,1,,,,,,,,,,,,,,
,,,,,,,,,,,left.png,,w,right,61329758a6a8f07ab3d640cf,2021-10-27_10h42.26.542,arrow_simon_punish,2021.1.2,Win32,59.21013678,,,,,,,,,,,,,,w,1,1.5078,1.614883618,0,1,13,0,52,3,1,,,,,,,,,,,,,,
,,,,,,,,,,,right.png,,p,left,61329758a6a8f07ab3d640cf,2021-10-27_10h42.26.542,arrow_simon_punish,2021.1.2,Win32,59.21013678,,,,,,,,,,,,,,p,1,1.5077,1.923794871,0,1,13,1,53,0,1,,,,,,,,,,,,,,
,,,,,,,,,,,right.png,,p,right,61329758a6a8f07ab3d640cf,2021-10-27_10h42.26.542,arrow_simon_punish,2021.1.2,Win32,59.21013678,,,,,,,,,,,,,,p,1,1.4914,1.563849011,0,1,13,2,54,1,1,,,,,,,,,,,,,,
,,,,,,,,,,,left.png,,w,left,61329758a6a8f07ab3d640cf,2021-10-27_10h42.26.542,arrow_simon_punish,2021.1.2,Win32,59.21013678,,,,,,,,,,,,,,w,1,1.49,1.736878186,0,1,13,3,55,2,1,,,,,,,,,,,,,,
,,,,,,,,,,,right.png,,p,left,61329758a6a8f07ab3d640cf,2021-10-27_10h42.26.542,arrow_simon_punish,2021.1.2,Win32,59.21013678,,,,,,,,,,,,,,p,1,1.5245,1.706528891,0,1,14,0,56,0,1,,,,,,,,,,,,,,
,,,,,,,,,,,left.png,,w,right,61329758a6a8f07ab3d640cf,2021-10-27_10h42.26.542,arrow_simon_punish,2021.1.2,Win32,59.21013678,,,,,,,,,,,,,,w,1,1.5609,1.804729987,0,1,14,1,57,3,1,,,,,,,,,,,,,,
,,,,,,,,,,,right.png,,p,right,61329758a6a8f07ab3d640cf,2021-10-27_10h42.26.542,arrow_simon_punish,2021.1.2,Win32,59.21013678,,,,,,,,,,,,,,p,1,1.5418,1.664177882,0,1,14,2,58,1,1,,,,,,,,,,,,,,
,,,,,,,,,,,right.png,,p,left,61329758a6a8f07ab3d640cf,2021-10-27_10h42.26.542,arrow_simon_punish,2021.1.2,Win32,59.21013678,,,,,,,,,,,,,,p,1,1.547,1.818810082,0,1,14,3,59,0,1,,,,,,,,,,,,,,
,,,,,,,,,,,,,,,61329758a6a8f07ab3d640cf,2021-10-27_10h42.26.542,arrow_simon_punish,2021.1.2,Win32,59.21013678,,,,,,,,,,,,,,,,,,,,,,,,,space,20.7292,2,0,0,0,0,1,1,,,,,
,,,,,,,,,,,left.png,,w,right,61329758a6a8f07ab3d640cf,2021-10-27_10h42.26.542,arrow_simon_punish,2021.1.2,Win32,59.21013678,,,,,,,,,,,,,,p,0,1.6783,2.30958563,1,5,0,0,0,3,1,,,,,,,,,,,,,,
,,,,,,,,,,,right.png,,p,left,61329758a6a8f07ab3d640cf,2021-10-27_10h42.26.542,arrow_simon_punish,2021.1.2,Win32,59.21013678,,,,,,,,,,,,,,w,0,1.5944,2.402603459,1,5,0,1,1,0,1,,,,,,,,,,,,,,
,,,,,,,,,,,left.png,,w,right,61329758a6a8f07ab3d640cf,2021-10-27_10h42.26.542,arrow_simon_punish,2021.1.2,Win32,59.21013678,,,,,,,,,,,,,,w,1,1.6266,2.068590805,1,5,0,2,2,3,1,,,,,,,,,,,,,,
,,,,,,,,,,,left.png,,w,left,61329758a6a8f07ab3d640cf,2021-10-27_10h42.26.542,arrow_simon_punish,2021.1.2,Win32,59.21013678,,,,,,,,,,,,,,w,1,1.4909,2.187760089,0,5,0,3,3,2,1,,,,,,,,,,,,,,
,,,,,,,,,,,right.png,,p,left,61329758a6a8f07ab3d640cf,2021-10-27_10h42.26.542,arrow_simon_punish,2021.1.2,Win32,59.21013678,,,,,,,,,,,,,,p,1,1.5401,1.625963432,0,5,1,0,4,0,1,,,,,,,,,,,,,,
,,,,,,,,,,,right.png,,p,left,61329758a6a8f07ab3d640cf,2021-10-27_10h42.26.542,arrow_simon_punish,2021.1.2,Win32,59.21013678,,,,,,,,,,,,,,p,1,1.5243,1.932974922,0,5,1,1,5,0,1,,,,,,,,,,,,,,
,,,,,,,,,,,left.png,,w,left,61329758a6a8f07ab3d640cf,2021-10-27_10h42.26.542,arrow_simon_punish,2021.1.2,Win32,59.21013678,,,,,,,,,,,,,,w,1,1.5574,2.353927892,0,5,1,2,6,2,1,,,,,,,,,,,,,,
,,,,,,,,,,,left.png,,w,right,61329758a6a8f07ab3d640cf,2021-10-27_10h42.26.542,arrow_simon_punish,2021.1.2,Win32,59.21013678,,,,,,,,,,,,,,w,1,1.5075,1.908043641,0,5,1,3,7,3,1,,,,,,,,,,,,,,
,,,,,,,,,,,right.png,,p,left,61329758a6a8f07ab3d640cf,2021-10-27_10h42.26.542,arrow_simon_punish,2021.1.2,Win32,59.21013678,,,,,,,,,,,,,,p,1,1.5084,2.269164198,0,5,2,0,8,0,1,,,,,,,,,,,,,,
,,,,,,,,,,,right.png,,p,left,61329758a6a8f07ab3d640cf,2021-10-27_10h42.26.542,arrow_simon_punish,2021.1.2,Win32,59.21013678,,,,,,,,,,,,,,p,1,1.541,1.704893825,0,5,2,1,9,0,1,,,,,,,,,,,,,,
,,,,,,,,,,,left.png,,w,right,61329758a6a8f07ab3d640cf,2021-10-27_10h42.26.542,arrow_simon_punish,2021.1.2,Win32,59.21013678,,,,,,,,,,,,,,w,1,1.5257,1.991695748,0,5,2,2,10,3,1,,,,,,,,,,,,,,
,,,,,,,,,,,right.png,,p,left,61329758a6a8f07ab3d640cf,2021-10-27_10h42.26.542,arrow_simon_punish,2021.1.2,Win32,59.21013678,,,,,,,,,,,,,,p,1,1.5285,1.725126496,0,5,2,3,11,0,1,,,,,,,,,,,,,,
,,,,,,,,,,,left.png,,w,left,61329758a6a8f07ab3d640cf,2021-10-27_10h42.26.542,arrow_simon_punish,2021.1.2,Win32,59.21013678,,,,,,,,,,,,,,w,1,1.5078,1.766250775,0,5,3,0,12,2,1,,,,,,,,,,,,,,
,,,,,,,,,,,right.png,,p,right,61329758a6a8f07ab3d640cf,2021-10-27_10h42.26.542,arrow_simon_punish,2021.1.2,Win32,59.21013678,,,,,,,,,,,,,,p,1,1.5082,1.921556514,0,5,3,1,13,1,1,,,,,,,,,,,,,,
,,,,,,,,,,,left.png,,w,left,61329758a6a8f07ab3d640cf,2021-10-27_10h42.26.542,arrow_simon_punish,2021.1.2,Win32,59.21013678,,,,,,,,,,,,,,w,1,1.543,1.890184404,0,5,3,2,14,2,1,,,,,,,,,,,,,,
,,,,,,,,,,,left.png,,w,left,61329758a6a8f07ab3d640cf,2021-10-27_10h42.26.542,arrow_simon_punish,2021.1.2,Win32,59.21013678,,,,,,,,,,,,,,w,1,1.5245,1.695458837,0,5,3,3,15,2,1,,,,,,,,,,,,,,
,,,,,,,,,,,right.png,,p,right,61329758a6a8f07ab3d640cf,2021-10-27_10h42.26.542,arrow_simon_punish,2021.1.2,Win32,59.21013678,,,,,,,,,,,,,,p,1,1.5743,2.09510534,0,5,4,0,16,1,1,,,,,,,,,,,,,,
,,,,,,,,,,,right.png,,p,right,61329758a6a8f07ab3d640cf,2021-10-27_10h42.26.542,arrow_simon_punish,2021.1.2,Win32,59.21013678,,,,,,,,,,,,,,p,1,1.5075,1.642873679,0,5,4,1,17,1,1,,,,,,,,,,,,,,
,,,,,,,,,,,right.png,,p,right,61329758a6a8f07ab3d640cf,2021-10-27_10h42.26.542,arrow_simon_punish,2021.1.2,Win32,59.21013678,,,,,,,,,,,,,,w,0,1.5577,2.299069712,1,5,4,2,18,1,1,,,,,,,,,,,,,,
,,,,,,,,,,,right.png,,p,right,61329758a6a8f07ab3d640cf,2021-10-27_10h42.26.542,arrow_simon_punish,2021.1.2,Win32,59.21013678,,,,,,,,,,,,,,w,0,1.4937,2.274662091,1,5,4,3,19,1,1,,,,,,,,,,,,,,
,,,,,,,,,,,left.png,,w,left,61329758a6a8f07ab3d640cf,2021-10-27_10h42.26.542,arrow_simon_punish,2021.1.2,Win32,59.21013678,,,,,,,,,,,,,,w,1,1.513,1.831318326,0,5,5,0,20,2,1,,,,,,,,,,,,,,
,,,,,,,,,,,right.png,,p,right,61329758a6a8f07ab3d640cf,2021-10-27_10h42.26.542,arrow_simon_punish,2021.1.2,Win32,59.21013678,,,,,,,,,,,,,,p,1,1.441,1.701970773,0,5,5,1,21,1,1,,,,,,,,,,,,,,
,,,,,,,,,,,left.png,,w,right,61329758a6a8f07ab3d640cf,2021-10-27_10h42.26.542,arrow_simon_punish,2021.1.2,Win32,59.21013678,,,,,,,,,,,,,,w,1,1.6581,2.180678375,1,5,5,2,22,3,1,,,,,,,,,,,,,,
,,,,,,,,,,,right.png,,p,right,61329758a6a8f07ab3d640cf,2021-10-27_10h42.26.542,arrow_simon_punish,2021.1.2,Win32,59.21013678,,,,,,,,,,,,,,p,1,1.5256,1.745527559,0,5,5,3,23,1,1,,,,,,,,,,,,,,
,,,,,,,,,,,left.png,,w,right,61329758a6a8f07ab3d640cf,2021-10-27_10h42.26.542,arrow_simon_punish,2021.1.2,Win32,59.21013678,,,,,,,,,,,,,,w,1,1.5755,2.485045842,0,5,6,0,24,3,1,,,,,,,,,,,,,,
,,,,,,,,,,,right.png,,p,left,61329758a6a8f07ab3d640cf,2021-10-27_10h42.26.542,arrow_simon_punish,2021.1.2,Win32,59.21013678,,,,,,,,,,,,,,p,1,1.4905,1.666298857,0,5,6,1,25,0,1,,,,,,,,,,,,,,
,,,,,,,,,,,right.png,,p,right,61329758a6a8f07ab3d640cf,2021-10-27_10h42.26.542,arrow_simon_punish,2021.1.2,Win32,59.21013678,,,,,,,,,,,,,,w,0,1.5246,2.443721029,1,5,6,2,26,1,1,,,,,,,,,,,,,,
,,,,,,,,,,,right.png,,p,left,61329758a6a8f07ab3d640cf,2021-10-27_10h42.26.542,arrow_simon_punish,2021.1.2,Win32,59.21013678,,,,,,,,,,,,,,p,1,1.5078,1.626246344,0,5,6,3,27,0,1,,,,,,,,,,,,,,
,,,,,,,,,,,left.png,,w,right,61329758a6a8f07ab3d640cf,2021-10-27_10h42.26.542,arrow_simon_punish,2021.1.2,Win32,59.21013678,,,,,,,,,,,,,,w,1,1.4793,1.721007384,0,5,7,0,28,3,1,,,,,,,,,,,,,,
,,,,,,,,,,,right.png,,p,left,61329758a6a8f07ab3d640cf,2021-10-27_10h42.26.542,arrow_simon_punish,2021.1.2,Win32,59.21013678,,,,,,,,,,,,,,p,1,1.5461,2.443290467,0,5,7,1,29,0,1,,,,,,,,,,,,,,
,,,,,,,,,,,left.png,,w,right,61329758a6a8f07ab3d640cf,2021-10-27_10h42.26.542,arrow_simon_punish,2021.1.2,Win32,59.21013678,,,,,,,,,,,,,,w,1,1.4405,1.833375599,0,5,7,2,30,3,1,,,,,,,,,,,,,,
,,,,,,,,,,,right.png,,p,right,61329758a6a8f07ab3d640cf,2021-10-27_10h42.26.542,arrow_simon_punish,2021.1.2,Win32,59.21013678,,,,,,,,,,,,,,p,1,1.5411,1.651728866,0,5,7,3,31,1,1,,,,,,,,,,,,,,
,,,,,,,,,,,right.png,,p,right,61329758a6a8f07ab3d640cf,2021-10-27_10h42.26.542,arrow_simon_punish,2021.1.2,Win32,59.21013678,,,,,,,,,,,,,,p,1,1.541,2.28549155,0,5,8,0,32,1,1,,,,,,,,,,,,,,
,,,,,,,,,,,left.png,,w,left,61329758a6a8f07ab3d640cf,2021-10-27_10h42.26.542,arrow_simon_punish,2021.1.2,Win32,59.21013678,,,,,,,,,,,,,,w,1,1.4906,1.593596827,0,5,8,1,33,2,1,,,,,,,,,,,,,,
,,,,,,,,,,,left.png,,w,left,61329758a6a8f07ab3d640cf,2021-10-27_10h42.26.542,arrow_simon_punish,2021.1.2,Win32,59.21013678,,,,,,,,,,,,,,w,1,1.5247,1.684806997,0,5,8,2,34,2,1,,,,,,,,,,,,,,
,,,,,,,,,,,right.png,,p,left,61329758a6a8f07ab3d640cf,2021-10-27_10h42.26.542,arrow_simon_punish,2021.1.2,Win32,59.21013678,,,,,,,,,,,,,,p,1,1.6242,1.835208141,1,5,8,3,35,0,1,,,,,,,,,,,,,,
,,,,,,,,,,,left.png,,w,right,61329758a6a8f07ab3d640cf,2021-10-27_10h42.26.542,arrow_simon_punish,2021.1.2,Win32,59.21013678,,,,,,,,,,,,,,w,1,1.5241,2.179279992,0,5,9,0,36,3,1,,,,,,,,,,,,,,
,,,,,,,,,,,right.png,,p,left,61329758a6a8f07ab3d640cf,2021-10-27_10h42.26.542,arrow_simon_punish,2021.1.2,Win32,59.21013678,,,,,,,,,,,,,,p,1,1.5413,2.026933126,0,5,9,1,37,0,1,,,,,,,,,,,,,,
,,,,,,,,,,,left.png,,w,left,61329758a6a8f07ab3d640cf,2021-10-27_10h42.26.542,arrow_simon_punish,2021.1.2,Win32,59.21013678,,,,,,,,,,,,,,w,1,1.5404,2.072230418,0,5,9,2,38,2,1,,,,,,,,,,,,,,
,,,,,,,,,,,right.png,,p,left,61329758a6a8f07ab3d640cf,2021-10-27_10h42.26.542,arrow_simon_punish,2021.1.2,Win32,59.21013678,,,,,,,,,,,,,,p,1,1.5416,2.043469052,0,5,9,3,39,0,1,,,,,,,,,,,,,,
,,,,,,,,,,,right.png,,p,right,61329758a6a8f07ab3d640cf,2021-10-27_10h42.26.542,arrow_simon_punish,2021.1.2,Win32,59.21013678,,,,,,,,,,,,,,p,1,1.5577,1.955293793,0,5,10,0,40,1,1,,,,,,,,,,,,,,
,,,,,,,,,,,left.png,,w,left,61329758a6a8f07ab3d640cf,2021-10-27_10h42.26.542,arrow_simon_punish,2021.1.2,Win32,59.21013678,,,,,,,,,,,,,,w,1,1.5246,1.889649952,0,5,10,1,41,2,1,,,,,,,,,,,,,,
,,,,,,,,,,,right.png,,p,left,61329758a6a8f07ab3d640cf,2021-10-27_10h42.26.542,arrow_simon_punish,2021.1.2,Win32,59.21013678,,,,,,,,,,,,,,p,1,1.5571,2.329909071,0,5,10,2,42,0,1,,,,,,,,,,,,,,
,,,,,,,,,,,right.png,,p,left,61329758a6a8f07ab3d640cf,2021-10-27_10h42.26.542,arrow_simon_punish,2021.1.2,Win32,59.21013678,,,,,,,,,,,,,,p,1,1.4905,1.723861168,0,5,10,3,43,0,1,,,,,,,,,,,,,,
,,,,,,,,,,,left.png,,w,right,61329758a6a8f07ab3d640cf,2021-10-27_10h42.26.542,arrow_simon_punish,2021.1.2,Win32,59.21013678,,,,,,,,,,,,,,w,1,1.5406,2.425416272,0,5,11,0,44,3,1,,,,,,,,,,,,,,
,,,,,,,,,,,right.png,,p,left,61329758a6a8f07ab3d640cf,2021-10-27_10h42.26.542,arrow_simon_punish,2021.1.2,Win32,59.21013678,,,,,,,,,,,,,,p,1,1.5241,2.222244473,0,5,11,1,45,0,1,,,,,,,,,,,,,,
,,,,,,,,,,,left.png,,w,right,61329758a6a8f07ab3d640cf,2021-10-27_10h42.26.542,arrow_simon_punish,2021.1.2,Win32,59.21013678,,,,,,,,,,,,,,w,1,1.4622,1.891774885,0,5,11,2,46,3,1,,,,,,,,,,,,,,
,,,,,,,,,,,left.png,,w,left,61329758a6a8f07ab3d640cf,2021-10-27_10h42.26.542,arrow_simon_punish,2021.1.2,Win32,59.21013678,,,,,,,,,,,,,,w,1,1.4743,1.680104055,0,5,11,3,47,2,1,,,,,,,,,,,,,,
,,,,,,,,,,,right.png,,p,right,61329758a6a8f07ab3d640cf,2021-10-27_10h42.26.542,arrow_simon_punish,2021.1.2,Win32,59.21013678,,,,,,,,,,,,,,p,1,1.5421,2.22901668,0,5,12,0,48,1,1,,,,,,,,,,,,,,
,,,,,,,,,,,right.png,,p,right,61329758a6a8f07ab3d640cf,2021-10-27_10h42.26.542,arrow_simon_punish,2021.1.2,Win32,59.21013678,,,,,,,,,,,,,,p,1,1.5124,1.519839234,0,5,12,1,49,1,1,,,,,,,,,,,,,,
,,,,,,,,,,,right.png,,p,right,61329758a6a8f07ab3d640cf,2021-10-27_10h42.26.542,arrow_simon_punish,2021.1.2,Win32,59.21013678,,,,,,,,,,,,,,p,1,1.563,1.756820835,0,5,12,2,50,1,1,,,,,,,,,,,,,,
,,,,,,,,,,,left.png,,w,right,61329758a6a8f07ab3d640cf,2021-10-27_10h42.26.542,arrow_simon_punish,2021.1.2,Win32,59.21013678,,,,,,,,,,,,,,w,1,1.5248,1.80425625,0,5,12,3,51,3,1,,,,,,,,,,,,,,
,,,,,,,,,,,left.png,,w,right,61329758a6a8f07ab3d640cf,2021-10-27_10h42.26.542,arrow_simon_punish,2021.1.2,Win32,59.21013678,,,,,,,,,,,,,,w,1,1.4622,1.555316735,0,5,13,0,52,3,1,,,,,,,,,,,,,,
,,,,,,,,,,,left.png,,w,right,61329758a6a8f07ab3d640cf,2021-10-27_10h42.26.542,arrow_simon_punish,2021.1.2,Win32,59.21013678,,,,,,,,,,,,,,w,1,1.4401,1.881360581,0,5,13,1,53,3,1,,,,,,,,,,,,,,
,,,,,,,,,,,left.png,,w,left,61329758a6a8f07ab3d640cf,2021-10-27_10h42.26.542,arrow_simon_punish,2021.1.2,Win32,59.21013678,,,,,,,,,,,,,,w,1,1.6749,2.471679582,1,5,13,2,54,2,1,,,,,,,,,,,,,,
,,,,,,,,,,,right.png,,p,right,61329758a6a8f07ab3d640cf,2021-10-27_10h42.26.542,arrow_simon_punish,2021.1.2,Win32,59.21013678,,,,,,,,,,,,,,p,1,1.5906,2.063682126,0,5,13,3,55,1,1,,,,,,,,,,,,,,
,,,,,,,,,,,left.png,,w,left,61329758a6a8f07ab3d640cf,2021-10-27_10h42.26.542,arrow_simon_punish,2021.1.2,Win32,59.21013678,,,,,,,,,,,,,,w,1,1.4737,2.160180909,0,5,14,0,56,2,1,,,,,,,,,,,,,,
,,,,,,,,,,,left.png,,w,right,61329758a6a8f07ab3d640cf,2021-10-27_10h42.26.542,arrow_simon_punish,2021.1.2,Win32,59.21013678,,,,,,,,,,,,,,p,0,1.2234,1.898401422,1,5,14,1,57,3,1,,,,,,,,,,,,,,
,,,,,,,,,,,left.png,,w,left,61329758a6a8f07ab3d640cf,2021-10-27_10h42.26.542,arrow_simon_punish,2021.1.2,Win32,59.21013678,,,,,,,,,,,,,,w,1,1.5245,1.877409455,0,5,14,2,58,2,1,,,,,,,,,,,,,,
,,,,,,,,,,,left.png,,w,left,61329758a6a8f07ab3d640cf,2021-10-27_10h42.26.542,arrow_simon_punish,2021.1.2,Win32,59.21013678,,,,,,,,,,,,,,w,1,1.5588,1.751526865,0,5,14,3,59,2,1,,,,,,,,,,,,,,
,,,,,,,,,,,,,,,61329758a6a8f07ab3d640cf,2021-10-27_10h42.26.542,arrow_simon_punish,2021.1.2,Win32,59.21013678,,,,,,,,,,,,,,,,,,,,,,,,,space,289.2495,3,0,1,1,1,1,5,,,,,
,,,,,,,,,,,left.png,,w,left,61329758a6a8f07ab3d640cf,2021-10-27_10h42.26.542,arrow_simon_punish,2021.1.2,Win32,59.21013678,,,,,,,,,,,,,,w,1,1.6081,1.597645226,1,1,0,0,0,2,1,,,,,,,,,,,,,,
,,,,,,,,,,,right.png,,p,left,61329758a6a8f07ab3d640cf,2021-10-27_10h42.26.542,arrow_simon_punish,2021.1.2,Win32,59.21013678,,,,,,,,,,,,,,p,1,1.5586,2.274305055,0,1,0,1,1,0,1,,,,,,,,,,,,,,
,,,,,,,,,,,left.png,,w,right,61329758a6a8f07ab3d640cf,2021-10-27_10h42.26.542,arrow_simon_punish,2021.1.2,Win32,59.21013678,,,,,,,,,,,,,,p,0,1.5274,2.442178185,1,1,0,2,2,3,1,,,,,,,,,,,,,,
,,,,,,,,,,,right.png,,p,left,61329758a6a8f07ab3d640cf,2021-10-27_10h42.26.542,arrow_simon_punish,2021.1.2,Win32,59.21013678,,,,,,,,,,,,,,p,1,1.5615,2.361453525,0,1,0,3,3,0,1,,,,,,,,,,,,,,
,,,,,,,,,,,left.png,,w,right,61329758a6a8f07ab3d640cf,2021-10-27_10h42.26.542,arrow_simon_punish,2021.1.2,Win32,59.21013678,,,,,,,,,,,,,,w,1,1.5409,2.303082748,0,1,1,0,4,3,1,,,,,,,,,,,,,,
,,,,,,,,,,,right.png,,p,right,61329758a6a8f07ab3d640cf,2021-10-27_10h42.26.542,arrow_simon_punish,2021.1.2,Win32,59.21013678,,,,,,,,,,,,,,p,1,1.4907,2.013511068,0,1,1,1,5,1,1,,,,,,,,,,,,,,
,,,,,,,,,,,left.png,,w,right,61329758a6a8f07ab3d640cf,2021-10-27_10h42.26.542,arrow_simon_punish,2021.1.2,Win32,59.21013678,,,,,,,,,,,,,,w,1,1.457,1.626960528,0,1,1,2,6,3,1,,,,,,,,,,,,,,
,,,,,,,,,,,right.png,,p,right,61329758a6a8f07ab3d640cf,2021-10-27_10h42.26.542,arrow_simon_punish,2021.1.2,Win32,59.21013678,,,,,,,,,,,,,,w,0,1.5407,2.469756747,1,1,1,3,7,1,1,,,,,,,,,,,,,,
,,,,,,,,,,,left.png,,w,right,61329758a6a8f07ab3d640cf,2021-10-27_10h42.26.542,arrow_simon_punish,2021.1.2,Win32,59.21013678,,,,,,,,,,,,,,w,1,1.4572,2.297512164,0,1,2,0,8,3,1,,,,,,,,,,,,,,
,,,,,,,,,,,left.png,,w,left,61329758a6a8f07ab3d640cf,2021-10-27_10h42.26.542,arrow_simon_punish,2021.1.2,Win32,59.21013678,,,,,,,,,,,,,,w,1,1.4903,1.709194962,0,1,2,1,9,2,1,,,,,,,,,,,,,,
,,,,,,,,,,,left.png,,w,right,61329758a6a8f07ab3d640cf,2021-10-27_10h42.26.542,arrow_simon_punish,2021.1.2,Win32,59.21013678,,,,,,,,,,,,,,p,0,1.541,2.099142238,1,1,2,2,10,3,1,,,,,,,,,,,,,,
,,,,,,,,,,,left.png,,w,left,61329758a6a8f07ab3d640cf,2021-10-27_10h42.26.542,arrow_simon_punish,2021.1.2,Win32,59.21013678,,,,,,,,,,,,,,w,1,1.4623,1.987593424,0,1,2,3,11,2,1,,,,,,,,,,,,,,
,,,,,,,,,,,right.png,,p,right,61329758a6a8f07ab3d640cf,2021-10-27_10h42.26.542,arrow_simon_punish,2021.1.2,Win32,59.21013678,,,,,,,,,,,,,,p,1,1.5071,1.717168487,0,1,3,0,12,1,1,,,,,,,,,,,,,,
,,,,,,,,,,,right.png,,p,left,61329758a6a8f07ab3d640cf,2021-10-27_10h42.26.542,arrow_simon_punish,2021.1.2,Win32,59.21013678,,,,,,,,,,,,,,w,0,1.5414,2.015354077,1,1,3,1,13,0,1,,,,,,,,,,,,,,
,,,,,,,,,,,right.png,,p,left,61329758a6a8f07ab3d640cf,2021-10-27_10h42.26.542,arrow_simon_punish,2021.1.2,Win32,59.21013678,,,,,,,,,,,,,,w,0,1.4077,1.93269335,1,1,3,2,14,0,1,,,,,,,,,,,,,,
,,,,,,,,,,,left.png,,w,right,61329758a6a8f07ab3d640cf,2021-10-27_10h42.26.542,arrow_simon_punish,2021.1.2,Win32,59.21013678,,,,,,,,,,,,,,w,1,1.3746,2.272298969,1,1,3,3,15,3,1,,,,,,,,,,,,,,
,,,,,,,,,,,right.png,,p,left,61329758a6a8f07ab3d640cf,2021-10-27_10h42.26.542,arrow_simon_punish,2021.1.2,Win32,59.21013678,,,,,,,,,,,,,,p,1,1.5251,1.888652684,0,1,4,0,16,0,1,,,,,,,,,,,,,,
,,,,,,,,,,,right.png,,p,left,61329758a6a8f07ab3d640cf,2021-10-27_10h42.26.542,arrow_simon_punish,2021.1.2,Win32,59.21013678,,,,,,,,,,,,,,p,1,1.5431,1.87980504,0,1,4,1,17,0,1,,,,,,,,,,,,,,
,,,,,,,,,,,left.png,,w,right,61329758a6a8f07ab3d640cf,2021-10-27_10h42.26.542,arrow_simon_punish,2021.1.2,Win32,59.21013678,,,,,,,,,,,,,,p,0,1.5746,2.396476223,1,1,4,2,18,3,1,,,,,,,,,,,,,,
,,,,,,,,,,,right.png,,p,left,61329758a6a8f07ab3d640cf,2021-10-27_10h42.26.542,arrow_simon_punish,2021.1.2,Win32,59.21013678,,,,,,,,,,,,,,w,0,1.4903,2.139420984,1,1,4,3,19,0,1,,,,,,,,,,,,,,
,,,,,,,,,,,left.png,,w,left,61329758a6a8f07ab3d640cf,2021-10-27_10h42.26.542,arrow_simon_punish,2021.1.2,Win32,59.21013678,,,,,,,,,,,,,,w,1,1.4752,1.70598815,0,1,5,0,20,2,1,,,,,,,,,,,,,,
,,,,,,,,,,,right.png,,p,right,61329758a6a8f07ab3d640cf,2021-10-27_10h42.26.542,arrow_simon_punish,2021.1.2,Win32,59.21013678,,,,,,,,,,,,,,p,1,1.5114,1.963855544,0,1,5,1,21,1,1,,,,,,,,,,,,,,
,,,,,,,,,,,left.png,,w,right,61329758a6a8f07ab3d640cf,2021-10-27_10h42.26.542,arrow_simon_punish,2021.1.2,Win32,59.21013678,,,,,,,,,,,,,,w,1,1.5251,1.83251057,0,1,5,2,22,3,1,,,,,,,,,,,,,,
,,,,,,,,,,,right.png,,p,left,61329758a6a8f07ab3d640cf,2021-10-27_10h42.26.542,arrow_simon_punish,2021.1.2,Win32,59.21013678,,,,,,,,,,,,,,p,1,1.4438,1.648062065,0,1,5,3,23,0,1,,,,,,,,,,,,,,
,,,,,,,,,,,right.png,,p,left,61329758a6a8f07ab3d640cf,2021-10-27_10h42.26.542,arrow_simon_punish,2021.1.2,Win32,59.21013678,,,,,,,,,,,,,,w,0,1.5748,2.238779288,1,1,6,0,24,0,1,,,,,,,,,,,,,,
,,,,,,,,,,,left.png,,w,right,61329758a6a8f07ab3d640cf,2021-10-27_10h42.26.542,arrow_simon_punish,2021.1.2,Win32,59.21013678,,,,,,,,,,,,,,w,1,1.5747,1.661072238,0,1,6,1,25,3,1,,,,,,,,,,,,,,
,,,,,,,,,,,right.png,,p,left,61329758a6a8f07ab3d640cf,2021-10-27_10h42.26.542,arrow_simon_punish,2021.1.2,Win32,59.21013678,,,,,,,,,,,,,,p,1,1.5621,1.91995254,0,1,6,2,26,0,1,,,,,,,,,,,,,,
,,,,,,,,,,,right.png,,p,right,61329758a6a8f07ab3d640cf,2021-10-27_10h42.26.542,arrow_simon_punish,2021.1.2,Win32,59.21013678,,,,,,,,,,,,,,p,1,1.5075,1.544293119,0,1,6,3,27,1,1,,,,,,,,,,,,,,
,,,,,,,,,,,right.png,,p,right,61329758a6a8f07ab3d640cf,2021-10-27_10h42.26.542,arrow_simon_punish,2021.1.2,Win32,59.21013678,,,,,,,,,,,,,,p,1,1.4906,1.785626371,0,1,7,0,28,1,1,,,,,,,,,,,,,,
,,,,,,,,,,,left.png,,w,left,61329758a6a8f07ab3d640cf,2021-10-27_10h42.26.542,arrow_simon_punish,2021.1.2,Win32,59.21013678,,,,,,,,,,,,,,w,1,1.574,2.476848892,0,1,7,1,29,2,1,,,,,,,,,,,,,,
,,,,,,,,,,,left.png,,w,left,61329758a6a8f07ab3d640cf,2021-10-27_10h42.26.542,arrow_simon_punish,2021.1.2,Win32,59.21013678,,,,,,,,,,,,,,w,1,1.4912,1.544764356,0,1,7,2,30,2,1,,,,,,,,,,,,,,
,,,,,,,,,,,right.png,,p,left,61329758a6a8f07ab3d640cf,2021-10-27_10h42.26.542,arrow_simon_punish,2021.1.2,Win32,59.21013678,,,,,,,,,,,,,,p,1,1.5914,2.186907146,0,1,7,3,31,0,1,,,,,,,,,,,,,,
,,,,,,,,,,,right.png,,p,left,61329758a6a8f07ab3d640cf,2021-10-27_10h42.26.542,arrow_simon_punish,2021.1.2,Win32,59.21013678,,,,,,,,,,,,,,p,1,1.5079,1.623399819,0,1,8,0,32,0,1,,,,,,,,,,,,,,
,,,,,,,,,,,right.png,,p,right,61329758a6a8f07ab3d640cf,2021-10-27_10h42.26.542,arrow_simon_punish,2021.1.2,Win32,59.21013678,,,,,,,,,,,,,,p,1,1.5078,2.296835992,0,1,8,1,33,1,1,,,,,,,,,,,,,,
,,,,,,,,,,,right.png,,p,left,61329758a6a8f07ab3d640cf,2021-10-27_10h42.26.542,arrow_simon_punish,2021.1.2,Win32,59.21013678,,,,,,,,,,,,,,p,1,1.5244,2.461193155,0,1,8,2,34,0,1,,,,,,,,,,,,,,
,,,,,,,,,,,left.png,,w,right,61329758a6a8f07ab3d640cf,2021-10-27_10h42.26.542,arrow_simon_punish,2021.1.2,Win32,59.21013678,,,,,,,,,,,,,,w,1,1.4411,1.566876412,0,1,8,3,35,3,1,,,,,,,,,,,,,,
,,,,,,,,,,,right.png,,p,right,61329758a6a8f07ab3d640cf,2021-10-27_10h42.26.542,arrow_simon_punish,2021.1.2,Win32,59.21013678,,,,,,,,,,,,,,p,1,1.5753,2.010531541,0,1,9,0,36,1,1,,,,,,,,,,,,,,
,,,,,,,,,,,right.png,,p,right,61329758a6a8f07ab3d640cf,2021-10-27_10h42.26.542,arrow_simon_punish,2021.1.2,Win32,59.21013678,,,,,,,,,,,,,,w,0,1.5116,2.251615143,1,1,9,1,37,1,1,,,,,,,,,,,,,,
,,,,,,,,,,,right.png,,p,right,61329758a6a8f07ab3d640cf,2021-10-27_10h42.26.542,arrow_simon_punish,2021.1.2,Win32,59.21013678,,,,,,,,,,,,,,p,1,1.5082,2.173251637,0,1,9,2,38,1,1,,,,,,,,,,,,,,
,,,,,,,,,,,right.png,,p,left,61329758a6a8f07ab3d640cf,2021-10-27_10h42.26.542,arrow_simon_punish,2021.1.2,Win32,59.21013678,,,,,,,,,,,,,,p,1,1.5249,1.887195808,0,1,9,3,39,0,1,,,,,,,,,,,,,,
,,,,,,,,,,,right.png,,p,right,61329758a6a8f07ab3d640cf,2021-10-27_10h42.26.542,arrow_simon_punish,2021.1.2,Win32,59.21013678,,,,,,,,,,,,,,p,1,1.5247,2.174534552,0,1,10,0,40,1,1,,,,,,,,,,,,,,
,,,,,,,,,,,left.png,,w,right,61329758a6a8f07ab3d640cf,2021-10-27_10h42.26.542,arrow_simon_punish,2021.1.2,Win32,59.21013678,,,,,,,,,,,,,,p,0,1.5578,2.391125541,1,1,10,1,41,3,1,,,,,,,,,,,,,,
,,,,,,,,,,,right.png,,p,right,61329758a6a8f07ab3d640cf,2021-10-27_10h42.26.542,arrow_simon_punish,2021.1.2,Win32,59.21013678,,,,,,,,,,,,,,p,1,1.5412,1.760947732,0,1,10,2,42,1,1,,,,,,,,,,,,,,
,,,,,,,,,,,left.png,,w,left,61329758a6a8f07ab3d640cf,2021-10-27_10h42.26.542,arrow_simon_punish,2021.1.2,Win32,59.21013678,,,,,,,,,,,,,,w,1,1.4914,1.609200749,0,1,10,3,43,2,1,,,,,,,,,,,,,,
,,,,,,,,,,,left.png,,w,left,61329758a6a8f07ab3d640cf,2021-10-27_10h42.26.542,arrow_simon_punish,2021.1.2,Win32,59.21013678,,,,,,,,,,,,,,w,1,1.5748,2.318846393,0,1,11,0,44,2,1,,,,,,,,,,,,,,
,,,,,,,,,,,right.png,,p,right,61329758a6a8f07ab3d640cf,2021-10-27_10h42.26.542,arrow_simon_punish,2021.1.2,Win32,59.21013678,,,,,,,,,,,,,,p,1,1.5414,2.435784095,0,1,11,1,45,1,1,,,,,,,,,,,,,,
,,,,,,,,,,,left.png,,w,left,61329758a6a8f07ab3d640cf,2021-10-27_10h42.26.542,arrow_simon_punish,2021.1.2,Win32,59.21013678,,,,,,,,,,,,,,w,1,1.508,1.775404289,0,1,11,2,46,2,1,,,,,,,,,,,,,,
,,,,,,,,,,,right.png,,p,left,61329758a6a8f07ab3d640cf,2021-10-27_10h42.26.542,arrow_simon_punish,2021.1.2,Win32,59.21013678,,,,,,,,,,,,,,p,1,1.5621,1.655866985,0,1,11,3,47,0,1,,,,,,,,,,,,,,
,,,,,,,,,,,left.png,,w,right,61329758a6a8f07ab3d640cf,2021-10-27_10h42.26.542,arrow_simon_punish,2021.1.2,Win32,59.21013678,,,,,,,,,,,,,,w,1,1.5244,1.966044563,0,1,12,0,48,3,1,,,,,,,,,,,,,,
,,,,,,,,,,,left.png,,w,left,61329758a6a8f07ab3d640cf,2021-10-27_10h42.26.542,arrow_simon_punish,2021.1.2,Win32,59.21013678,,,,,,,,,,,,,,w,1,1.4928,1.762882025,0,1,12,1,49,2,1,,,,,,,,,,,,,,
,,,,,,,,,,,left.png,,w,left,61329758a6a8f07ab3d640cf,2021-10-27_10h42.26.542,arrow_simon_punish,2021.1.2,Win32,59.21013678,,,,,,,,,,,,,,p,0,1.5756,2.320083792,1,1,12,2,50,2,1,,,,,,,,,,,,,,
,,,,,,,,,,,left.png,,w,right,61329758a6a8f07ab3d640cf,2021-10-27_10h42.26.542,arrow_simon_punish,2021.1.2,Win32,59.21013678,,,,,,,,,,,,,,w,1,1.5906,2.107238895,0,1,12,3,51,3,1,,,,,,,,,,,,,,
,,,,,,,,,,,right.png,,p,right,61329758a6a8f07ab3d640cf,2021-10-27_10h42.26.542,arrow_simon_punish,2021.1.2,Win32,59.21013678,,,,,,,,,,,,,,w,0,1.5906,2.260211583,1,1,13,0,52,1,1,,,,,,,,,,,,,,
,,,,,,,,,,,left.png,,w,left,61329758a6a8f07ab3d640cf,2021-10-27_10h42.26.542,arrow_simon_punish,2021.1.2,Win32,59.21013678,,,,,,,,,,,,,,w,1,1.5744,1.89852058,0,1,13,1,53,2,1,,,,,,,,,,,,,,
,,,,,,,,,,,right.png,,p,right,61329758a6a8f07ab3d640cf,2021-10-27_10h42.26.542,arrow_simon_punish,2021.1.2,Win32,59.21013678,,,,,,,,,,,,,,p,1,1.5269,1.991812897,0,1,13,2,54,1,1,,,,,,,,,,,,,,
,,,,,,,,,,,left.png,,w,right,61329758a6a8f07ab3d640cf,2021-10-27_10h42.26.542,arrow_simon_punish,2021.1.2,Win32,59.21013678,,,,,,,,,,,,,,w,1,1.4798,1.879340452,0,1,13,3,55,3,1,,,,,,,,,,,,,,
,,,,,,,,,,,left.png,,w,right,61329758a6a8f07ab3d640cf,2021-10-27_10h42.26.542,arrow_simon_punish,2021.1.2,Win32,59.21013678,,,,,,,,,,,,,,w,1,1.5089,1.671183355,0,1,14,0,56,3,1,,,,,,,,,,,,,,
,,,,,,,,,,,left.png,,w,left,61329758a6a8f07ab3d640cf,2021-10-27_10h42.26.542,arrow_simon_punish,2021.1.2,Win32,59.21013678,,,,,,,,,,,,,,w,1,1.5744,2.034766812,0,1,14,1,57,2,1,,,,,,,,,,,,,,
,,,,,,,,,,,left.png,,w,left,61329758a6a8f07ab3d640cf,2021-10-27_10h42.26.542,arrow_simon_punish,2021.1.2,Win32,59.21013678,,,,,,,,,,,,,,w,1,1.4796,1.502331501,0,1,14,2,58,2,1,,,,,,,,,,,,,,
,,,,,,,,,,,left.png,,w,left,61329758a6a8f07ab3d640cf,2021-10-27_10h42.26.542,arrow_simon_punish,2021.1.2,Win32,59.21013678,,,,,,,,,,,,,,w,1,1.6591,2.318274679,1,1,14,3,59,2,1,,,,,,,,,,,,,,
,,,,,,,,,,,,,,,61329758a6a8f07ab3d640cf,2021-10-27_10h42.26.542,arrow_simon_punish,2021.1.2,Win32,59.21013678,,,,,,,,,,,,,,,,,,,,,,,,,space,131.6752,4,1,0,2,0,1,1,,,,,
,,,,,,,,,,,right.png,,p,right,61329758a6a8f07ab3d640cf,2021-10-27_10h42.26.542,arrow_simon_punish,2021.1.2,Win32,59.21013678,,,,,,,,,,,,,,p,1,1.5425,1.963859367,0,5,0,0,0,1,1,,,,,,,,,,,,,,
,,,,,,,,,,,left.png,,w,right,61329758a6a8f07ab3d640cf,2021-10-27_10h42.26.542,arrow_simon_punish,2021.1.2,Win32,59.21013678,,,,,,,,,,,,,,p,0,1.5916,2.276635493,1,5,0,1,1,3,1,,,,,,,,,,,,,,
,,,,,,,,,,,right.png,,p,left,61329758a6a8f07ab3d640cf,2021-10-27_10h42.26.542,arrow_simon_punish,2021.1.2,Win32,59.21013678,,,,,,,,,,,,,,p,1,1.5116,1.830556529,0,5,0,2,2,0,1,,,,,,,,,,,,,,
,,,,,,,,,,,left.png,,w,left,61329758a6a8f07ab3d640cf,2021-10-27_10h42.26.542,arrow_simon_punish,2021.1.2,Win32,59.21013678,,,,,,,,,,,,,,w,1,1.4579,1.673841204,0,5,0,3,3,2,1,,,,,,,,,,,,,,
,,,,,,,,,,,left.png,,w,right,61329758a6a8f07ab3d640cf,2021-10-27_10h42.26.542,arrow_simon_punish,2021.1.2,Win32,59.21013678,,,,,,,,,,,,,,w,1,1.5409,1.681640654,0,5,1,0,4,3,1,,,,,,,,,,,,,,
,,,,,,,,,,,left.png,,w,right,61329758a6a8f07ab3d640cf,2021-10-27_10h42.26.542,arrow_simon_punish,2021.1.2,Win32,59.21013678,,,,,,,,,,,,,,p,0,1.591,2.208841543,1,5,1,1,5,3,1,,,,,,,,,,,,,,
,,,,,,,,,,,right.png,,p,left,61329758a6a8f07ab3d640cf,2021-10-27_10h42.26.542,arrow_simon_punish,2021.1.2,Win32,59.21013678,,,,,,,,,,,,,,p,1,1.5111,2.080990714,0,5,1,2,6,0,1,,,,,,,,,,,,,,
,,,,,,,,,,,right.png,,p,left,61329758a6a8f07ab3d640cf,2021-10-27_10h42.26.542,arrow_simon_punish,2021.1.2,Win32,59.21013678,,,,,,,,,,,,,,p,1,1.4973,1.836192202,0,5,1,3,7,0,1,,,,,,,,,,,,,,
,,,,,,,,,,,right.png,,p,right,61329758a6a8f07ab3d640cf,2021-10-27_10h42.26.542,arrow_simon_punish,2021.1.2,Win32,59.21013678,,,,,,,,,,,,,,w,0,1.4908,2.423606897,1,5,2,0,8,1,1,,,,,,,,,,,,,,
,,,,,,,,,,,right.png,,p,left,61329758a6a8f07ab3d640cf,2021-10-27_10h42.26.542,arrow_simon_punish,2021.1.2,Win32,59.21013678,,,,,,,,,,,,,,p,1,1.4909,1.970864792,0,5,2,1,9,0,1,,,,,,,,,,,,,,
,,,,,,,,,,,right.png,,p,left,61329758a6a8f07ab3d640cf,2021-10-27_10h42.26.542,arrow_simon_punish,2021.1.2,Win32,59.21013678,,,,,,,,,,,,,,p,1,1.3745,1.71444508,1,5,2,2,10,0,1,,,,,,,,,,,,,,
,,,,,,,,,,,right.png,,p,left,61329758a6a8f07ab3d640cf,2021-10-27_10h42.26.542,arrow_simon_punish,2021.1.2,Win32,59.21013678,,,,,,,,,,,,,,p,1,1.5309,2.246667331,0,5,2,3,11,0,1,,,,,,,,,,,,,,
,,,,,,,,,,,left.png,,w,right,61329758a6a8f07ab3d640cf,2021-10-27_10h42.26.542,arrow_simon_punish,2021.1.2,Win32,59.21013678,,,,,,,,,,,,,,p,0,1.7741,2.475870774,1,5,3,0,12,3,1,,,,,,,,,,,,,,
,,,,,,,,,,,right.png,,p,right,61329758a6a8f07ab3d640cf,2021-10-27_10h42.26.542,arrow_simon_punish,2021.1.2,Win32,59.21013678,,,,,,,,,,,,,,p,1,1.5411,1.8211674,0,5,3,1,13,1,1,,,,,,,,,,,,,,
,,,,,,,,,,,left.png,,w,right,61329758a6a8f07ab3d640cf,2021-10-27_10h42.26.542,arrow_simon_punish,2021.1.2,Win32,59.21013678,,,,,,,,,,,,,,w,1,1.4623,1.848161167,0,5,3,2,14,3,1,,,,,,,,,,,,,,
,,,,,,,,,,,left.png,,w,left,61329758a6a8f07ab3d640cf,2021-10-27_10h42.26.542,arrow_simon_punish,2021.1.2,Win32,59.21013678,,,,,,,,,,,,,,p,0,1.4906,2.123690225,1,5,3,3,15,2,1,,,,,,,,,,,,,,
,,,,,,,,,,,left.png,,w,left,61329758a6a8f07ab3d640cf,2021-10-27_10h42.26.542,arrow_simon_punish,2021.1.2,Win32,59.21013678,,,,,,,,,,,,,,p,0,1.0738,1.646820134,1,5,4,0,16,2,1,,,,,,,,,,,,,,
,,,,,,,,,,,left.png,,w,right,61329758a6a8f07ab3d640cf,2021-10-27_10h42.26.542,arrow_simon_punish,2021.1.2,Win32,59.21013678,,,,,,,,,,,,,,w,1,1.5081,1.590521631,0,5,4,1,17,3,1,,,,,,,,,,,,,,
,,,,,,,,,,,right.png,,p,right,61329758a6a8f07ab3d640cf,2021-10-27_10h42.26.542,arrow_simon_punish,2021.1.2,Win32,59.21013678,,,,,,,,,,,,,,p,1,1.5246,1.973896829,0,5,4,2,18,1,1,,,,,,,,,,,,,,
,,,,,,,,,,,right.png,,p,left,61329758a6a8f07ab3d640cf,2021-10-27_10h42.26.542,arrow_simon_punish,2021.1.2,Win32,59.21013678,,,,,,,,,,,,,,w,0,1.5569,2.0832602,1,5,4,3,19,0,1,,,,,,,,,,,,,,
,,,,,,,,,,,left.png,,w,left,61329758a6a8f07ab3d640cf,2021-10-27_10h42.26.542,arrow_simon_punish,2021.1.2,Win32,59.21013678,,,,,,,,,,,,,,w,1,1.4806,1.724645768,0,5,5,0,20,2,1,,,,,,,,,,,,,,
,,,,,,,,,,,right.png,,p,right,61329758a6a8f07ab3d640cf,2021-10-27_10h42.26.542,arrow_simon_punish,2021.1.2,Win32,59.21013678,,,,,,,,,,,,,,p,1,1.4921,2.202789788,0,5,5,1,21,1,1,,,,,,,,,,,,,,
,,,,,,,,,,,right.png,,p,left,61329758a6a8f07ab3d640cf,2021-10-27_10h42.26.542,arrow_simon_punish,2021.1.2,Win32,59.21013678,,,,,,,,,,,,,,p,1,1.4908,2.247322295,0,5,5,2,22,0,1,,,,,,,,,,,,,,
,,,,,,,,,,,right.png,,p,right,61329758a6a8f07ab3d640cf,2021-10-27_10h42.26.542,arrow_simon_punish,2021.1.2,Win32,59.21013678,,,,,,,,,,,,,,p,1,1.5082,1.626286325,0,5,5,3,23,1,1,,,,,,,,,,,,,,
,,,,,,,,,,,left.png,,w,left,61329758a6a8f07ab3d640cf,2021-10-27_10h42.26.542,arrow_simon_punish,2021.1.2,Win32,59.21013678,,,,,,,,,,,,,,w,1,1.5915,2.10847921,0,5,6,0,24,2,1,,,,,,,,,,,,,,
,,,,,,,,,,,left.png,,w,left,61329758a6a8f07ab3d640cf,2021-10-27_10h42.26.542,arrow_simon_punish,2021.1.2,Win32,59.21013678,,,,,,,,,,,,,,w,1,1.4407,1.709522208,0,5,6,1,25,2,1,,,,,,,,,,,,,,
,,,,,,,,,,,right.png,,p,right,61329758a6a8f07ab3d640cf,2021-10-27_10h42.26.542,arrow_simon_punish,2021.1.2,Win32,59.21013678,,,,,,,,,,,,,,p,1,1.4571,1.936793627,0,5,6,2,26,1,1,,,,,,,,,,,,,,
,,,,,,,,,,,left.png,,w,left,61329758a6a8f07ab3d640cf,2021-10-27_10h42.26.542,arrow_simon_punish,2021.1.2,Win32,59.21013678,,,,,,,,,,,,,,w,1,1.4572,1.790646089,0,5,6,3,27,2,1,,,,,,,,,,,,,,
,,,,,,,,,,,left.png,,w,left,61329758a6a8f07ab3d640cf,2021-10-27_10h42.26.542,arrow_simon_punish,2021.1.2,Win32,59.21013678,,,,,,,,,,,,,,w,1,1.5744,2.094646706,0,5,7,0,28,2,1,,,,,,,,,,,,,,
,,,,,,,,,,,right.png,,p,right,61329758a6a8f07ab3d640cf,2021-10-27_10h42.26.542,arrow_simon_punish,2021.1.2,Win32,59.21013678,,,,,,,,,,,,,,p,1,1.4748,1.576832614,0,5,7,1,29,1,1,,,,,,,,,,,,,,
,,,,,,,,,,,right.png,,p,left,61329758a6a8f07ab3d640cf,2021-10-27_10h42.26.542,arrow_simon_punish,2021.1.2,Win32,59.21013678,,,,,,,,,,,,,,w,0,1.528,2.400432011,1,5,7,2,30,0,1,,,,,,,,,,,,,,
,,,,,,,,,,,left.png,,w,right,61329758a6a8f07ab3d640cf,2021-10-27_10h42.26.542,arrow_simon_punish,2021.1.2,Win32,59.21013678,,,,,,,,,,,,,,w,1,1.4579,1.746511506,0,5,7,3,31,3,1,,,,,,,,,,,,,,
,,,,,,,,,,,left.png,,w,right,61329758a6a8f07ab3d640cf,2021-10-27_10h42.26.542,arrow_simon_punish,2021.1.2,Win32,59.21013678,,,,,,,,,,,,,,w,1,1.6078,2.310809781,1,5,8,0,32,3,1,,,,,,,,,,,,,,
,,,,,,,,,,,right.png,,p,right,61329758a6a8f07ab3d640cf,2021-10-27_10h42.26.542,arrow_simon_punish,2021.1.2,Win32,59.21013678,,,,,,,,,,,,,,p,1,1.491,1.987281312,0,5,8,1,33,1,1,,,,,,,,,,,,,,
,,,,,,,,,,,right.png,,p,right,61329758a6a8f07ab3d640cf,2021-10-27_10h42.26.542,arrow_simon_punish,2021.1.2,Win32,59.21013678,,,,,,,,,,,,,,p,1,1.457,1.756341907,0,5,8,2,34,1,1,,,,,,,,,,,,,,
,,,,,,,,,,,left.png,,w,left,61329758a6a8f07ab3d640cf,2021-10-27_10h42.26.542,arrow_simon_punish,2021.1.2,Win32,59.21013678,,,,,,,,,,,,,,w,1,1.4736,1.92965373,0,5,8,3,35,2,1,,,,,,,,,,,,,,
,,,,,,,,,,,left.png,,w,right,61329758a6a8f07ab3d640cf,2021-10-27_10h42.26.542,arrow_simon_punish,2021.1.2,Win32,59.21013678,,,,,,,,,,,,,,p,0,1.4418,2.112443726,1,5,9,0,36,3,1,,,,,,,,,,,,,,
,,,,,,,,,,,left.png,,w,left,61329758a6a8f07ab3d640cf,2021-10-27_10h42.26.542,arrow_simon_punish,2021.1.2,Win32,59.21013678,,,,,,,,,,,,,,p,0,1.5737,2.491208399,1,5,9,1,37,2,1,,,,,,,,,,,,,,
,,,,,,,,,,,left.png,,w,left,61329758a6a8f07ab3d640cf,2021-10-27_10h42.26.542,arrow_simon_punish,2021.1.2,Win32,59.21013678,,,,,,,,,,,,,,w,1,1.4907,1.87465626,0,5,9,2,38,2,1,,,,,,,,,,,,,,
,,,,,,,,,,,left.png,,w,right,61329758a6a8f07ab3d640cf,2021-10-27_10h42.26.542,arrow_simon_punish,2021.1.2,Win32,59.21013678,,,,,,,,,,,,,,w,1,1.5619,1.638888958,0,5,9,3,39,3,1,,,,,,,,,,,,,,
,,,,,,,,,,,left.png,,w,left,61329758a6a8f07ab3d640cf,2021-10-27_10h42.26.542,arrow_simon_punish,2021.1.2,Win32,59.21013678,,,,,,,,,,,,,,w,1,1.5077,2.024560261,0,5,10,0,40,2,1,,,,,,,,,,,,,,
,,,,,,,,,,,right.png,,p,left,61329758a6a8f07ab3d640cf,2021-10-27_10h42.26.542,arrow_simon_punish,2021.1.2,Win32,59.21013678,,,,,,,,,,,,,,w,0,1.5573,2.391423274,1,5,10,1,41,0,1,,,,,,,,,,,,,,
,,,,,,,,,,,left.png,,w,right,61329758a6a8f07ab3d640cf,2021-10-27_10h42.26.542,arrow_simon_punish,2021.1.2,Win32,59.21013678,,,,,,,,,,,,,,w,1,1.5099,2.004929669,0,5,10,2,42,3,1,,,,,,,,,,,,,,
,,,,,,,,,,,right.png,,p,right,61329758a6a8f07ab3d640cf,2021-10-27_10h42.26.542,arrow_simon_punish,2021.1.2,Win32,59.21013678,,,,,,,,,,,,,,p,1,1.4799,1.777526893,0,5,10,3,43,1,1,,,,,,,,,,,,,,
,,,,,,,,,,,left.png,,w,right,61329758a6a8f07ab3d640cf,2021-10-27_10h42.26.542,arrow_simon_punish,2021.1.2,Win32,59.21013678,,,,,,,,,,,,,,w,1,1.4738,1.930445991,0,5,11,0,44,3,1,,,,,,,,,,,,,,
,,,,,,,,,,,right.png,,p,left,61329758a6a8f07ab3d640cf,2021-10-27_10h42.26.542,arrow_simon_punish,2021.1.2,Win32,59.21013678,,,,,,,,,,,,,,p,1,1.4804,2.349233564,0,5,11,1,45,0,1,,,,,,,,,,,,,,
,,,,,,,,,,,right.png,,p,left,61329758a6a8f07ab3d640cf,2021-10-27_10h42.26.542,arrow_simon_punish,2021.1.2,Win32,59.21013678,,,,,,,,,,,,,,w,0,1.4052,2.451443183,1,5,11,2,46,0,1,,,,,,,,,,,,,,
,,,,,,,,,,,left.png,,w,right,61329758a6a8f07ab3d640cf,2021-10-27_10h42.26.542,arrow_simon_punish,2021.1.2,Win32,59.21013678,,,,,,,,,,,,,,p,0,1.4585,1.950798671,1,5,11,3,47,3,1,,,,,,,,,,,,,,
,,,,,,,,,,,left.png,,w,right,61329758a6a8f07ab3d640cf,2021-10-27_10h42.26.542,arrow_simon_punish,2021.1.2,Win32,59.21013678,,,,,,,,,,,,,,w,1,1.4577,1.731468362,0,5,12,0,48,3,1,,,,,,,,,,,,,,
,,,,,,,,,,,left.png,,w,right,61329758a6a8f07ab3d640cf,2021-10-27_10h42.26.542,arrow_simon_punish,2021.1.2,Win32,59.21013678,,,,,,,,,,,,,,w,1,1.5252,1.599715635,0,5,12,1,49,3,1,,,,,,,,,,,,,,
,,,,,,,,,,,left.png,,w,left,61329758a6a8f07ab3d640cf,2021-10-27_10h42.26.542,arrow_simon_punish,2021.1.2,Win32,59.21013678,,,,,,,,,,,,,,w,1,1.5236,2.202196171,0,5,12,2,50,2,1,,,,,,,,,,,,,,
,,,,,,,,,,,left.png,,w,left,61329758a6a8f07ab3d640cf,2021-10-27_10h42.26.542,arrow_simon_punish,2021.1.2,Win32,59.21013678,,,,,,,,,,,,,,w,1,1.5274,1.725843788,0,5,12,3,51,2,1,,,,,,,,,,,,,,
,,,,,,,,,,,right.png,,p,left,61329758a6a8f07ab3d640cf,2021-10-27_10h42.26.542,arrow_simon_punish,2021.1.2,Win32,59.21013678,,,,,,,,,,,,,,p,1,1.4909,1.605091674,0,5,13,0,52,0,1,,,,,,,,,,,,,,
,,,,,,,,,,,right.png,,p,left,61329758a6a8f07ab3d640cf,2021-10-27_10h42.26.542,arrow_simon_punish,2021.1.2,Win32,59.21013678,,,,,,,,,,,,,,p,1,1.508,1.759672783,0,5,13,1,53,0,1,,,,,,,,,,,,,,
,,,,,,,,,,,right.png,,p,right,61329758a6a8f07ab3d640cf,2021-10-27_10h42.26.542,arrow_simon_punish,2021.1.2,Win32,59.21013678,,,,,,,,,,,,,,p,1,1.4742,1.513925319,0,5,13,2,54,1,1,,,,,,,,,,,,,,
,,,,,,,,,,,right.png,,p,left,61329758a6a8f07ab3d640cf,2021-10-27_10h42.26.542,arrow_simon_punish,2021.1.2,Win32,59.21013678,,,,,,,,,,,,,,w,0,1.5409,2.478088153,1,5,13,3,55,0,1,,,,,,,,,,,,,,
,,,,,,,,,,,right.png,,p,right,61329758a6a8f07ab3d640cf,2021-10-27_10h42.26.542,arrow_simon_punish,2021.1.2,Win32,59.21013678,,,,,,,,,,,,,,p,1,1.5409,2.370825401,0,5,14,0,56,1,1,,,,,,,,,,,,,,
,,,,,,,,,,,right.png,,p,right,61329758a6a8f07ab3d640cf,2021-10-27_10h42.26.542,arrow_simon_punish,2021.1.2,Win32,59.21013678,,,,,,,,,,,,,,p,1,1.4574,1.527135387,0,5,14,1,57,1,1,,,,,,,,,,,,,,
,,,,,,,,,,,right.png,,p,right,61329758a6a8f07ab3d640cf,2021-10-27_10h42.26.542,arrow_simon_punish,2021.1.2,Win32,59.21013678,,,,,,,,,,,,,,w,0,1.4578,2.12963325,1,5,14,2,58,1,1,,,,,,,,,,,,,,
,,,,,,,,,,,left.png,,w,left,61329758a6a8f07ab3d640cf,2021-10-27_10h42.26.542,arrow_simon_punish,2021.1.2,Win32,59.21013678,,,,,,,,,,,,,,w,1,1.4791,1.521445332,0,5,14,3,59,2,1,,,,,,,,,,,,,,
,,,,,,,,,,,,,,,61329758a6a8f07ab3d640cf,2021-10-27_10h42.26.542,arrow_simon_punish,2021.1.2,Win32,59.21013678,,,,,,,,,,,,,,,,,,,,,,,,,space,170.0268,5,1,1,3,1,1,5,,,,,
,,,,,,,,,,,left.png,,w,right,61329758a6a8f07ab3d640cf,2021-10-27_10h42.26.542,arrow_simon_punish,2021.1.2,Win32,59.21013678,,,,,,,,,,,,,,w,1,1.4421,1.68626993,0,1,0,0,0,3,1,,,,,,,,,,,,,,
,,,,,,,,,,,left.png,,w,right,61329758a6a8f07ab3d640cf,2021-10-27_10h42.26.542,arrow_simon_punish,2021.1.2,Win32,59.21013678,,,,,,,,,,,,,,w,1,1.5438,2.026271942,0,1,0,1,1,3,1,,,,,,,,,,,,,,
,,,,,,,,,,,left.png,,w,left,61329758a6a8f07ab3d640cf,2021-10-27_10h42.26.542,arrow_simon_punish,2021.1.2,Win32,59.21013678,,,,,,,,,,,,,,w,1,1.4911,1.63613015,0,1,0,2,2,2,1,,,,,,,,,,,,,,
,,,,,,,,,,,right.png,,p,left,61329758a6a8f07ab3d640cf,2021-10-27_10h42.26.542,arrow_simon_punish,2021.1.2,Win32,59.21013678,,,,,,,,,,,,,,p,1,1.5575,1.97986748,0,1,0,3,3,0,1,,,,,,,,,,,,,,
,,,,,,,,,,,right.png,,p,right,61329758a6a8f07ab3d640cf,2021-10-27_10h42.26.542,arrow_simon_punish,2021.1.2,Win32,59.21013678,,,,,,,,,,,,,,p,1,1.5246,1.825396829,0,1,1,0,4,1,1,,,,,,,,,,,,,,
,,,,,,,,,,,left.png,,w,right,61329758a6a8f07ab3d640cf,2021-10-27_10h42.26.542,arrow_simon_punish,2021.1.2,Win32,59.21013678,,,,,,,,,,,,,,w,1,1.4744,1.779050518,0,1,1,1,5,3,1,,,,,,,,,,,,,,
,,,,,,,,,,,left.png,,w,right,61329758a6a8f07ab3d640cf,2021-10-27_10h42.26.542,arrow_simon_punish,2021.1.2,Win32,59.21013678,,,,,,,,,,,,,,w,1,1.5079,1.623379526,0,1,1,2,6,3,1,,,,,,,,,,,,,,
,,,,,,,,,,,left.png,,w,right,61329758a6a8f07ab3d640cf,2021-10-27_10h42.26.542,arrow_simon_punish,2021.1.2,Win32,59.21013678,,,,,,,,,,,,,,w,1,1.4407,1.887614879,0,1,1,3,7,3,1,,,,,,,,,,,,,,
,,,,,,,,,,,right.png,,p,left,61329758a6a8f07ab3d640cf,2021-10-27_10h42.26.542,arrow_simon_punish,2021.1.2,Win32,59.21013678,,,,,,,,,,,,,,w,0,1.5409,2.176019101,1,1,2,0,8,0,1,,,,,,,,,,,,,,
,,,,,,,,,,,left.png,,w,left,61329758a6a8f07ab3d640cf,2021-10-27_10h42.26.542,arrow_simon_punish,2021.1.2,Win32,59.21013678,,,,,,,,,,,,,,p,0,1.5751,2.325969021,1,1,2,1,9,2,1,,,,,,,,,,,,,,
,,,,,,,,,,,left.png,,w,right,61329758a6a8f07ab3d640cf,2021-10-27_10h42.26.542,arrow_simon_punish,2021.1.2,Win32,59.21013678,,,,,,,,,,,,,,w,1,1.4914,1.566180189,0,1,2,2,10,3,1,,,,,,,,,,,,,,
,,,,,,,,,,,right.png,,p,left,61329758a6a8f07ab3d640cf,2021-10-27_10h42.26.542,arrow_simon_punish,2021.1.2,Win32,59.21013678,,,,,,,,,,,,,,p,1,1.5114,1.732147748,0,1,2,3,11,0,1,,,,,,,,,,,,,,
,,,,,,,,,,,left.png,,w,left,61329758a6a8f07ab3d640cf,2021-10-27_10h42.26.542,arrow_simon_punish,2021.1.2,Win32,59.21013678,,,,,,,,,,,,,,w,1,1.5251,1.657561168,0,1,3,0,12,2,1,,,,,,,,,,,,,,
,,,,,,,,,,,left.png,,w,left,61329758a6a8f07ab3d640cf,2021-10-27_10h42.26.542,arrow_simon_punish,2021.1.2,Win32,59.21013678,,,,,,,,,,,,,,p,0,1.4909,2.06354258,1,1,3,1,13,2,1,,,,,,,,,,,,,,
,,,,,,,,,,,left.png,,w,left,61329758a6a8f07ab3d640cf,2021-10-27_10h42.26.542,arrow_simon_punish,2021.1.2,Win32,59.21013678,,,,,,,,,,,,,,w,1,1.5911,1.930213754,0,1,3,2,14,2,1,,,,,,,,,,,,,,
,,,,,,,,,,,right.png,,p,left,61329758a6a8f07ab3d640cf,2021-10-27_10h42.26.542,arrow_simon_punish,2021.1.2,Win32,59.21013678,,,,,,,,,,,,,,p,1,1.6081,2.096126133,1,1,3,3,15,0,1,,,,,,,,,,,,,,
,,,,,,,,,,,left.png,,w,left,61329758a6a8f07ab3d640cf,2021-10-27_10h42.26.542,arrow_simon_punish,2021.1.2,Win32,59.21013678,,,,,,,,,,,,,,p,0,1.4911,2.078010657,1,1,4,0,16,2,1,,,,,,,,,,,,,,
,,,,,,,,,,,left.png,,w,left,61329758a6a8f07ab3d640cf,2021-10-27_10h42.26.542,arrow_simon_punish,2021.1.2,Win32,59.21013678,,,,,,,,,,,,,,w,1,1.5597,2.099682635,0,1,4,1,17,2,1,,,,,,,,,,,,,,
,,,,,,,,,,,right.png,,p,right,61329758a6a8f07ab3d640cf,2021-10-27_10h42.26.542,arrow_simon_punish,2021.1.2,Win32,59.21013678,,,,,,,,,,,,,,p,1,1.5248,1.58942431,0,1,4,2,18,1,1,,,,,,,,,,,,,,
,,,,,,,,,,,left.png,,w,right,61329758a6a8f07ab3d640cf,2021-10-27_10h42.26.542,arrow_simon_punish,2021.1.2,Win32,59.21013678,,,,,,,,,,,,,,w,1,1.4905,1.881609976,0,1,4,3,19,3,1,,,,,,,,,,,,,,
,,,,,,,,,,,right.png,,p,right,61329758a6a8f07ab3d640cf,2021-10-27_10h42.26.542,arrow_simon_punish,2021.1.2,Win32,59.21013678,,,,,,,,,,,,,,p,1,1.6073,2.391403574,1,1,5,0,20,1,1,,,,,,,,,,,,,,
,,,,,,,,,,,left.png,,w,left,61329758a6a8f07ab3d640cf,2021-10-27_10h42.26.542,arrow_simon_punish,2021.1.2,Win32,59.21013678,,,,,,,,,,,,,,w,1,1.5079,1.855834168,0,1,5,1,21,2,1,,,,,,,,,,,,,,
,,,,,,,,,,,right.png,,p,left,61329758a6a8f07ab3d640cf,2021-10-27_10h42.26.542,arrow_simon_punish,2021.1.2,Win32,59.21013678,,,,,,,,,,,,,,p,1,1.5109,1.916524911,0,1,5,2,22,0,1,,,,,,,,,,,,,,
,,,,,,,,,,,right.png,,p,left,61329758a6a8f07ab3d640cf,2021-10-27_10h42.26.542,arrow_simon_punish,2021.1.2,Win32,59.21013678,,,,,,,,,,,,,,p,1,1.4411,1.91508512,0,1,5,3,23,0,1,,,,,,,,,,,,,,
,,,,,,,,,,,right.png,,p,right,61329758a6a8f07ab3d640cf,2021-10-27_10h42.26.542,arrow_simon_punish,2021.1.2,Win32,59.21013678,,,,,,,,,,,,,,p,1,1.5576,1.801501954,0,1,6,0,24,1,1,,,,,,,,,,,,,,
,,,,,,,,,,,left.png,,w,left,61329758a6a8f07ab3d640cf,2021-10-27_10h42.26.542,arrow_simon_punish,2021.1.2,Win32,59.21013678,,,,,,,,,,,,,,p,0,1.5416,2.192044949,1,1,6,1,25,2,1,,,,,,,,,,,,,,
,,,,,,,,,,,right.png,,p,right,61329758a6a8f07ab3d640cf,2021-10-27_10h42.26.542,arrow_simon_punish,2021.1.2,Win32,59.21013678,,,,,,,,,,,,,,p,1,1.5605,2.436563043,0,1,6,2,26,1,1,,,,,,,,,,,,,,
,,,,,,,,,,,left.png,,w,right,61329758a6a8f07ab3d640cf,2021-10-27_10h42.26.542,arrow_simon_punish,2021.1.2,Win32,59.21013678,,,,,,,,,,,,,,w,1,1.5408,1.928009615,0,1,6,3,27,3,1,,,,,,,,,,,,,,
,,,,,,,,,,,right.png,,p,right,61329758a6a8f07ab3d640cf,2021-10-27_10h42.26.542,arrow_simon_punish,2021.1.2,Win32,59.21013678,,,,,,,,,,,,,,p,1,1.5908,2.452100443,0,1,7,0,28,1,1,,,,,,,,,,,,,,
,,,,,,,,,,,left.png,,w,right,61329758a6a8f07ab3d640cf,2021-10-27_10h42.26.542,arrow_simon_punish,2021.1.2,Win32,59.21013678,,,,,,,,,,,,,,w,1,1.5949,2.089011243,0,1,7,1,29,3,1,,,,,,,,,,,,,,
,,,,,,,,,,,left.png,,w,left,61329758a6a8f07ab3d640cf,2021-10-27_10h42.26.542,arrow_simon_punish,2021.1.2,Win32,59.21013678,,,,,,,,,,,,,,p,0,1.5456,2.019418869,1,1,7,2,30,2,1,,,,,,,,,,,,,,
,,,,,,,,,,,left.png,,w,right,61329758a6a8f07ab3d640cf,2021-10-27_10h42.26.542,arrow_simon_punish,2021.1.2,Win32,59.21013678,,,,,,,,,,,,,,w,1,1.5413,2.004889318,0,1,7,3,31,3,1,,,,,,,,,,,,,,
,,,,,,,,,,,right.png,,p,right,61329758a6a8f07ab3d640cf,2021-10-27_10h42.26.542,arrow_simon_punish,2021.1.2,Win32,59.21013678,,,,,,,,,,,,,,w,0,1.5246,2.337947746,1,1,8,0,32,1,1,,,,,,,,,,,,,,
,,,,,,,,,,,right.png,,p,left,61329758a6a8f07ab3d640cf,2021-10-27_10h42.26.542,arrow_simon_punish,2021.1.2,Win32,59.21013678,,,,,,,,,,,,,,p,1,1.5077,1.985323794,0,1,8,1,33,0,1,,,,,,,,,,,,,,
,,,,,,,,,,,left.png,,w,right,61329758a6a8f07ab3d640cf,2021-10-27_10h42.26.542,arrow_simon_punish,2021.1.2,Win32,59.21013678,,,,,,,,,,,,,,w,1,1.5078,1.79838888,0,1,8,2,34,3,1,,,,,,,,,,,,,,
,,,,,,,,,,,right.png,,p,left,61329758a6a8f07ab3d640cf,2021-10-27_10h42.26.542,arrow_simon_punish,2021.1.2,Win32,59.21013678,,,,,,,,,,,,,,p,1,1.5249,1.625079737,0,1,8,3,35,0,1,,,,,,,,,,,,,,
,,,,,,,,,,,right.png,,p,left,61329758a6a8f07ab3d640cf,2021-10-27_10h42.26.542,arrow_simon_punish,2021.1.2,Win32,59.21013678,,,,,,,,,,,,,,p,1,1.5244,1.599645415,0,1,9,0,36,0,1,,,,,,,,,,,,,,
,,,,,,,,,,,left.png,,w,right,61329758a6a8f07ab3d640cf,2021-10-27_10h42.26.542,arrow_simon_punish,2021.1.2,Win32,59.21013678,,,,,,,,,,,,,,p,0,1.5407,2.460997844,1,1,9,1,37,3,1,,,,,,,,,,,,,,
,,,,,,,,,,,left.png,,w,right,61329758a6a8f07ab3d640cf,2021-10-27_10h42.26.542,arrow_simon_punish,2021.1.2,Win32,59.21013678,,,,,,,,,,,,,,w,1,1.5124,1.77128632,0,1,9,2,38,3,1,,,,,,,,,,,,,,
,,,,,,,,,,,right.png,,p,right,61329758a6a8f07ab3d640cf,2021-10-27_10h42.26.542,arrow_simon_punish,2021.1.2,Win32,59.21013678,,,,,,,,,,,,,,p,1,1.5409,1.989780575,0,1,9,3,39,1,1,,,,,,,,,,,,,,
,,,,,,,,,,,left.png,,w,left,61329758a6a8f07ab3d640cf,2021-10-27_10h42.26.542,arrow_simon_punish,2021.1.2,Win32,59.21013678,,,,,,,,,,,,,,w,1,1.5416,2.186030665,0,1,10,0,40,2,1,,,,,,,,,,,,,,
,,,,,,,,,,,right.png,,p,left,61329758a6a8f07ab3d640cf,2021-10-27_10h42.26.542,arrow_simon_punish,2021.1.2,Win32,59.21013678,,,,,,,,,,,,,,p,1,1.5249,2.47183184,0,1,10,1,41,0,1,,,,,,,,,,,,,,
,,,,,,,,,,,right.png,,p,left,61329758a6a8f07ab3d640cf,2021-10-27_10h42.26.542,arrow_simon_punish,2021.1.2,Win32,59.21013678,,,,,,,,,,,,,,p,1,1.512,2.130877434,0,1,10,2,42,0,1,,,,,,,,,,,,,,
,,,,,,,,,,,left.png,,w,right,61329758a6a8f07ab3d640cf,2021-10-27_10h42.26.542,arrow_simon_punish,2021.1.2,Win32,59.21013678,,,,,,,,,,,,,,p,0,1.5579,2.145199083,1,1,10,3,43,3,1,,,,,,,,,,,,,,
,,,,,,,,,,,right.png,,p,right,61329758a6a8f07ab3d640cf,2021-10-27_10h42.26.542,arrow_simon_punish,2021.1.2,Win32,59.21013678,,,,,,,,,,,,,,p,1,1.5078,1.62684813,0,1,11,0,44,1,1,,,,,,,,,,,,,,
,,,,,,,,,,,right.png,,p,right,61329758a6a8f07ab3d640cf,2021-10-27_10h42.26.542,arrow_simon_punish,2021.1.2,Win32,59.21013678,,,,,,,,,,,,,,w,0,1.5582,2.170630908,1,1,11,1,45,1,1,,,,,,,,,,,,,,
,,,,,,,,,,,right.png,,p,left,61329758a6a8f07ab3d640cf,2021-10-27_10h42.26.542,arrow_simon_punish,2021.1.2,Win32,59.21013678,,,,,,,,,,,,,,p,1,1.5578,1.814809087,0,1,11,2,46,0,1,,,,,,,,,,,,,,
,,,,,,,,,,,right.png,,p,right,61329758a6a8f07ab3d640cf,2021-10-27_10h42.26.542,arrow_simon_punish,2021.1.2,Win32,59.21013678,,,,,,,,,,,,,,p,1,1.5275,1.677183236,0,1,11,3,47,1,1,,,,,,,,,,,,,,
,,,,,,,,,,,left.png,,w,left,61329758a6a8f07ab3d640cf,2021-10-27_10h42.26.542,arrow_simon_punish,2021.1.2,Win32,59.21013678,,,,,,,,,,,,,,p,0,1.6089,2.4275164,1,1,12,0,48,2,1,,,,,,,,,,,,,,
,,,,,,,,,,,left.png,,w,left,61329758a6a8f07ab3d640cf,2021-10-27_10h42.26.542,arrow_simon_punish,2021.1.2,Win32,59.21013678,,,,,,,,,,,,,,p,0,1.5075,2.192334584,1,1,12,1,49,2,1,,,,,,,,,,,,,,
,,,,,,,,,,,right.png,,p,left,61329758a6a8f07ab3d640cf,2021-10-27_10h42.26.542,arrow_simon_punish,2021.1.2,Win32,59.21013678,,,,,,,,,,,,,,p,1,1.5069,1.664752323,0,1,12,2,50,0,1,,,,,,,,,,,,,,
,,,,,,,,,,,left.png,,w,left,61329758a6a8f07ab3d640cf,2021-10-27_10h42.26.542,arrow_simon_punish,2021.1.2,Win32,59.21013678,,,,,,,,,,,,,,w,1,1.5416,2.468816024,0,1,12,3,51,2,1,,,,,,,,,,,,,,
,,,,,,,,,,,right.png,,p,right,61329758a6a8f07ab3d640cf,2021-10-27_10h42.26.542,arrow_simon_punish,2021.1.2,Win32,59.21013678,,,,,,,,,,,,,,p,1,1.5076,1.849052411,0,1,13,0,52,1,1,,,,,,,,,,,,,,
,,,,,,,,,,,right.png,,p,left,61329758a6a8f07ab3d640cf,2021-10-27_10h42.26.542,arrow_simon_punish,2021.1.2,Win32,59.21013678,,,,,,,,,,,,,,w,0,1.524,2.290938923,1,1,13,1,53,0,1,,,,,,,,,,,,,,
,,,,,,,,,,,right.png,,p,right,61329758a6a8f07ab3d640cf,2021-10-27_10h42.26.542,arrow_simon_punish,2021.1.2,Win32,59.21013678,,,,,,,,,,,,,,p,1,1.5577,2.190355862,0,1,13,2,54,1,1,,,,,,,,,,,,,,
,,,,,,,,,,,right.png,,p,right,61329758a6a8f07ab3d640cf,2021-10-27_10h42.26.542,arrow_simon_punish,2021.1.2,Win32,59.21013678,,,,,,,,,,,,,,p,1,1.4899,1.527040571,0,1,13,3,55,1,1,,,,,,,,,,,,,,
,,,,,,,,,,,left.png,,w,left,61329758a6a8f07ab3d640cf,2021-10-27_10h42.26.542,arrow_simon_punish,2021.1.2,Win32,59.21013678,,,,,,,,,,,,,,p,0,1.4798,2.481150387,1,1,14,0,56,2,1,,,,,,,,,,,,,,
,,,,,,,,,,,left.png,,w,right,61329758a6a8f07ab3d640cf,2021-10-27_10h42.26.542,arrow_simon_punish,2021.1.2,Win32,59.21013678,,,,,,,,,,,,,,w,1,1.5578,2.369832877,0,1,14,1,57,3,1,,,,,,,,,,,,,,
,,,,,,,,,,,right.png,,p,left,61329758a6a8f07ab3d640cf,2021-10-27_10h42.26.542,arrow_simon_punish,2021.1.2,Win32,59.21013678,,,,,,,,,,,,,,p,1,1.4416,1.835951693,0,1,14,2,58,0,1,,,,,,,,,,,,,,
,,,,,,,,,,,right.png,,p,right,61329758a6a8f07ab3d640cf,2021-10-27_10h42.26.542,arrow_simon_punish,2021.1.2,Win32,59.21013678,,,,,,,,,,,,,,p,1,1.5415,1.790004446,0,1,14,3,59,1,1,,,,,,,,,,,,,,
,,,,,,,,,,,,,,,61329758a6a8f07ab3d640cf,2021-10-27_10h42.26.542,arrow_simon_punish,2021.1.2,Win32,59.21013678,,,,,,,,,,,,,,,,,,,,,,,,,space,6.6711,6,2,0,4,0,1,1,,,,,
,,,,,,,,,,,left.png,,w,left,61329758a6a8f07ab3d640cf,2021-10-27_10h42.26.542,arrow_simon_punish,2021.1.2,Win32,59.21013678,,,,,,,,,,,,,,w,1,1.4953,1.955404457,0,5,0,0,0,2,1,,,,,,,,,,,,,,
,,,,,,,,,,,right.png,,p,left,61329758a6a8f07ab3d640cf,2021-10-27_10h42.26.542,arrow_simon_punish,2021.1.2,Win32,59.21013678,,,,,,,,,,,,,,p,1,1.4911,2.457083684,0,5,0,1,1,0,1,,,,,,,,,,,,,,
,,,,,,,,,,,left.png,,w,left,61329758a6a8f07ab3d640cf,2021-10-27_10h42.26.542,arrow_simon_punish,2021.1.2,Win32,59.21013678,,,,,,,,,,,,,,w,1,1.5239,2.304141633,0,5,0,2,2,2,1,,,,,,,,,,,,,,
,,,,,,,,,,,right.png,,p,left,61329758a6a8f07ab3d640cf,2021-10-27_10h42.26.542,arrow_simon_punish,2021.1.2,Win32,59.21013678,,,,,,,,,,,,,,p,1,1.4963,2.266938938,0,5,0,3,3,0,1,,,,,,,,,,,,,,
,,,,,,,,,,,right.png,,p,right,61329758a6a8f07ab3d640cf,2021-10-27_10h42.26.542,arrow_simon_punish,2021.1.2,Win32,59.21013678,,,,,,,,,,,,,,p,1,1.5415,2.048370251,0,5,1,0,4,1,1,,,,,,,,,,,,,,
,,,,,,,,,,,right.png,,p,right,61329758a6a8f07ab3d640cf,2021-10-27_10h42.26.542,arrow_simon_punish,2021.1.2,Win32,59.21013678,,,,,,,,,,,,,,p,1,1.5251,1.740677164,0,5,1,1,5,1,1,,,,,,,,,,,,,,
,,,,,,,,,,,left.png,,w,right,61329758a6a8f07ab3d640cf,2021-10-27_10h42.26.542,arrow_simon_punish,2021.1.2,Win32,59.21013678,,,,,,,,,,,,,,w,1,1.508,2.131404632,0,5,1,2,6,3,1,,,,,,,,,,,,,,
,,,,,,,,,,,left.png,,w,left,61329758a6a8f07ab3d640cf,2021-10-27_10h42.26.542,arrow_simon_punish,2021.1.2,Win32,59.21013678,,,,,,,,,,,,,,w,1,1.561,2.061682649,0,5,1,3,7,2,1,,,,,,,,,,,,,,
,,,,,,,,,,,right.png,,p,left,61329758a6a8f07ab3d640cf,2021-10-27_10h42.26.542,arrow_simon_punish,2021.1.2,Win32,59.21013678,,,,,,,,,,,,,,p,1,1.5067,1.804080527,0,5,2,0,8,0,1,,,,,,,,,,,,,,
,,,,,,,,,,,left.png,,w,left,61329758a6a8f07ab3d640cf,2021-10-27_10h42.26.542,arrow_simon_punish,2021.1.2,Win32,59.21013678,,,,,,,,,,,,,,w,1,1.5239,2.198298252,0,5,2,1,9,2,1,,,,,,,,,,,,,,
,,,,,,,,,,,left.png,,w,right,61329758a6a8f07ab3d640cf,2021-10-27_10h42.26.542,arrow_simon_punish,2021.1.2,Win32,59.21013678,,,,,,,,,,,,,,w,1,1.4465,1.588074536,0,5,2,2,10,3,1,,,,,,,,,,,,,,
,,,,,,,,,,,right.png,,p,right,61329758a6a8f07ab3d640cf,2021-10-27_10h42.26.542,arrow_simon_punish,2021.1.2,Win32,59.21013678,,,,,,,,,,,,,,p,1,1.508,1.73945058,0,5,2,3,11,1,1,,,,,,,,,,,,,,
,,,,,,,,,,,right.png,,p,left,61329758a6a8f07ab3d640cf,2021-10-27_10h42.26.542,arrow_simon_punish,2021.1.2,Win32,59.21013678,,,,,,,,,,,,,,p,1,1.51,1.553495911,0,5,3,0,12,0,1,,,,,,,,,,,,,,
,,,,,,,,,,,right.png,,p,right,61329758a6a8f07ab3d640cf,2021-10-27_10h42.26.542,arrow_simon_punish,2021.1.2,Win32,59.21013678,,,,,,,,,,,,,,w,0,1.6252,2.49652966,1,5,3,1,13,1,1,,,,,,,,,,,,,,
,,,,,,,,,,,right.png,,p,left,61329758a6a8f07ab3d640cf,2021-10-27_10h42.26.542,arrow_simon_punish,2021.1.2,Win32,59.21013678,,,,,,,,,,,,,,w,0,1.5081,2.402442739,1,5,3,2,14,0,1,,,,,,,,,,,,,,
,,,,,,,,,,,right.png,,p,right,61329758a6a8f07ab3d640cf,2021-10-27_10h42.26.542,arrow_simon_punish,2021.1.2,Win32,59.21013678,,,,,,,,,,,,,,p,1,1.4735,1.689611499,0,5,3,3,15,1,1,,,,,,,,,,,,,,
,,,,,,,,,,,left.png,,w,left,61329758a6a8f07ab3d640cf,2021-10-27_10h42.26.542,arrow_simon_punish,2021.1.2,Win32,59.21013678,,,,,,,,,,,,,,w,1,1.5099,2.18995675,0,5,4,0,16,2,1,,,,,,,,,,,,,,
,,,,,,,,,,,right.png,,p,left,61329758a6a8f07ab3d640cf,2021-10-27_10h42.26.542,arrow_simon_punish,2021.1.2,Win32,59.21013678,,,,,,,,,,,,,,p,1,1.4749,1.831506054,0,5,4,1,17,0,1,,,,,,,,,,,,,,
,,,,,,,,,,,left.png,,w,right,61329758a6a8f07ab3d640cf,2021-10-27_10h42.26.542,arrow_simon_punish,2021.1.2,Win32,59.21013678,,,,,,,,,,,,,,w,1,1.4768,1.772667993,0,5,4,2,18,3,1,,,,,,,,,,,,,,
,,,,,,,,,,,left.png,,w,right,61329758a6a8f07ab3d640cf,2021-10-27_10h42.26.542,arrow_simon_punish,2021.1.2,Win32,59.21013678,,,,,,,,,,,,,,p,0,1.558,2.393670588,1,5,4,3,19,3,1,,,,,,,,,,,,,,
,,,,,,,,,,,left.png,,w,right,61329758a6a8f07ab3d640cf,2021-10-27_10h42.26.542,arrow_simon_punish,2021.1.2,Win32,59.21013678,,,,,,,,,,,,,,p,0,1.457,2.237456608,1,5,5,0,20,3,1,,,,,,,,,,,,,,
,,,,,,,,,,,left.png,,w,right,61329758a6a8f07ab3d640cf,2021-10-27_10h42.26.542,arrow_simon_punish,2021.1.2,Win32,59.21013678,,,,,,,,,,,,,,w,1,1.4743,1.544877434,0,5,5,1,21,3,1,,,,,,,,,,,,,,
,,,,,,,,,,,right.png,,p,right,61329758a6a8f07ab3d640cf,2021-10-27_10h42.26.542,arrow_simon_punish,2021.1.2,Win32,59.21013678,,,,,,,,,,,,,,p,1,1.5088,2.147642852,0,5,5,2,22,1,1,,,,,,,,,,,,,,
,,,,,,,,,,,left.png,,w,right,61329758a6a8f07ab3d640cf,2021-10-27_10h42.26.542,arrow_simon_punish,2021.1.2,Win32,59.21013678,,,,,,,,,,,,,,p,0,1.5078,2.188593101,1,5,5,3,23,3,1,,,,,,,,,,,,,,
,,,,,,,,,,,left.png,,w,left,61329758a6a8f07ab3d640cf,2021-10-27_10h42.26.542,arrow_simon_punish,2021.1.2,Win32,59.21013678,,,,,,,,,,,,,,w,1,1.5069,1.62555698,0,5,6,0,24,2,1,,,,,,,,,,,,,,
,,,,,,,,,,,left.png,,w,right,61329758a6a8f07ab3d640cf,2021-10-27_10h42.26.542,arrow_simon_punish,2021.1.2,Win32,59.21013678,,,,,,,,,,,,,,w,1,1.4749,1.788842395,0,5,6,1,25,3,1,,,,,,,,,,,,,,
,,,,,,,,,,,left.png,,w,right,61329758a6a8f07ab3d640cf,2021-10-27_10h42.26.542,arrow_simon_punish,2021.1.2,Win32,59.21013678,,,,,,,,,,,,,,w,1,1.5415,2.021127169,0,5,6,2,26,3,1,,,,,,,,,,,,,,
,,,,,,,,,,,left.png,,w,left,61329758a6a8f07ab3d640cf,2021-10-27_10h42.26.542,arrow_simon_punish,2021.1.2,Win32,59.21013678,,,,,,,,,,,,,,w,1,1.4779,1.894379111,0,5,6,3,27,2,1,,,,,,,,,,,,,,
,,,,,,,,,,,left.png,,w,left,61329758a6a8f07ab3d640cf,2021-10-27_10h42.26.542,arrow_simon_punish,2021.1.2,Win32,59.21013678,,,,,,,,,,,,,,w,1,1.5457,2.346249983,0,5,7,0,28,2,1,,,,,,,,,,,,,,
,,,,,,,,,,,left.png,,w,right,61329758a6a8f07ab3d640cf,2021-10-27_10h42.26.542,arrow_simon_punish,2021.1.2,Win32,59.21013678,,,,,,,,,,,,,,w,1,1.492,1.610222815,0,5,7,1,29,3,1,,,,,,,,,,,,,,
,,,,,,,,,,,right.png,,p,left,61329758a6a8f07ab3d640cf,2021-10-27_10h42.26.542,arrow_simon_punish,2021.1.2,Win32,59.21013678,,,,,,,,,,,,,,w,0,1.6575,2.259242582,1,5,7,2,30,0,1,,,,,,,,,,,,,,
,,,,,,,,,,,left.png,,w,right,61329758a6a8f07ab3d640cf,2021-10-27_10h42.26.542,arrow_simon_punish,2021.1.2,Win32,59.21013678,,,,,,,,,,,,,,w,1,1.5078,1.927579774,0,5,7,3,31,3,1,,,,,,,,,,,,,,
,,,,,,,,,,,right.png,,p,right,61329758a6a8f07ab3d640cf,2021-10-27_10h42.26.542,arrow_simon_punish,2021.1.2,Win32,59.21013678,,,,,,,,,,,,,,p,1,1.5241,2.471861075,0,5,8,0,32,1,1,,,,,,,,,,,,,,
,,,,,,,,,,,right.png,,p,right,61329758a6a8f07ab3d640cf,2021-10-27_10h42.26.542,arrow_simon_punish,2021.1.2,Win32,59.21013678,,,,,,,,,,,,,,p,1,1.6745,2.102220058,1,5,8,1,33,1,1,,,,,,,,,,,,,,
,,,,,,,,,,,right.png,,p,left,61329758a6a8f07ab3d640cf,2021-10-27_10h42.26.542,arrow_simon_punish,2021.1.2,Win32,59.21013678,,,,,,,,,,,,,,p,1,1.4283,1.671794261,0,5,8,2,34,0,1,,,,,,,,,,,,,,
,,,,,,,,,,,left.png,,w,left,61329758a6a8f07ab3d640cf,2021-10-27_10h42.26.542,arrow_simon_punish,2021.1.2,Win32,59.21013678,,,,,,,,,,,,,,w,1,1.4745,1.661308444,0,5,8,3,35,2,1,,,,,,,,,,,,,,
,,,,,,,,,,,left.png,,w,right,61329758a6a8f07ab3d640cf,2021-10-27_10h42.26.542,arrow_simon_punish,2021.1.2,Win32,59.21013678,,,,,,,,,,,,,,p,0,1.4787,2.410842902,1,5,9,0,36,3,1,,,,,,,,,,,,,,
,,,,,,,,,,,right.png,,p,left,61329758a6a8f07ab3d640cf,2021-10-27_10h42.26.542,arrow_simon_punish,2021.1.2,Win32,59.21013678,,,,,,,,,,,,,,p,1,1.4743,1.74125594,0,5,9,1,37,0,1,,,,,,,,,,,,,,
,,,,,,,,,,,left.png,,w,right,61329758a6a8f07ab3d640cf,2021-10-27_10h42.26.542,arrow_simon_punish,2021.1.2,Win32,59.21013678,,,,,,,,,,,,,,p,0,1.5273,2.420322631,1,5,9,2,38,3,1,,,,,,,,,,,,,,
,,,,,,,,,,,left.png,,w,right,61329758a6a8f07ab3d640cf,2021-10-27_10h42.26.542,arrow_simon_punish,2021.1.2,Win32,59.21013678,,,,,,,,,,,,,,w,1,1.5084,2.22917298,0,5,9,3,39,3,1,,,,,,,,,,,,,,
,,,,,,,,,,,right.png,,p,left,61329758a6a8f07ab3d640cf,2021-10-27_10h42.26.542,arrow_simon_punish,2021.1.2,Win32,59.21013678,,,,,,,,,,,,,,p,1,1.475,1.69132191,0,5,10,0,40,0,1,,,,,,,,,,,,,,
,,,,,,,,,,,right.png,,p,left,61329758a6a8f07ab3d640cf,2021-10-27_10h42.26.542,arrow_simon_punish,2021.1.2,Win32,59.21013678,,,,,,,,,,,,,,p,1,1.5595,2.382194907,0,5,10,1,41,0,1,,,,,,,,,,,,,,
,,,,,,,,,,,left.png,,w,left,61329758a6a8f07ab3d640cf,2021-10-27_10h42.26.542,arrow_simon_punish,2021.1.2,Win32,59.21013678,,,,,,,,,,,,,,w,1,1.4639,1.646911183,0,5,10,2,42,2,1,,,,,,,,,,,,,,
,,,,,,,,,,,left.png,,w,left,61329758a6a8f07ab3d640cf,2021-10-27_10h42.26.542,arrow_simon_punish,2021.1.2,Win32,59.21013678,,,,,,,,,,,,,,w,1,1.4442,1.741650438,0,5,10,3,43,2,1,,,,,,,,,,,,,,
,,,,,,,,,,,right.png,,p,left,61329758a6a8f07ab3d640cf,2021-10-27_10h42.26.542,arrow_simon_punish,2021.1.2,Win32,59.21013678,,,,,,,,,,,,,,w,0,1.5081,2.148946549,1,5,11,0,44,0,1,,,,,,,,,,,,,,
,,,,,,,,,,,left.png,,w,left,61329758a6a8f07ab3d640cf,2021-10-27_10h42.26.542,arrow_simon_punish,2021.1.2,Win32,59.21013678,,,,,,,,,,,,,,w,1,1.4757,1.546536699,0,5,11,1,45,2,1,,,,,,,,,,,,,,
,,,,,,,,,,,left.png,,w,right,61329758a6a8f07ab3d640cf,2021-10-27_10h42.26.542,arrow_simon_punish,2021.1.2,Win32,59.21013678,,,,,,,,,,,,,,p,0,1.5271,2.349488249,1,5,11,2,46,3,1,,,,,,,,,,,,,,
,,,,,,,,,,,right.png,,p,right,61329758a6a8f07ab3d640cf,2021-10-27_10h42.26.542,arrow_simon_punish,2021.1.2,Win32,59.21013678,,,,,,,,,,,,,,p,1,1.4899,2.109915565,0,5,11,3,47,1,1,,,,,,,,,,,,,,
,,,,,,,,,,,left.png,,w,left,61329758a6a8f07ab3d640cf,2021-10-27_10h42.26.542,arrow_simon_punish,2021.1.2,Win32,59.21013678,,,,,,,,,,,,,,w,1,1.5574,2.073984143,0,5,12,0,48,2,1,,,,,,,,,,,,,,
,,,,,,,,,,,left.png,,w,left,61329758a6a8f07ab3d640cf,2021-10-27_10h42.26.542,arrow_simon_punish,2021.1.2,Win32,59.21013678,,,,,,,,,,,,,,p,0,1.508,2.189129203,1,5,12,1,49,2,1,,,,,,,,,,,,,,
,,,,,,,,,,,right.png,,p,left,61329758a6a8f07ab3d640cf,2021-10-27_10h42.26.542,arrow_simon_punish,2021.1.2,Win32,59.21013678,,,,,,,,,,,,,,w,0,1.5278,2.039676652,1,5,12,2,50,0,1,,,,,,,,,,,,,,
,,,,,,,,,,,right.png,,p,right,61329758a6a8f07ab3d640cf,2021-10-27_10h42.26.542,arrow_simon_punish,2021.1.2,Win32,59.21013678,,,,,,,,,,,,,,p,1,1.5079,1.760095512,0,5,12,3,51,1,1,,,,,,,,,,,,,,
,,,,,,,,,,,right.png,,p,right,61329758a6a8f07ab3d640cf,2021-10-27_10h42.26.542,arrow_simon_punish,2021.1.2,Win32,59.21013678,,,,,,,,,,,,,,p,1,1.508,2.01239861,0,5,13,0,52,1,1,,,,,,,,,,,,,,
,,,,,,,,,,,right.png,,p,right,61329758a6a8f07ab3d640cf,2021-10-27_10h42.26.542,arrow_simon_punish,2021.1.2,Win32,59.21013678,,,,,,,,,,,,,,p,1,1.5076,1.775137595,0,5,13,1,53,1,1,,,,,,,,,,,,,,
,,,,,,,,,,,right.png,,p,right,61329758a6a8f07ab3d640cf,2021-10-27_10h42.26.542,arrow_simon_punish,2021.1.2,Win32,59.21013678,,,,,,,,,,,,,,p,1,1.5584,1.762465653,0,5,13,2,54,1,1,,,,,,,,,,,,,,
,,,,,,,,,,,right.png,,p,left,61329758a6a8f07ab3d640cf,2021-10-27_10h42.26.542,arrow_simon_punish,2021.1.2,Win32,59.21013678,,,,,,,,,,,,,,p,1,1.6098,1.750432535,1,5,13,3,55,0,1,,,,,,,,,,,,,,
,,,,,,,,,,,right.png,,p,left,61329758a6a8f07ab3d640cf,2021-10-27_10h42.26.542,arrow_simon_punish,2021.1.2,Win32,59.21013678,,,,,,,,,,,,,,p,1,1.5116,2.33480902,0,5,14,0,56,0,1,,,,,,,,,,,,,,
,,,,,,,,,,,right.png,,p,right,61329758a6a8f07ab3d640cf,2021-10-27_10h42.26.542,arrow_simon_punish,2021.1.2,Win32,59.21013678,,,,,,,,,,,,,,p,1,1.5073,2.425480328,0,5,14,1,57,1,1,,,,,,,,,,,,,,
,,,,,,,,,,,right.png,,p,right,61329758a6a8f07ab3d640cf,2021-10-27_10h42.26.542,arrow_simon_punish,2021.1.2,Win32,59.21013678,,,,,,,,,,,,,,p,1,1.4238,1.885578981,0,5,14,2,58,1,1,,,,,,,,,,,,,,
,,,,,,,,,,,left.png,,w,left,61329758a6a8f07ab3d640cf,2021-10-27_10h42.26.542,arrow_simon_punish,2021.1.2,Win32,59.21013678,,,,,,,,,,,,,,w,1,1.3739,1.805004108,1,5,14,3,59,2,1,,,,,,,,,,,,,,
,,,,,,,,,,,,,,,61329758a6a8f07ab3d640cf,2021-10-27_10h42.26.542,arrow_simon_punish,2021.1.2,Win32,59.21013678,,,,,,,,,,,,,,,,,,,,,,,,,space,93.0065,7,2,1,5,1,1,5,,,,,
,,,,,,,,,,,left.png,,w,right,61329758a6a8f07ab3d640cf,2021-10-27_10h42.26.542,arrow_simon_punish,2021.1.2,Win32,59.21013678,,,,,,,,,,,,,,p,0,1.5923,2.230818411,1,1,0,0,0,3,1,,,,,,,,,,,,,,
,,,,,,,,,,,left.png,,w,left,61329758a6a8f07ab3d640cf,2021-10-27_10h42.26.542,arrow_simon_punish,2021.1.2,Win32,59.21013678,,,,,,,,,,,,,,w,1,1.5096,1.685601496,0,1,0,1,1,2,1,,,,,,,,,,,,,,
,,,,,,,,,,,left.png,,w,left,61329758a6a8f07ab3d640cf,2021-10-27_10h42.26.542,arrow_simon_punish,2021.1.2,Win32,59.21013678,,,,,,,,,,,,,,w,1,1.5598,1.883286044,0,1,0,2,2,2,1,,,,,,,,,,,,,,
,,,,,,,,,,,right.png,,p,left,61329758a6a8f07ab3d640cf,2021-10-27_10h42.26.542,arrow_simon_punish,2021.1.2,Win32,59.21013678,,,,,,,,,,,,,,p,1,1.4968,1.807389262,0,1,0,3,3,0,1,,,,,,,,,,,,,,
,,,,,,,,,,,right.png,,p,right,61329758a6a8f07ab3d640cf,2021-10-27_10h42.26.542,arrow_simon_punish,2021.1.2,Win32,59.21013678,,,,,,,,,,,,,,p,1,1.5082,1.976360062,0,1,1,0,4,1,1,,,,,,,,,,,,,,
,,,,,,,,,,,right.png,,p,left,61329758a6a8f07ab3d640cf,2021-10-27_10h42.26.542,arrow_simon_punish,2021.1.2,Win32,59.21013678,,,,,,,,,,,,,,w,0,1.5583,2.112902973,1,1,1,1,5,0,1,,,,,,,,,,,,,,
,,,,,,,,,,,left.png,,w,right,61329758a6a8f07ab3d640cf,2021-10-27_10h42.26.542,arrow_simon_punish,2021.1.2,Win32,59.21013678,,,,,,,,,,,,,,p,0,1.5753,2.235173664,1,1,1,2,6,3,1,,,,,,,,,,,,,,
,,,,,,,,,,,right.png,,p,left,61329758a6a8f07ab3d640cf,2021-10-27_10h42.26.542,arrow_simon_punish,2021.1.2,Win32,59.21013678,,,,,,,,,,,,,,p,1,1.508,1.678255787,0,1,1,3,7,0,1,,,,,,,,,,,,,,
,,,,,,,,,,,left.png,,w,left,61329758a6a8f07ab3d640cf,2021-10-27_10h42.26.542,arrow_simon_punish,2021.1.2,Win32,59.21013678,,,,,,,,,,,,,,p,0,1.5408,2.238609587,1,1,2,0,8,2,1,,,,,,,,,,,,,,
,,,,,,,,,,,right.png,,p,right,61329758a6a8f07ab3d640cf,2021-10-27_10h42.26.542,arrow_simon_punish,2021.1.2,Win32,59.21013678,,,,,,,,,,,,,,p,1,1.5418,1.704811198,0,1,2,1,9,1,1,,,,,,,,,,,,,,
,,,,,,,,,,,left.png,,w,right,61329758a6a8f07ab3d640cf,2021-10-27_10h42.26.542,arrow_simon_punish,2021.1.2,Win32,59.21013678,,,,,,,,,,,,,,w,1,1.5918,2.457227439,0,1,2,2,10,3,1,,,,,,,,,,,,,,
,,,,,,,,,,,left.png,,w,right,61329758a6a8f07ab3d640cf,2021-10-27_10h42.26.542,arrow_simon_punish,2021.1.2,Win32,59.21013678,,,,,,,,,,,,,,p,0,1.5241,2.117022333,1,1,2,3,11,3,1,,,,,,,,,,,,,,
,,,,,,,,,,,right.png,,p,left,61329758a6a8f07ab3d640cf,2021-10-27_10h42.26.542,arrow_simon_punish,2021.1.2,Win32,59.21013678,,,,,,,,,,,,,,p,1,1.5096,1.630576974,0,1,3,0,12,0,1,,,,,,,,,,,,,,
,,,,,,,,,,,right.png,,p,left,61329758a6a8f07ab3d640cf,2021-10-27_10h42.26.542,arrow_simon_punish,2021.1.2,Win32,59.21013678,,,,,,,,,,,,,,p,1,1.5905,1.74932168,0,1,3,1,13,0,1,,,,,,,,,,,,,,
,,,,,,,,,,,left.png,,w,right,61329758a6a8f07ab3d640cf,2021-10-27_10h42.26.542,arrow_simon_punish,2021.1.2,Win32,59.21013678,,,,,,,,,,,,,,p,0,1.5411,2.207194388,1,1,3,2,14,3,1,,,,,,,,,,,,,,
,,,,,,,,,,,right.png,,p,left,61329758a6a8f07ab3d640cf,2021-10-27_10h42.26.542,arrow_simon_punish,2021.1.2,Win32,59.21013678,,,,,,,,,,,,,,p,1,1.5247,1.620212794,0,1,3,3,15,0,1,,,,,,,,,,,,,,
,,,,,,,,,,,left.png,,w,left,61329758a6a8f07ab3d640cf,2021-10-27_10h42.26.542,arrow_simon_punish,2021.1.2,Win32,59.21013678,,,,,,,,,,,,,,w,1,1.49,1.961586922,0,1,4,0,16,2,1,,,,,,,,,,,,,,
,,,,,,,,,,,left.png,,w,left,61329758a6a8f07ab3d640cf,2021-10-27_10h42.26.542,arrow_simon_punish,2021.1.2,Win32,59.21013678,,,,,,,,,,,,,,w,1,1.4746,1.904279027,0,1,4,1,17,2,1,,,,,,,,,,,,,,
,,,,,,,,,,,left.png,,w,left,61329758a6a8f07ab3d640cf,2021-10-27_10h42.26.542,arrow_simon_punish,2021.1.2,Win32,59.21013678,,,,,,,,,,,,,,w,1,1.5078,1.896975659,0,1,4,2,18,2,1,,,,,,,,,,,,,,
,,,,,,,,,,,left.png,,w,left,61329758a6a8f07ab3d640cf,2021-10-27_10h42.26.542,arrow_simon_punish,2021.1.2,Win32,59.21013678,,,,,,,,,,,,,,w,1,1.5098,1.810837947,0,1,4,3,19,2,1,,,,,,,,,,,,,,
,,,,,,,,,,,right.png,,p,left,61329758a6a8f07ab3d640cf,2021-10-27_10h42.26.542,arrow_simon_punish,2021.1.2,Win32,59.21013678,,,,,,,,,,,,,,p,1,1.6078,2.121674365,1,1,5,0,20,0,1,,,,,,,,,,,,,,
,,,,,,,,,,,left.png,,w,right,61329758a6a8f07ab3d640cf,2021-10-27_10h42.26.542,arrow_simon_punish,2021.1.2,Win32,59.21013678,,,,,,,,,,,,,,p,0,1.5427,2.415550825,1,1,5,1,21,3,1,,,,,,,,,,,,,,
,,,,,,,,,,,left.png,,w,left,61329758a6a8f07ab3d640cf,2021-10-27_10h42.26.542,arrow_simon_punish,2021.1.2,Win32,59.21013678,,,,,,,,,,,,,,p,0,1.4571,2.179498221,1,1,5,2,22,2,1,,,,,,,,,,,,,,
,,,,,,,,,,,right.png,,p,left,61329758a6a8f07ab3d640cf,2021-10-27_10h42.26.542,arrow_simon_punish,2021.1.2,Win32,59.21013678,,,,,,,,,,,,,,p,1,1.5067,2.035401685,0,1,5,3,23,0,1,,,,,,,,,,,,,,
,,,,,,,,,,,left.png,,w,left,61329758a6a8f07ab3d640cf,2021-10-27_10h42.26.542,arrow_simon_punish,2021.1.2,Win32,59.21013678,,,,,,,,,,,,,,w,1,1.474,1.727779392,0,1,6,0,24,2,1,,,,,,,,,,,,,,
,,,,,,,,,,,left.png,,w,right,61329758a6a8f07ab3d640cf,2021-10-27_10h42.26.542,arrow_simon_punish,2021.1.2,Win32,59.21013678,,,,,,,,,,,,,,w,1,1.3906,1.724113511,1,1,6,1,25,3,1,,,,,,,,,,,,,,
,,,,,,,,,,,left.png,,w,right,61329758a6a8f07ab3d640cf,2021-10-27_10h42.26.542,arrow_simon_punish,2021.1.2,Win32,59.21013678,,,,,,,,,,,,,,w,1,1.5746,1.954030005,0,1,6,2,26,3,1,,,,,,,,,,,,,,
,,,,,,,,,,,left.png,,w,left,61329758a6a8f07ab3d640cf,2021-10-27_10h42.26.542,arrow_simon_punish,2021.1.2,Win32,59.21013678,,,,,,,,,,,,,,w,1,1.5246,1.708219415,0,1,6,3,27,2,1,,,,,,,,,,,,,,
,,,,,,,,,,,right.png,,p,right,61329758a6a8f07ab3d640cf,2021-10-27_10h42.26.542,arrow_simon_punish,2021.1.2,Win32,59.21013678,,,,,,,,,,,,,,p,1,1.5246,1.676784513,0,1,7,0,28,1,1,,,,,,,,,,,,,,
,,,,,,,,,,,left.png,,w,right,61329758a6a8f07ab3d640cf,2021-10-27_10h42.26.542,arrow_simon_punish,2021.1.2,Win32,59.21013678,,,,,,,,,,,,,,w,1,1.5416,1.598726184,0,1,7,1,29,3,1,,,,,,,,,,,,,,
,,,,,,,,,,,right.png,,p,left,61329758a6a8f07ab3d640cf,2021-10-27_10h42.26.542,arrow_simon_punish,2021.1.2,Win32,59.21013678,,,,,,,,,,,,,,p,1,1.5907,2.417109748,0,1,7,2,30,0,1,,,,,,,,,,,,,,
,,,,,,,,,,,right.png,,p,left,61329758a6a8f07ab3d640cf,2021-10-27_10h42.26.542,arrow_simon_punish,2021.1.2,Win32,59.21013678,,,,,,,,,,,,,,w,0,1.5429,2.325181073,1,1,7,3,31,0,1,,,,,,,,,,,,,,
,,,,,,,,,,,left.png,,w,right,61329758a6a8f07ab3d640cf,2021-10-27_10h42.26.542,arrow_simon_punish,2021.1.2,Win32,59.21013678,,,,,,,,,,,,,,w,1,1.5288,1.704240192,0,1,8,0,32,3,1,,,,,,,,,,,,,,
,,,,,,,,,,,left.png,,w,left,61329758a6a8f07ab3d640cf,2021-10-27_10h42.26.542,arrow_simon_punish,2021.1.2,Win32,59.21013678,,,,,,,,,,,,,,w,1,1.4909,1.703944936,0,1,8,1,33,2,1,,,,,,,,,,,,,,
,,,,,,,,,,,right.png,,p,right,61329758a6a8f07ab3d640cf,2021-10-27_10h42.26.542,arrow_simon_punish,2021.1.2,Win32,59.21013678,,,,,,,,,,,,,,p,1,1.5915,2.103873743,0,1,8,2,34,1,1,,,,,,,,,,,,,,
,,,,,,,,,,,right.png,,p,left,61329758a6a8f07ab3d640cf,2021-10-27_10h42.26.542,arrow_simon_punish,2021.1.2,Win32,59.21013678,,,,,,,,,,,,,,w,0,1.5409,2.403360418,1,1,8,3,35,0,1,,,,,,,,,,,,,,
,,,,,,,,,,,right.png,,p,left,61329758a6a8f07ab3d640cf,2021-10-27_10h42.26.542,arrow_simon_punish,2021.1.2,Win32,59.21013678,,,,,,,,,,,,,,p,1,1.4749,2.298740987,0,1,9,0,36,0,1,,,,,,,,,,,,,,
,,,,,,,,,,,left.png,,w,right,61329758a6a8f07ab3d640cf,2021-10-27_10h42.26.542,arrow_simon_punish,2021.1.2,Win32,59.21013678,,,,,,,,,,,,,,p,0,1.6081,2.142249252,1,1,9,1,37,3,1,,,,,,,,,,,,,,
,,,,,,,,,,,left.png,,w,left,61329758a6a8f07ab3d640cf,2021-10-27_10h42.26.542,arrow_simon_punish,2021.1.2,Win32,59.21013678,,,,,,,,,,,,,,w,1,1.4574,1.615326373,0,1,9,2,38,2,1,,,,,,,,,,,,,,
,,,,,,,,,,,left.png,,w,left,61329758a6a8f07ab3d640cf,2021-10-27_10h42.26.542,arrow_simon_punish,2021.1.2,Win32,59.21013678,,,,,,,,,,,,,,w,1,1.4622,2.145111039,0,1,9,3,39,2,1,,,,,,,,,,,,,,
,,,,,,,,,,,left.png,,w,left,61329758a6a8f07ab3d640cf,2021-10-27_10h42.26.542,arrow_simon_punish,2021.1.2,Win32,59.21013678,,,,,,,,,,,,,,w,1,1.5241,1.73386953,0,1,10,0,40,2,1,,,,,,,,,,,,,,
,,,,,,,,,,,right.png,,p,right,61329758a6a8f07ab3d640cf,2021-10-27_10h42.26.542,arrow_simon_punish,2021.1.2,Win32,59.21013678,,,,,,,,,,,,,,p,1,1.5805,2.474404488,0,1,10,1,41,1,1,,,,,,,,,,,,,,
,,,,,,,,,,,right.png,,p,right,61329758a6a8f07ab3d640cf,2021-10-27_10h42.26.542,arrow_simon_punish,2021.1.2,Win32,59.21013678,,,,,,,,,,,,,,p,1,1.6291,2.153342078,1,1,10,2,42,1,1,,,,,,,,,,,,,,
,,,,,,,,,,,right.png,,p,right,61329758a6a8f07ab3d640cf,2021-10-27_10h42.26.542,arrow_simon_punish,2021.1.2,Win32,59.21013678,,,,,,,,,,,,,,w,0,1.4909,2.258162646,1,1,10,3,43,1,1,,,,,,,,,,,,,,
,,,,,,,,,,,left.png,,w,right,61329758a6a8f07ab3d640cf,2021-10-27_10h42.26.542,arrow_simon_punish,2021.1.2,Win32,59.21013678,,,,,,,,,,,,,,w,1,1.4775,1.820144048,0,1,11,0,44,3,1,,,,,,,,,,,,,,
,,,,,,,,,,,right.png,,p,right,61329758a6a8f07ab3d640cf,2021-10-27_10h42.26.542,arrow_simon_punish,2021.1.2,Win32,59.21013678,,,,,,,,,,,,,,p,1,1.508,1.998379134,0,1,11,1,45,1,1,,,,,,,,,,,,,,
,,,,,,,,,,,left.png,,w,left,61329758a6a8f07ab3d640cf,2021-10-27_10h42.26.542,arrow_simon_punish,2021.1.2,Win32,59.21013678,,,,,,,,,,,,,,w,1,1.5915,2.371159611,0,1,11,2,46,2,1,,,,,,,,,,,,,,
,,,,,,,,,,,right.png,,p,right,61329758a6a8f07ab3d640cf,2021-10-27_10h42.26.542,arrow_simon_punish,2021.1.2,Win32,59.21013678,,,,,,,,,,,,,,p,1,1.4236,1.881106685,0,1,11,3,47,1,1,,,,,,,,,,,,,,
,,,,,,,,,,,left.png,,w,right,61329758a6a8f07ab3d640cf,2021-10-27_10h42.26.542,arrow_simon_punish,2021.1.2,Win32,59.21013678,,,,,,,,,,,,,,w,1,1.5928,2.120386045,0,1,12,0,48,3,1,,,,,,,,,,,,,,
,,,,,,,,,,,right.png,,p,right,61329758a6a8f07ab3d640cf,2021-10-27_10h42.26.542,arrow_simon_punish,2021.1.2,Win32,59.21013678,,,,,,,,,,,,,,p,1,1.4749,1.668174425,0,1,12,1,49,1,1,,,,,,,,,,,,,,
,,,,,,,,,,,left.png,,w,right,61329758a6a8f07ab3d640cf,2021-10-27_10h42.26.542,arrow_simon_punish,2021.1.2,Win32,59.21013678,,,,,,,,,,,,,,w,1,1.4243,2.319148725,0,1,12,2,50,3,1,,,,,,,,,,,,,,
,,,,,,,,,,,right.png,,p,right,61329758a6a8f07ab3d640cf,2021-10-27_10h42.26.542,arrow_simon_punish,2021.1.2,Win32,59.21013678,,,,,,,,,,,,,,p,1,1.491,2.42221396,0,1,12,3,51,1,1,,,,,,,,,,,,,,
,,,,,,,,,,,right.png,,p,right,61329758a6a8f07ab3d640cf,2021-10-27_10h42.26.542,arrow_simon_punish,2021.1.2,Win32,59.21013678,,,,,,,,,,,,,,p,1,1.5098,2.00499355,0,1,13,0,52,1,1,,,,,,,,,,,,,,
,,,,,,,,,,,right.png,,p,left,61329758a6a8f07ab3d640cf,2021-10-27_10h42.26.542,arrow_simon_punish,2021.1.2,Win32,59.21013678,,,,,,,,,,,,,,p,1,1.513,1.610549599,0,1,13,1,53,0,1,,,,,,,,,,,,,,
,,,,,,,,,,,right.png,,p,left,61329758a6a8f07ab3d640cf,2021-10-27_10h42.26.542,arrow_simon_punish,2021.1.2,Win32,59.21013678,,,,,,,,,,,,,,p,1,1.5075,2.154452922,0,1,13,2,54,0,1,,,,,,,,,,,,,,
,,,,,,,,,,,right.png,,p,right,61329758a6a8f07ab3d640cf,2021-10-27_10h42.26.542,arrow_simon_punish,2021.1.2,Win32,59.21013678,,,,,,,,,,,,,,p,1,1.5102,2.381306021,0,1,13,3,55,1,1,,,,,,,,,,,,,,
,,,,,,,,,,,right.png,,p,right,61329758a6a8f07ab3d640cf,2021-10-27_10h42.26.542,arrow_simon_punish,2021.1.2,Win32,59.21013678,,,,,,,,,,,,,,p,1,1.5251,2.480000967,0,1,14,0,56,1,1,,,,,,,,,,,,,,
,,,,,,,,,,,right.png,,p,right,61329758a6a8f07ab3d640cf,2021-10-27_10h42.26.542,arrow_simon_punish,2021.1.2,Win32,59.21013678,,,,,,,,,,,,,,p,1,1.4746,1.932530238,0,1,14,1,57,1,1,,,,,,,,,,,,,,
,,,,,,,,,,,left.png,,w,right,61329758a6a8f07ab3d640cf,2021-10-27_10h42.26.542,arrow_simon_punish,2021.1.2,Win32,59.21013678,,,,,,,,,,,,,,w,1,1.507,2.089729813,0,1,14,2,58,3,1,,,,,,,,,,,,,,
,,,,,,,,,,,right.png,,p,left,61329758a6a8f07ab3d640cf,2021-10-27_10h42.26.542,arrow_simon_punish,2021.1.2,Win32,59.21013678,,,,,,,,,,,,,,p,1,1.5239,1.70978239,0,1,14,3,59,0,1,,,,,,,,,,,,,,
,,,,,,,,,,,,,,,61329758a6a8f07ab3d640cf,2021-10-27_10h42.26.542,arrow_simon_punish,2021.1.2,Win32,59.21013678,,,,,,,,,,,,,,,,,,,,,,,,,space,32.4535,8,3,0,6,0,1,1,,,,,
,,,,,,,,,,,right.png,,p,right,61329758a6a8f07ab3d640cf,2021-10-27_10h42.26.542,arrow_simon_punish,2021.1.2,Win32,59.21013678,,,,,,,,,,,,,,p,1,1.5083,2.154072777,0,5,0,0,0,1,1,,,,,,,,,,,,,,
,,,,,,,,,,,right.png,,p,left,61329758a6a8f07ab3d640cf,2021-10-27_10h42.26.542,arrow_simon_punish,2021.1.2,Win32,59.21013678,,,,,,,,,,,,,,p,1,1.5079,2.150086456,0,5,0,1,1,0,1,,,,,,,,,,,,,,
,,,,,,,,,,,right.png,,p,left,61329758a6a8f07ab3d640cf,2021-10-27_10h42.26.542,arrow_simon_punish,2021.1.2,Win32,59.21013678,,,,,,,,,,,,,,p,1,1.4763,2.260388921,0,5,0,2,2,0,1,,,,,,,,,,,,,,
,,,,,,,,,,,right.png,,p,right,61329758a6a8f07ab3d640cf,2021-10-27_10h42.26.542,arrow_simon_punish,2021.1.2,Win32,59.21013678,,,,,,,,,,,,,,p,1,1.4911,2.439985647,0,5,0,3,3,1,1,,,,,,,,,,,,,,
,,,,,,,,,,,right.png,,p,right,61329758a6a8f07ab3d640cf,2021-10-27_10h42.26.542,arrow_simon_punish,2021.1.2,Win32,59.21013678,,,,,,,,,,,,,,p,1,1.5414,1.568450905,0,5,1,0,4,1,1,,,,,,,,,,,,,,
,,,,,,,,,,,left.png,,w,left,61329758a6a8f07ab3d640cf,2021-10-27_10h42.26.542,arrow_simon_punish,2021.1.2,Win32,59.21013678,,,,,,,,,,,,,,p,0,1.4907,2.423665538,1,5,1,1,5,2,1,,,,,,,,,,,,,,
,,,,,,,,,,,right.png,,p,right,61329758a6a8f07ab3d640cf,2021-10-27_10h42.26.542,arrow_simon_punish,2021.1.2,Win32,59.21013678,,,,,,,,,,,,,,p,1,1.4745,2.237222599,0,5,1,2,6,1,1,,,,,,,,,,,,,,
,,,,,,,,,,,left.png,,w,right,61329758a6a8f07ab3d640cf,2021-10-27_10h42.26.542,arrow_simon_punish,2021.1.2,Win32,59.21013678,,,,,,,,,,,,,,w,1,1.4603,2.461503772,0,5,1,3,7,3,1,,,,,,,,,,,,,,
