instruct_resp_simon.keys,instruct_resp_simon.corr,instruct_resp_simon.rt,trial_resp_simon.keys,trial_resp_simon.corr,trial_resp_simon.rt,trials_train_simon.thisRepN,trials_train_simon.thisTrialN,trials_train_simon.thisN,trials_train_simon.thisIndex,trials_train_simon.ran,target_file,target_pos,target_resp,target_side,participant,date,expName,psychopyVersion,OS,frameRate,instruct_resp_timing.keys,instruct_resp_timing.corr,instruct_resp_timing.rt,trial_resp_timing.keys,trial_resp_timing.rt,trials_train_timing.thisRepN,trials_train_timing.thisTrialN,trials_train_timing.thisN,trials_train_timing.thisIndex,trials_train_timing.ran,instruct_resp.keys,instruct_resp.corr,instruct_resp.rt,trial_resp.keys,trial_resp.corr,trial_resp.rt,target_onset,err,pun,trials.thisRepN,trials.thisTrialN,trials.thisN,trials.thisIndex,trials.ran,block_note_resp.keys,block_note_resp.rt,block_num,blocks.thisRepN,blocks.thisTrialN,blocks.thisN,blocks.thisIndex,blocks.ran,punish,complete_resp.keys,complete_resp.rt,raffle_trial,raffle_err,raffle_rew
space,0,24.2601,p,1,1.2514,0,0,0,1,1,right.png,,p,right,614d2176e7d39d8826847a43,2021-10-21_20h15.24.914,arrow_simon_punish,2021.1.2,Win32,61.244488,,,,,,,,,,,,,,,,,,,,,,,,,,,,,,,,,,,,,,
,,,w,1,0.6508,0,1,1,2,1,left.png,,w,left,614d2176e7d39d8826847a43,2021-10-21_20h15.24.914,arrow_simon_punish,2021.1.2,Win32,61.244488,,,,,,,,,,,,,,,,,,,,,,,,,,,,,,,,,,,,,,
,,,p,0,0.7349,0,2,2,3,1,left.png,,w,right,614d2176e7d39d8826847a43,2021-10-21_20h15.24.914,arrow_simon_punish,2021.1.2,Win32,61.244488,,,,,,,,,,,,,,,,,,,,,,,,,,,,,,,,,,,,,,
,,,p,1,1.0359,0,3,3,0,1,right.png,,p,left,614d2176e7d39d8826847a43,2021-10-21_20h15.24.914,arrow_simon_punish,2021.1.2,Win32,61.244488,,,,,,,,,,,,,,,,,,,,,,,,,,,,,,,,,,,,,,
,,,p,1,1.1886,1,0,4,0,1,right.png,,p,left,614d2176e7d39d8826847a43,2021-10-21_20h15.24.914,arrow_simon_punish,2021.1.2,Win32,61.244488,,,,,,,,,,,,,,,,,,,,,,,,,,,,,,,,,,,,,,
,,,p,1,0.7268,1,1,5,1,1,right.png,,p,right,614d2176e7d39d8826847a43,2021-10-21_20h15.24.914,arrow_simon_punish,2021.1.2,Win32,61.244488,,,,,,,,,,,,,,,,,,,,,,,,,,,,,,,,,,,,,,
,,,w,1,0.7184,1,2,6,3,1,left.png,,w,right,614d2176e7d39d8826847a43,2021-10-21_20h15.24.914,arrow_simon_punish,2021.1.2,Win32,61.244488,,,,,,,,,,,,,,,,,,,,,,,,,,,,,,,,,,,,,,
,,,w,1,0.9623,1,3,7,2,1,left.png,,w,left,614d2176e7d39d8826847a43,2021-10-21_20h15.24.914,arrow_simon_punish,2021.1.2,Win32,61.244488,,,,,,,,,,,,,,,,,,,,,,,,,,,,,,,,,,,,,,
,,,w,1,1.3359,2,0,8,2,1,left.png,,w,left,614d2176e7d39d8826847a43,2021-10-21_20h15.24.914,arrow_simon_punish,2021.1.2,Win32,61.244488,,,,,,,,,,,,,,,,,,,,,,,,,,,,,,,,,,,,,,
,,,p,1,1.1353,2,1,9,0,1,right.png,,p,left,614d2176e7d39d8826847a43,2021-10-21_20h15.24.914,arrow_simon_punish,2021.1.2,Win32,61.244488,,,,,,,,,,,,,,,,,,,,,,,,,,,,,,,,,,,,,,
,,,p,1,1.0595,2,2,10,1,1,right.png,,p,right,614d2176e7d39d8826847a43,2021-10-21_20h15.24.914,arrow_simon_punish,2021.1.2,Win32,61.244488,,,,,,,,,,,,,,,,,,,,,,,,,,,,,,,,,,,,,,
,,,w,1,1.1043,2,3,11,3,1,left.png,,w,right,614d2176e7d39d8826847a43,2021-10-21_20h15.24.914,arrow_simon_punish,2021.1.2,Win32,61.244488,,,,,,,,,,,,,,,,,,,,,,,,,,,,,,,,,,,,,,
,,,p,1,0.9951,3,0,12,0,1,right.png,,p,left,614d2176e7d39d8826847a43,2021-10-21_20h15.24.914,arrow_simon_punish,2021.1.2,Win32,61.244488,,,,,,,,,,,,,,,,,,,,,,,,,,,,,,,,,,,,,,
,,,w,1,1.1521,3,1,13,2,1,left.png,,w,left,614d2176e7d39d8826847a43,2021-10-21_20h15.24.914,arrow_simon_punish,2021.1.2,Win32,61.244488,,,,,,,,,,,,,,,,,,,,,,,,,,,,,,,,,,,,,,
,,,w,1,0.9778,3,2,14,3,1,left.png,,w,right,614d2176e7d39d8826847a43,2021-10-21_20h15.24.914,arrow_simon_punish,2021.1.2,Win32,61.244488,,,,,,,,,,,,,,,,,,,,,,,,,,,,,,,,,,,,,,
,,,p,1,1.4367,3,3,15,1,1,right.png,,p,right,614d2176e7d39d8826847a43,2021-10-21_20h15.24.914,arrow_simon_punish,2021.1.2,Win32,61.244488,,,,,,,,,,,,,,,,,,,,,,,,,,,,,,,,,,,,,,
,,,w,1,1.3088,4,0,16,2,1,left.png,,w,left,614d2176e7d39d8826847a43,2021-10-21_20h15.24.914,arrow_simon_punish,2021.1.2,Win32,61.244488,,,,,,,,,,,,,,,,,,,,,,,,,,,,,,,,,,,,,,
,,,p,1,0.8945,4,1,17,1,1,right.png,,p,right,614d2176e7d39d8826847a43,2021-10-21_20h15.24.914,arrow_simon_punish,2021.1.2,Win32,61.244488,,,,,,,,,,,,,,,,,,,,,,,,,,,,,,,,,,,,,,
,,,p,1,0.7185,4,2,18,0,1,right.png,,p,left,614d2176e7d39d8826847a43,2021-10-21_20h15.24.914,arrow_simon_punish,2021.1.2,Win32,61.244488,,,,,,,,,,,,,,,,,,,,,,,,,,,,,,,,,,,,,,
,,,w,1,0.7053,4,3,19,3,1,left.png,,w,right,614d2176e7d39d8826847a43,2021-10-21_20h15.24.914,arrow_simon_punish,2021.1.2,Win32,61.244488,,,,,,,,,,,,,,,,,,,,,,,,,,,,,,,,,,,,,,
,,,p,1,0.6851,5,0,20,0,1,right.png,,p,left,614d2176e7d39d8826847a43,2021-10-21_20h15.24.914,arrow_simon_punish,2021.1.2,Win32,61.244488,,,,,,,,,,,,,,,,,,,,,,,,,,,,,,,,,,,,,,
,,,p,1,0.5544,5,1,21,1,1,right.png,,p,right,614d2176e7d39d8826847a43,2021-10-21_20h15.24.914,arrow_simon_punish,2021.1.2,Win32,61.244488,,,,,,,,,,,,,,,,,,,,,,,,,,,,,,,,,,,,,,
,,,w,1,0.9214,5,2,22,3,1,left.png,,w,right,614d2176e7d39d8826847a43,2021-10-21_20h15.24.914,arrow_simon_punish,2021.1.2,Win32,61.244488,,,,,,,,,,,,,,,,,,,,,,,,,,,,,,,,,,,,,,
,,,w,1,0.7549,5,3,23,2,1,left.png,,w,left,614d2176e7d39d8826847a43,2021-10-21_20h15.24.914,arrow_simon_punish,2021.1.2,Win32,61.244488,,,,,,,,,,,,,,,,,,,,,,,,,,,,,,,,,,,,,,
,,,w,1,0.4701,6,0,24,2,1,left.png,,w,left,614d2176e7d39d8826847a43,2021-10-21_20h15.24.914,arrow_simon_punish,2021.1.2,Win32,61.244488,,,,,,,,,,,,,,,,,,,,,,,,,,,,,,,,,,,,,,
,,,p,1,0.9946,6,1,25,0,1,right.png,,p,left,614d2176e7d39d8826847a43,2021-10-21_20h15.24.914,arrow_simon_punish,2021.1.2,Win32,61.244488,,,,,,,,,,,,,,,,,,,,,,,,,,,,,,,,,,,,,,
,,,w,1,1.2565,6,2,26,3,1,left.png,,w,right,614d2176e7d39d8826847a43,2021-10-21_20h15.24.914,arrow_simon_punish,2021.1.2,Win32,61.244488,,,,,,,,,,,,,,,,,,,,,,,,,,,,,,,,,,,,,,
,,,p,1,1.3019,6,3,27,1,1,right.png,,p,right,614d2176e7d39d8826847a43,2021-10-21_20h15.24.914,arrow_simon_punish,2021.1.2,Win32,61.244488,,,,,,,,,,,,,,,,,,,,,,,,,,,,,,,,,,,,,,
,,,p,1,1.2741,7,0,28,1,1,right.png,,p,right,614d2176e7d39d8826847a43,2021-10-21_20h15.24.914,arrow_simon_punish,2021.1.2,Win32,61.244488,,,,,,,,,,,,,,,,,,,,,,,,,,,,,,,,,,,,,,
,,,w,1,1.1937,7,1,29,2,1,left.png,,w,left,614d2176e7d39d8826847a43,2021-10-21_20h15.24.914,arrow_simon_punish,2021.1.2,Win32,61.244488,,,,,,,,,,,,,,,,,,,,,,,,,,,,,,,,,,,,,,
,,,w,1,0.7756,7,2,30,3,1,left.png,,w,right,614d2176e7d39d8826847a43,2021-10-21_20h15.24.914,arrow_simon_punish,2021.1.2,Win32,61.244488,,,,,,,,,,,,,,,,,,,,,,,,,,,,,,,,,,,,,,
,,,p,1,0.7181,7,3,31,0,1,right.png,,p,left,614d2176e7d39d8826847a43,2021-10-21_20h15.24.914,arrow_simon_punish,2021.1.2,Win32,61.244488,,,,,,,,,,,,,,,,,,,,,,,,,,,,,,,,,,,,,,
,,,p,1,0.6591,8,0,32,1,1,right.png,,p,right,614d2176e7d39d8826847a43,2021-10-21_20h15.24.914,arrow_simon_punish,2021.1.2,Win32,61.244488,,,,,,,,,,,,,,,,,,,,,,,,,,,,,,,,,,,,,,
,,,w,1,0.9103,8,1,33,3,1,left.png,,w,right,614d2176e7d39d8826847a43,2021-10-21_20h15.24.914,arrow_simon_punish,2021.1.2,Win32,61.244488,,,,,,,,,,,,,,,,,,,,,,,,,,,,,,,,,,,,,,
,,,p,1,1.1363,8,2,34,0,1,right.png,,p,left,614d2176e7d39d8826847a43,2021-10-21_20h15.24.914,arrow_simon_punish,2021.1.2,Win32,61.244488,,,,,,,,,,,,,,,,,,,,,,,,,,,,,,,,,,,,,,
,,,w,1,0.6177,8,3,35,2,1,left.png,,w,left,614d2176e7d39d8826847a43,2021-10-21_20h15.24.914,arrow_simon_punish,2021.1.2,Win32,61.244488,,,,,,,,,,,,,,,,,,,,,,,,,,,,,,,,,,,,,,
,,,p,1,1.1025,9,0,36,1,1,right.png,,p,right,614d2176e7d39d8826847a43,2021-10-21_20h15.24.914,arrow_simon_punish,2021.1.2,Win32,61.244488,,,,,,,,,,,,,,,,,,,,,,,,,,,,,,,,,,,,,,
,,,w,0,1.1541,9,1,37,0,1,right.png,,p,left,614d2176e7d39d8826847a43,2021-10-21_20h15.24.914,arrow_simon_punish,2021.1.2,Win32,61.244488,,,,,,,,,,,,,,,,,,,,,,,,,,,,,,,,,,,,,,
,,,w,1,0.6517,9,2,38,2,1,left.png,,w,left,614d2176e7d39d8826847a43,2021-10-21_20h15.24.914,arrow_simon_punish,2021.1.2,Win32,61.244488,,,,,,,,,,,,,,,,,,,,,,,,,,,,,,,,,,,,,,
,,,w,1,0.6592,9,3,39,3,1,left.png,,w,right,614d2176e7d39d8826847a43,2021-10-21_20h15.24.914,arrow_simon_punish,2021.1.2,Win32,61.244488,,,,,,,,,,,,,,,,,,,,,,,,,,,,,,,,,,,,,,
,,,,,,,,,,,,,,,614d2176e7d39d8826847a43,2021-10-21_20h15.24.914,arrow_simon_punish,2021.1.2,Win32,61.244488,space,0,27.4711,w,2.0455,0,0,0,0,1,,,,,,,,,,,,,,,,,,,,,,,,,,,,
,,,,,,,,,,,,,,,614d2176e7d39d8826847a43,2021-10-21_20h15.24.914,arrow_simon_punish,2021.1.2,Win32,61.244488,,,,w,2.6224,1,0,1,0,1,,,,,,,,,,,,,,,,,,,,,,,,,,,,
,,,,,,,,,,,,,,,614d2176e7d39d8826847a43,2021-10-21_20h15.24.914,arrow_simon_punish,2021.1.2,Win32,61.244488,,,,p,2.4355,2,0,2,0,1,,,,,,,,,,,,,,,,,,,,,,,,,,,,
,,,,,,,,,,,,,,,614d2176e7d39d8826847a43,2021-10-21_20h15.24.914,arrow_simon_punish,2021.1.2,Win32,61.244488,,,,p,2.3861,3,0,3,0,1,,,,,,,,,,,,,,,,,,,,,,,,,,,,
,,,,,,,,,,,,,,,614d2176e7d39d8826847a43,2021-10-21_20h15.24.914,arrow_simon_punish,2021.1.2,Win32,61.244488,,,,w,2.5698,4,0,4,0,1,,,,,,,,,,,,,,,,,,,,,,,,,,,,
,,,,,,,,,,,,,,,614d2176e7d39d8826847a43,2021-10-21_20h15.24.914,arrow_simon_punish,2021.1.2,Win32,61.244488,,,,p,2.564,5,0,5,0,1,,,,,,,,,,,,,,,,,,,,,,,,,,,,
,,,,,,,,,,,,,,,614d2176e7d39d8826847a43,2021-10-21_20h15.24.914,arrow_simon_punish,2021.1.2,Win32,61.244488,,,,p,2.4594,6,0,6,0,1,,,,,,,,,,,,,,,,,,,,,,,,,,,,
,,,,,,,,,,,,,,,614d2176e7d39d8826847a43,2021-10-21_20h15.24.914,arrow_simon_punish,2021.1.2,Win32,61.244488,,,,w,2.5736,7,0,7,0,1,,,,,,,,,,,,,,,,,,,,,,,,,,,,
,,,,,,,,,,,,,,,614d2176e7d39d8826847a43,2021-10-21_20h15.24.914,arrow_simon_punish,2021.1.2,Win32,61.244488,,,,p,2.5259,8,0,8,0,1,,,,,,,,,,,,,,,,,,,,,,,,,,,,
,,,,,,,,,,,,,,,614d2176e7d39d8826847a43,2021-10-21_20h15.24.914,arrow_simon_punish,2021.1.2,Win32,61.244488,,,,p,2.5582,9,0,9,0,1,,,,,,,,,,,,,,,,,,,,,,,,,,,,
,,,,,,,,,,,,,,,614d2176e7d39d8826847a43,2021-10-21_20h15.24.914,arrow_simon_punish,2021.1.2,Win32,61.244488,,,,p,2.5731,10,0,10,0,1,,,,,,,,,,,,,,,,,,,,,,,,,,,,
,,,,,,,,,,,,,,,614d2176e7d39d8826847a43,2021-10-21_20h15.24.914,arrow_simon_punish,2021.1.2,Win32,61.244488,,,,p,2.571,11,0,11,0,1,,,,,,,,,,,,,,,,,,,,,,,,,,,,
,,,,,,,,,,,,,,,614d2176e7d39d8826847a43,2021-10-21_20h15.24.914,arrow_simon_punish,2021.1.2,Win32,61.244488,,,,p,2.5242,12,0,12,0,1,,,,,,,,,,,,,,,,,,,,,,,,,,,,
,,,,,,,,,,,,,,,614d2176e7d39d8826847a43,2021-10-21_20h15.24.914,arrow_simon_punish,2021.1.2,Win32,61.244488,,,,p,2.5713,13,0,13,0,1,,,,,,,,,,,,,,,,,,,,,,,,,,,,
,,,,,,,,,,,,,,,614d2176e7d39d8826847a43,2021-10-21_20h15.24.914,arrow_simon_punish,2021.1.2,Win32,61.244488,,,,p,2.5394,14,0,14,0,1,,,,,,,,,,,,,,,,,,,,,,,,,,,,
,,,,,,,,,,,,,,,614d2176e7d39d8826847a43,2021-10-21_20h15.24.914,arrow_simon_punish,2021.1.2,Win32,61.244488,,,,p,2.5406,15,0,15,0,1,,,,,,,,,,,,,,,,,,,,,,,,,,,,
,,,,,,,,,,,,,,,614d2176e7d39d8826847a43,2021-10-21_20h15.24.914,arrow_simon_punish,2021.1.2,Win32,61.244488,,,,p,2.5703,16,0,16,0,1,,,,,,,,,,,,,,,,,,,,,,,,,,,,
,,,,,,,,,,,,,,,614d2176e7d39d8826847a43,2021-10-21_20h15.24.914,arrow_simon_punish,2021.1.2,Win32,61.244488,,,,p,2.4519,17,0,17,0,1,,,,,,,,,,,,,,,,,,,,,,,,,,,,
,,,,,,,,,,,,,,,614d2176e7d39d8826847a43,2021-10-21_20h15.24.914,arrow_simon_punish,2021.1.2,Win32,61.244488,,,,p,2.5367,18,0,18,0,1,,,,,,,,,,,,,,,,,,,,,,,,,,,,
,,,,,,,,,,,,,,,614d2176e7d39d8826847a43,2021-10-21_20h15.24.914,arrow_simon_punish,2021.1.2,Win32,61.244488,,,,p,2.5522,19,0,19,0,1,,,,,,,,,,,,,,,,,,,,,,,,,,,,
,,,,,,,,,,,,,,,614d2176e7d39d8826847a43,2021-10-21_20h15.24.914,arrow_simon_punish,2021.1.2,Win32,61.244488,,,,p,2.5701,20,0,20,0,1,,,,,,,,,,,,,,,,,,,,,,,,,,,,
,,,,,,,,,,,,,,,614d2176e7d39d8826847a43,2021-10-21_20h15.24.914,arrow_simon_punish,2021.1.2,Win32,61.244488,,,,p,2.5626,21,0,21,0,1,,,,,,,,,,,,,,,,,,,,,,,,,,,,
,,,,,,,,,,,,,,,614d2176e7d39d8826847a43,2021-10-21_20h15.24.914,arrow_simon_punish,2021.1.2,Win32,61.244488,,,,p,2.488,22,0,22,0,1,,,,,,,,,,,,,,,,,,,,,,,,,,,,
,,,,,,,,,,,,,,,614d2176e7d39d8826847a43,2021-10-21_20h15.24.914,arrow_simon_punish,2021.1.2,Win32,61.244488,,,,p,2.4939,23,0,23,0,1,,,,,,,,,,,,,,,,,,,,,,,,,,,,
,,,,,,,,,,,,,,,614d2176e7d39d8826847a43,2021-10-21_20h15.24.914,arrow_simon_punish,2021.1.2,Win32,61.244488,,,,p,2.5194,24,0,24,0,1,,,,,,,,,,,,,,,,,,,,,,,,,,,,
,,,,,,,,,,,,,,,614d2176e7d39d8826847a43,2021-10-21_20h15.24.914,arrow_simon_punish,2021.1.2,Win32,61.244488,,,,p,2.5368,25,0,25,0,1,,,,,,,,,,,,,,,,,,,,,,,,,,,,
,,,,,,,,,,,,,,,614d2176e7d39d8826847a43,2021-10-21_20h15.24.914,arrow_simon_punish,2021.1.2,Win32,61.244488,,,,p,2.5363,26,0,26,0,1,,,,,,,,,,,,,,,,,,,,,,,,,,,,
,,,,,,,,,,,,,,,614d2176e7d39d8826847a43,2021-10-21_20h15.24.914,arrow_simon_punish,2021.1.2,Win32,61.244488,,,,p,2.5361,27,0,27,0,1,,,,,,,,,,,,,,,,,,,,,,,,,,,,
,,,,,,,,,,,,,,,614d2176e7d39d8826847a43,2021-10-21_20h15.24.914,arrow_simon_punish,2021.1.2,Win32,61.244488,,,,w,2.6107,28,0,28,0,1,,,,,,,,,,,,,,,,,,,,,,,,,,,,
,,,,,,,,,,,,,,,614d2176e7d39d8826847a43,2021-10-21_20h15.24.914,arrow_simon_punish,2021.1.2,Win32,61.244488,,,,p,2.5196,29,0,29,0,1,,,,,,,,,,,,,,,,,,,,,,,,,,,,
,,,,,,,,,,,,,,,614d2176e7d39d8826847a43,2021-10-21_20h15.24.914,arrow_simon_punish,2021.1.2,Win32,61.244488,,,,p,2.5614,30,0,30,0,1,,,,,,,,,,,,,,,,,,,,,,,,,,,,
,,,,,,,,,,,,,,,614d2176e7d39d8826847a43,2021-10-21_20h15.24.914,arrow_simon_punish,2021.1.2,Win32,61.244488,,,,p,2.5317,31,0,31,0,1,,,,,,,,,,,,,,,,,,,,,,,,,,,,
,,,,,,,,,,,,,,,614d2176e7d39d8826847a43,2021-10-21_20h15.24.914,arrow_simon_punish,2021.1.2,Win32,61.244488,,,,p,2.5196,32,0,32,0,1,,,,,,,,,,,,,,,,,,,,,,,,,,,,
,,,,,,,,,,,,,,,614d2176e7d39d8826847a43,2021-10-21_20h15.24.914,arrow_simon_punish,2021.1.2,Win32,61.244488,,,,p,2.5071,33,0,33,0,1,,,,,,,,,,,,,,,,,,,,,,,,,,,,
,,,,,,,,,,,,,,,614d2176e7d39d8826847a43,2021-10-21_20h15.24.914,arrow_simon_punish,2021.1.2,Win32,61.244488,,,,p,2.496,34,0,34,0,1,,,,,,,,,,,,,,,,,,,,,,,,,,,,
,,,,,,,,,,,,,,,614d2176e7d39d8826847a43,2021-10-21_20h15.24.914,arrow_simon_punish,2021.1.2,Win32,61.244488,,,,p,2.5361,35,0,35,0,1,,,,,,,,,,,,,,,,,,,,,,,,,,,,
,,,,,,,,,,,,,,,614d2176e7d39d8826847a43,2021-10-21_20h15.24.914,arrow_simon_punish,2021.1.2,Win32,61.244488,,,,p,2.5198,36,0,36,0,1,,,,,,,,,,,,,,,,,,,,,,,,,,,,
,,,,,,,,,,,,,,,614d2176e7d39d8826847a43,2021-10-21_20h15.24.914,arrow_simon_punish,2021.1.2,Win32,61.244488,,,,p,2.5959,37,0,37,0,1,,,,,,,,,,,,,,,,,,,,,,,,,,,,
,,,,,,,,,,,,,,,614d2176e7d39d8826847a43,2021-10-21_20h15.24.914,arrow_simon_punish,2021.1.2,Win32,61.244488,,,,p,2.5191,38,0,38,0,1,,,,,,,,,,,,,,,,,,,,,,,,,,,,
,,,,,,,,,,,,,,,614d2176e7d39d8826847a43,2021-10-21_20h15.24.914,arrow_simon_punish,2021.1.2,Win32,61.244488,,,,p,2.4607,39,0,39,0,1,,,,,,,,,,,,,,,,,,,,,,,,,,,,
,,,,,,,,,,,,,,,614d2176e7d39d8826847a43,2021-10-21_20h15.24.914,arrow_simon_punish,2021.1.2,Win32,61.244488,,,,p,2.5601,40,0,40,0,1,,,,,,,,,,,,,,,,,,,,,,,,,,,,
,,,,,,,,,,,,,,,614d2176e7d39d8826847a43,2021-10-21_20h15.24.914,arrow_simon_punish,2021.1.2,Win32,61.244488,,,,p,2.5285,41,0,41,0,1,,,,,,,,,,,,,,,,,,,,,,,,,,,,
,,,,,,,,,,,,,,,614d2176e7d39d8826847a43,2021-10-21_20h15.24.914,arrow_simon_punish,2021.1.2,Win32,61.244488,,,,p,2.5025,42,0,42,0,1,,,,,,,,,,,,,,,,,,,,,,,,,,,,
,,,,,,,,,,,,,,,614d2176e7d39d8826847a43,2021-10-21_20h15.24.914,arrow_simon_punish,2021.1.2,Win32,61.244488,,,,p,2.5055,43,0,43,0,1,,,,,,,,,,,,,,,,,,,,,,,,,,,,
,,,,,,,,,,,,,,,614d2176e7d39d8826847a43,2021-10-21_20h15.24.914,arrow_simon_punish,2021.1.2,Win32,61.244488,,,,p,2.5102,44,0,44,0,1,,,,,,,,,,,,,,,,,,,,,,,,,,,,
,,,,,,,,,,,,,,,614d2176e7d39d8826847a43,2021-10-21_20h15.24.914,arrow_simon_punish,2021.1.2,Win32,61.244488,,,,p,2.5135,45,0,45,0,1,,,,,,,,,,,,,,,,,,,,,,,,,,,,
,,,,,,,,,,,,,,,614d2176e7d39d8826847a43,2021-10-21_20h15.24.914,arrow_simon_punish,2021.1.2,Win32,61.244488,,,,p,2.5202,46,0,46,0,1,,,,,,,,,,,,,,,,,,,,,,,,,,,,
,,,,,,,,,,,,,,,614d2176e7d39d8826847a43,2021-10-21_20h15.24.914,arrow_simon_punish,2021.1.2,Win32,61.244488,,,,p,2.5363,47,0,47,0,1,,,,,,,,,,,,,,,,,,,,,,,,,,,,
,,,,,,,,,,,,,,,614d2176e7d39d8826847a43,2021-10-21_20h15.24.914,arrow_simon_punish,2021.1.2,Win32,61.244488,,,,p,2.5372,48,0,48,0,1,,,,,,,,,,,,,,,,,,,,,,,,,,,,
,,,,,,,,,,,,,,,614d2176e7d39d8826847a43,2021-10-21_20h15.24.914,arrow_simon_punish,2021.1.2,Win32,61.244488,,,,p,2.4631,49,0,49,0,1,,,,,,,,,,,,,,,,,,,,,,,,,,,,
,,,,,,,,,,,,,,,614d2176e7d39d8826847a43,2021-10-21_20h15.24.914,arrow_simon_punish,2021.1.2,Win32,61.244488,,,,p,2.4409,50,0,50,0,1,,,,,,,,,,,,,,,,,,,,,,,,,,,,
,,,,,,,,,,,,,,,614d2176e7d39d8826847a43,2021-10-21_20h15.24.914,arrow_simon_punish,2021.1.2,Win32,61.244488,,,,p,2.4536,51,0,51,0,1,,,,,,,,,,,,,,,,,,,,,,,,,,,,
,,,,,,,,,,,,,,,614d2176e7d39d8826847a43,2021-10-21_20h15.24.914,arrow_simon_punish,2021.1.2,Win32,61.244488,,,,p,2.5072,52,0,52,0,1,,,,,,,,,,,,,,,,,,,,,,,,,,,,
,,,,,,,,,,,,,,,614d2176e7d39d8826847a43,2021-10-21_20h15.24.914,arrow_simon_punish,2021.1.2,Win32,61.244488,,,,p,2.4692,53,0,53,0,1,,,,,,,,,,,,,,,,,,,,,,,,,,,,
,,,,,,,,,,,,,,,614d2176e7d39d8826847a43,2021-10-21_20h15.24.914,arrow_simon_punish,2021.1.2,Win32,61.244488,,,,p,2.5699,54,0,54,0,1,,,,,,,,,,,,,,,,,,,,,,,,,,,,
,,,,,,,,,,,,,,,614d2176e7d39d8826847a43,2021-10-21_20h15.24.914,arrow_simon_punish,2021.1.2,Win32,61.244488,,,,p,2.578,55,0,55,0,1,,,,,,,,,,,,,,,,,,,,,,,,,,,,
,,,,,,,,,,,,,,,614d2176e7d39d8826847a43,2021-10-21_20h15.24.914,arrow_simon_punish,2021.1.2,Win32,61.244488,,,,p,2.5739,56,0,56,0,1,,,,,,,,,,,,,,,,,,,,,,,,,,,,
,,,,,,,,,,,,,,,614d2176e7d39d8826847a43,2021-10-21_20h15.24.914,arrow_simon_punish,2021.1.2,Win32,61.244488,,,,p,2.4703,57,0,57,0,1,,,,,,,,,,,,,,,,,,,,,,,,,,,,
,,,,,,,,,,,,,,,614d2176e7d39d8826847a43,2021-10-21_20h15.24.914,arrow_simon_punish,2021.1.2,Win32,61.244488,,,,p,2.5698,58,0,58,0,1,,,,,,,,,,,,,,,,,,,,,,,,,,,,
,,,,,,,,,,,,,,,614d2176e7d39d8826847a43,2021-10-21_20h15.24.914,arrow_simon_punish,2021.1.2,Win32,61.244488,,,,p,2.5936,59,0,59,0,1,,,,,,,,,,,,,,,,,,,,,,,,,,,,
,,,,,,,,,,,left.png,,w,right,614d2176e7d39d8826847a43,2021-10-21_20h15.24.914,arrow_simon_punish,2021.1.2,Win32,61.244488,,,,,,,,,,,space,0,146.4693,w,1,1.5463,1.578654327,0,1,0,0,0,3,1,,,,,,,,,,,,,,
,,,,,,,,,,,right.png,,p,right,614d2176e7d39d8826847a43,2021-10-21_20h15.24.914,arrow_simon_punish,2021.1.2,Win32,61.244488,,,,,,,,,,,,,,p,1,1.5521,1.71712782,0,1,0,1,1,1,1,,,,,,,,,,,,,,
,,,,,,,,,,,right.png,,p,right,614d2176e7d39d8826847a43,2021-10-21_20h15.24.914,arrow_simon_punish,2021.1.2,Win32,61.244488,,,,,,,,,,,,,,p,1,1.653,2.210271827,1,1,0,2,2,1,1,,,,,,,,,,,,,,
,,,,,,,,,,,left.png,,w,left,614d2176e7d39d8826847a43,2021-10-21_20h15.24.914,arrow_simon_punish,2021.1.2,Win32,61.244488,,,,,,,,,,,,,,p,0,1.3272,1.854851293,1,1,0,3,3,2,1,,,,,,,,,,,,,,
,,,,,,,,,,,left.png,,w,left,614d2176e7d39d8826847a43,2021-10-21_20h15.24.914,arrow_simon_punish,2021.1.2,Win32,61.244488,,,,,,,,,,,,,,w,1,1.5748,1.855481701,0,1,1,0,4,2,1,,,,,,,,,,,,,,
,,,,,,,,,,,right.png,,p,left,614d2176e7d39d8826847a43,2021-10-21_20h15.24.914,arrow_simon_punish,2021.1.2,Win32,61.244488,,,,,,,,,,,,,,p,1,1.5902,1.549354108,0,1,1,1,5,0,1,,,,,,,,,,,,,,
,,,,,,,,,,,right.png,,p,left,614d2176e7d39d8826847a43,2021-10-21_20h15.24.914,arrow_simon_punish,2021.1.2,Win32,61.244488,,,,,,,,,,,,,,w,0,1.8103,2.487735361,1,1,1,2,6,0,1,,,,,,,,,,,,,,
,,,,,,,,,,,right.png,,p,right,614d2176e7d39d8826847a43,2021-10-21_20h15.24.914,arrow_simon_punish,2021.1.2,Win32,61.244488,,,,,,,,,,,,,,p,1,1.5292,1.507928535,0,1,1,3,7,1,1,,,,,,,,,,,,,,
,,,,,,,,,,,left.png,,w,right,614d2176e7d39d8826847a43,2021-10-21_20h15.24.914,arrow_simon_punish,2021.1.2,Win32,61.244488,,,,,,,,,,,,,,p,0,1.5191,2.194307948,1,1,2,0,8,3,1,,,,,,,,,,,,,,
,,,,,,,,,,,left.png,,w,right,614d2176e7d39d8826847a43,2021-10-21_20h15.24.914,arrow_simon_punish,2021.1.2,Win32,61.244488,,,,,,,,,,,,,,w,1,1.4591,1.828957868,0,1,2,1,9,3,1,,,,,,,,,,,,,,
,,,,,,,,,,,right.png,,p,right,614d2176e7d39d8826847a43,2021-10-21_20h15.24.914,arrow_simon_punish,2021.1.2,Win32,61.244488,,,,,,,,,,,,,,p,1,1.5908,2.184375318,0,1,2,2,10,1,1,,,,,,,,,,,,,,
,,,,,,,,,,,left.png,,w,left,614d2176e7d39d8826847a43,2021-10-21_20h15.24.914,arrow_simon_punish,2021.1.2,Win32,61.244488,,,,,,,,,,,,,,w,1,1.5688,2.281762987,0,1,2,3,11,2,1,,,,,,,,,,,,,,
,,,,,,,,,,,right.png,,p,left,614d2176e7d39d8826847a43,2021-10-21_20h15.24.914,arrow_simon_punish,2021.1.2,Win32,61.244488,,,,,,,,,,,,,,p,1,1.5258,1.690290723,0,1,3,0,12,0,1,,,,,,,,,,,,,,
,,,,,,,,,,,left.png,,w,left,614d2176e7d39d8826847a43,2021-10-21_20h15.24.914,arrow_simon_punish,2021.1.2,Win32,61.244488,,,,,,,,,,,,,,w,1,1.6027,2.084582815,1,1,3,1,13,2,1,,,,,,,,,,,,,,
,,,,,,,,,,,left.png,,w,right,614d2176e7d39d8826847a43,2021-10-21_20h15.24.914,arrow_simon_punish,2021.1.2,Win32,61.244488,,,,,,,,,,,,,,w,1,1.5058,1.541319187,0,1,3,2,14,3,1,,,,,,,,,,,,,,
,,,,,,,,,,,left.png,,w,left,614d2176e7d39d8826847a43,2021-10-21_20h15.24.914,arrow_simon_punish,2021.1.2,Win32,61.244488,,,,,,,,,,,,,,w,1,1.5879,2.2487427,0,1,3,3,15,2,1,,,,,,,,,,,,,,
,,,,,,,,,,,right.png,,p,right,614d2176e7d39d8826847a43,2021-10-21_20h15.24.914,arrow_simon_punish,2021.1.2,Win32,61.244488,,,,,,,,,,,,,,p,1,1.5385,1.900361969,0,1,4,0,16,1,1,,,,,,,,,,,,,,
,,,,,,,,,,,left.png,,w,right,614d2176e7d39d8826847a43,2021-10-21_20h15.24.914,arrow_simon_punish,2021.1.2,Win32,61.244488,,,,,,,,,,,,,,w,1,1.6027,2.466955909,1,1,4,1,17,3,1,,,,,,,,,,,,,,
,,,,,,,,,,,right.png,,p,left,614d2176e7d39d8826847a43,2021-10-21_20h15.24.914,arrow_simon_punish,2021.1.2,Win32,61.244488,,,,,,,,,,,,,,p,1,1.5687,2.196771045,0,1,4,2,18,0,1,,,,,,,,,,,,,,
,,,,,,,,,,,right.png,,p,right,614d2176e7d39d8826847a43,2021-10-21_20h15.24.914,arrow_simon_punish,2021.1.2,Win32,61.244488,,,,,,,,,,,,,,p,1,1.8026,2.483238934,1,1,4,3,19,1,1,,,,,,,,,,,,,,
,,,,,,,,,,,right.png,,p,left,614d2176e7d39d8826847a43,2021-10-21_20h15.24.914,arrow_simon_punish,2021.1.2,Win32,61.244488,,,,,,,,,,,,,,p,1,1.5522,1.900489649,0,1,5,0,20,0,1,,,,,,,,,,,,,,
,,,,,,,,,,,right.png,,p,right,614d2176e7d39d8826847a43,2021-10-21_20h15.24.914,arrow_simon_punish,2021.1.2,Win32,61.244488,,,,,,,,,,,,,,p,1,1.5066,1.831613782,0,1,5,1,21,1,1,,,,,,,,,,,,,,
,,,,,,,,,,,right.png,,p,right,614d2176e7d39d8826847a43,2021-10-21_20h15.24.914,arrow_simon_punish,2021.1.2,Win32,61.244488,,,,,,,,,,,,,,p,1,1.6188,2.270139061,1,1,5,2,22,1,1,,,,,,,,,,,,,,
,,,,,,,,,,,right.png,,p,left,614d2176e7d39d8826847a43,2021-10-21_20h15.24.914,arrow_simon_punish,2021.1.2,Win32,61.244488,,,,,,,,,,,,,,p,1,1.4893,1.798329459,0,1,5,3,23,0,1,,,,,,,,,,,,,,
,,,,,,,,,,,left.png,,w,right,614d2176e7d39d8826847a43,2021-10-21_20h15.24.914,arrow_simon_punish,2021.1.2,Win32,61.244488,,,,,,,,,,,,,,w,1,1.5379,1.701060632,0,1,6,0,24,3,1,,,,,,,,,,,,,,
,,,,,,,,,,,right.png,,p,left,614d2176e7d39d8826847a43,2021-10-21_20h15.24.914,arrow_simon_punish,2021.1.2,Win32,61.244488,,,,,,,,,,,,,,p,1,1.5019,1.726178388,0,1,6,1,25,0,1,,,,,,,,,,,,,,
,,,,,,,,,,,left.png,,w,left,614d2176e7d39d8826847a43,2021-10-21_20h15.24.914,arrow_simon_punish,2021.1.2,Win32,61.244488,,,,,,,,,,,,,,w,1,1.8016,2.487320978,1,1,6,2,26,2,1,,,,,,,,,,,,,,
,,,,,,,,,,,right.png,,p,left,614d2176e7d39d8826847a43,2021-10-21_20h15.24.914,arrow_simon_punish,2021.1.2,Win32,61.244488,,,,,,,,,,,,,,w,0,1.8211,2.498166295,1,1,6,3,27,0,1,,,,,,,,,,,,,,
,,,,,,,,,,,left.png,,w,right,614d2176e7d39d8826847a43,2021-10-21_20h15.24.914,arrow_simon_punish,2021.1.2,Win32,61.244488,,,,,,,,,,,,,,p,0,1.6433,2.342606812,1,1,7,0,28,3,1,,,,,,,,,,,,,,
,,,,,,,,,,,right.png,,p,right,614d2176e7d39d8826847a43,2021-10-21_20h15.24.914,arrow_simon_punish,2021.1.2,Win32,61.244488,,,,,,,,,,,,,,p,1,1.5892,1.657069797,0,1,7,1,29,1,1,,,,,,,,,,,,,,
,,,,,,,,,,,right.png,,p,right,614d2176e7d39d8826847a43,2021-10-21_20h15.24.914,arrow_simon_punish,2021.1.2,Win32,61.244488,,,,,,,,,,,,,,p,1,1.5416,1.785035629,0,1,7,2,30,1,1,,,,,,,,,,,,,,
,,,,,,,,,,,right.png,,p,right,614d2176e7d39d8826847a43,2021-10-21_20h15.24.914,arrow_simon_punish,2021.1.2,Win32,61.244488,,,,,,,,,,,,,,p,1,1.4852,1.770829394,0,1,7,3,31,1,1,,,,,,,,,,,,,,
,,,,,,,,,,,left.png,,w,right,614d2176e7d39d8826847a43,2021-10-21_20h15.24.914,arrow_simon_punish,2021.1.2,Win32,61.244488,,,,,,,,,,,,,,w,1,1.6081,1.628204954,1,1,8,0,32,3,1,,,,,,,,,,,,,,
,,,,,,,,,,,left.png,,w,left,614d2176e7d39d8826847a43,2021-10-21_20h15.24.914,arrow_simon_punish,2021.1.2,Win32,61.244488,,,,,,,,,,,,,,w,1,1.6651,2.300026598,1,1,8,1,33,2,1,,,,,,,,,,,,,,
,,,,,,,,,,,left.png,,w,left,614d2176e7d39d8826847a43,2021-10-21_20h15.24.914,arrow_simon_punish,2021.1.2,Win32,61.244488,,,,,,,,,,,,,,w,1,1.8017,2.456355965,1,1,8,2,34,2,1,,,,,,,,,,,,,,
,,,,,,,,,,,left.png,,w,right,614d2176e7d39d8826847a43,2021-10-21_20h15.24.914,arrow_simon_punish,2021.1.2,Win32,61.244488,,,,,,,,,,,,,,w,1,1.6105,1.529171384,1,1,8,3,35,3,1,,,,,,,,,,,,,,
,,,,,,,,,,,left.png,,w,right,614d2176e7d39d8826847a43,2021-10-21_20h15.24.914,arrow_simon_punish,2021.1.2,Win32,61.244488,,,,,,,,,,,,,,w,1,1.6052,1.710672475,1,1,9,0,36,3,1,,,,,,,,,,,,,,
,,,,,,,,,,,right.png,,p,right,614d2176e7d39d8826847a43,2021-10-21_20h15.24.914,arrow_simon_punish,2021.1.2,Win32,61.244488,,,,,,,,,,,,,,p,1,1.5015,1.747786094,0,1,9,1,37,1,1,,,,,,,,,,,,,,
,,,,,,,,,,,left.png,,w,right,614d2176e7d39d8826847a43,2021-10-21_20h15.24.914,arrow_simon_punish,2021.1.2,Win32,61.244488,,,,,,,,,,,,,,w,1,1.6066,1.944113933,1,1,9,2,38,3,1,,,,,,,,,,,,,,
,,,,,,,,,,,left.png,,w,right,614d2176e7d39d8826847a43,2021-10-21_20h15.24.914,arrow_simon_punish,2021.1.2,Win32,61.244488,,,,,,,,,,,,,,p,0,1.8021,2.492185883,1,1,9,3,39,3,1,,,,,,,,,,,,,,
,,,,,,,,,,,left.png,,w,right,614d2176e7d39d8826847a43,2021-10-21_20h15.24.914,arrow_simon_punish,2021.1.2,Win32,61.244488,,,,,,,,,,,,,,p,0,1.6688,2.296905667,1,1,10,0,40,3,1,,,,,,,,,,,,,,
,,,,,,,,,,,right.png,,p,left,614d2176e7d39d8826847a43,2021-10-21_20h15.24.914,arrow_simon_punish,2021.1.2,Win32,61.244488,,,,,,,,,,,,,,w,0,1.7451,2.492473215,1,1,10,1,41,0,1,,,,,,,,,,,,,,
,,,,,,,,,,,right.png,,p,left,614d2176e7d39d8826847a43,2021-10-21_20h15.24.914,arrow_simon_punish,2021.1.2,Win32,61.244488,,,,,,,,,,,,,,p,1,1.6363,1.670051,1,1,10,2,42,0,1,,,,,,,,,,,,,,
,,,,,,,,,,,right.png,,p,right,614d2176e7d39d8826847a43,2021-10-21_20h15.24.914,arrow_simon_punish,2021.1.2,Win32,61.244488,,,,,,,,,,,,,,p,1,1.6902,2.38014889,1,1,10,3,43,1,1,,,,,,,,,,,,,,
,,,,,,,,,,,left.png,,w,right,614d2176e7d39d8826847a43,2021-10-21_20h15.24.914,arrow_simon_punish,2021.1.2,Win32,61.244488,,,,,,,,,,,,,,p,0,1.6526,2.325769396,1,1,11,0,44,3,1,,,,,,,,,,,,,,
,,,,,,,,,,,right.png,,p,left,614d2176e7d39d8826847a43,2021-10-21_20h15.24.914,arrow_simon_punish,2021.1.2,Win32,61.244488,,,,,,,,,,,,,,w,0,1.5772,2.229684498,1,1,11,1,45,0,1,,,,,,,,,,,,,,
,,,,,,,,,,,left.png,,w,left,614d2176e7d39d8826847a43,2021-10-21_20h15.24.914,arrow_simon_punish,2021.1.2,Win32,61.244488,,,,,,,,,,,,,,w,1,1.5451,1.904261903,0,1,11,2,46,2,1,,,,,,,,,,,,,,
,,,,,,,,,,,right.png,,p,left,614d2176e7d39d8826847a43,2021-10-21_20h15.24.914,arrow_simon_punish,2021.1.2,Win32,61.244488,,,,,,,,,,,,,,w,0,1.7254,2.398031653,1,1,11,3,47,0,1,,,,,,,,,,,,,,
,,,,,,,,,,,left.png,,w,left,614d2176e7d39d8826847a43,2021-10-21_20h15.24.914,arrow_simon_punish,2021.1.2,Win32,61.244488,,,,,,,,,,,,,,w,1,1.6207,1.882381984,1,1,12,0,48,2,1,,,,,,,,,,,,,,
,,,,,,,,,,,left.png,,w,left,614d2176e7d39d8826847a43,2021-10-21_20h15.24.914,arrow_simon_punish,2021.1.2,Win32,61.244488,,,,,,,,,,,,,,w,1,1.5226,1.689258456,0,1,12,1,49,2,1,,,,,,,,,,,,,,
,,,,,,,,,,,right.png,,p,left,614d2176e7d39d8826847a43,2021-10-21_20h15.24.914,arrow_simon_punish,2021.1.2,Win32,61.244488,,,,,,,,,,,,,,p,1,1.4956,1.784217531,0,1,12,2,50,0,1,,,,,,,,,,,,,,
,,,,,,,,,,,left.png,,w,left,614d2176e7d39d8826847a43,2021-10-21_20h15.24.914,arrow_simon_punish,2021.1.2,Win32,61.244488,,,,,,,,,,,,,,w,1,1.7574,2.374884555,1,1,12,3,51,2,1,,,,,,,,,,,,,,
,,,,,,,,,,,left.png,,w,right,614d2176e7d39d8826847a43,2021-10-21_20h15.24.914,arrow_simon_punish,2021.1.2,Win32,61.244488,,,,,,,,,,,,,,p,0,1.7521,2.430615724,1,1,13,0,52,3,1,,,,,,,,,,,,,,
,,,,,,,,,,,right.png,,p,right,614d2176e7d39d8826847a43,2021-10-21_20h15.24.914,arrow_simon_punish,2021.1.2,Win32,61.244488,,,,,,,,,,,,,,p,1,1.5387,1.752652577,0,1,13,1,53,1,1,,,,,,,,,,,,,,
,,,,,,,,,,,left.png,,w,left,614d2176e7d39d8826847a43,2021-10-21_20h15.24.914,arrow_simon_punish,2021.1.2,Win32,61.244488,,,,,,,,,,,,,,w,1,1.5688,1.716674884,0,1,13,2,54,2,1,,,,,,,,,,,,,,
,,,,,,,,,,,left.png,,w,left,614d2176e7d39d8826847a43,2021-10-21_20h15.24.914,arrow_simon_punish,2021.1.2,Win32,61.244488,,,,,,,,,,,,,,w,1,1.5516,1.67807603,0,1,13,3,55,2,1,,,,,,,,,,,,,,
,,,,,,,,,,,right.png,,p,right,614d2176e7d39d8826847a43,2021-10-21_20h15.24.914,arrow_simon_punish,2021.1.2,Win32,61.244488,,,,,,,,,,,,,,p,1,1.5052,1.516251444,0,1,14,0,56,1,1,,,,,,,,,,,,,,
,,,,,,,,,,,right.png,,p,left,614d2176e7d39d8826847a43,2021-10-21_20h15.24.914,arrow_simon_punish,2021.1.2,Win32,61.244488,,,,,,,,,,,,,,w,0,1.5407,2.195107618,1,1,14,1,57,0,1,,,,,,,,,,,,,,
,,,,,,,,,,,right.png,,p,left,614d2176e7d39d8826847a43,2021-10-21_20h15.24.914,arrow_simon_punish,2021.1.2,Win32,61.244488,,,,,,,,,,,,,,p,1,1.6016,1.816025405,1,1,14,2,58,0,1,,,,,,,,,,,,,,
,,,,,,,,,,,left.png,,w,left,614d2176e7d39d8826847a43,2021-10-21_20h15.24.914,arrow_simon_punish,2021.1.2,Win32,61.244488,,,,,,,,,,,,,,w,1,1.7624,2.414114891,1,1,14,3,59,2,1,,,,,,,,,,,,,,
,,,,,,,,,,,,,,,614d2176e7d39d8826847a43,2021-10-21_20h15.24.914,arrow_simon_punish,2021.1.2,Win32,61.244488,,,,,,,,,,,,,,,,,,,,,,,,,space,91.7263,2,0,0,0,0,1,1,,,,,
,,,,,,,,,,,left.png,,w,left,614d2176e7d39d8826847a43,2021-10-21_20h15.24.914,arrow_simon_punish,2021.1.2,Win32,61.244488,,,,,,,,,,,,,,w,1,1.5179,1.524125117,0,5,0,0,0,2,1,,,,,,,,,,,,,,
,,,,,,,,,,,left.png,,w,left,614d2176e7d39d8826847a43,2021-10-21_20h15.24.914,arrow_simon_punish,2021.1.2,Win32,61.244488,,,,,,,,,,,,,,w,1,1.5221,1.697871981,0,5,0,1,1,2,1,,,,,,,,,,,,,,
,,,,,,,,,,,right.png,,p,left,614d2176e7d39d8826847a43,2021-10-21_20h15.24.914,arrow_simon_punish,2021.1.2,Win32,61.244488,,,,,,,,,,,,,,w,0,1.6286,2.331699515,1,5,0,2,2,0,1,,,,,,,,,,,,,,
,,,,,,,,,,,right.png,,p,right,614d2176e7d39d8826847a43,2021-10-21_20h15.24.914,arrow_simon_punish,2021.1.2,Win32,61.244488,,,,,,,,,,,,,,p,1,1.5181,2.157548128,0,5,0,3,3,1,1,,,,,,,,,,,,,,
,,,,,,,,,,,right.png,,p,left,614d2176e7d39d8826847a43,2021-10-21_20h15.24.914,arrow_simon_punish,2021.1.2,Win32,61.244488,,,,,,,,,,,,,,w,0,1.4515,2.02149792,1,5,1,0,4,0,1,,,,,,,,,,,,,,
,,,,,,,,,,,right.png,,p,left,614d2176e7d39d8826847a43,2021-10-21_20h15.24.914,arrow_simon_punish,2021.1.2,Win32,61.244488,,,,,,,,,,,,,,p,1,1.7438,2.351012192,1,5,1,1,5,0,1,,,,,,,,,,,,,,
,,,,,,,,,,,left.png,,w,left,614d2176e7d39d8826847a43,2021-10-21_20h15.24.914,arrow_simon_punish,2021.1.2,Win32,61.244488,,,,,,,,,,,,,,w,1,1.5454,1.950163462,0,5,1,2,6,2,1,,,,,,,,,,,,,,
,,,,,,,,,,,left.png,,w,right,614d2176e7d39d8826847a43,2021-10-21_20h15.24.914,arrow_simon_punish,2021.1.2,Win32,61.244488,,,,,,,,,,,,,,w,1,1.4555,1.60254865,0,5,1,3,7,3,1,,,,,,,,,,,,,,
,,,,,,,,,,,right.png,,p,right,614d2176e7d39d8826847a43,2021-10-21_20h15.24.914,arrow_simon_punish,2021.1.2,Win32,61.244488,,,,,,,,,,,,,,p,1,1.4514,2.058273299,0,5,2,0,8,1,1,,,,,,,,,,,,,,
,,,,,,,,,,,right.png,,p,right,614d2176e7d39d8826847a43,2021-10-21_20h15.24.914,arrow_simon_punish,2021.1.2,Win32,61.244488,,,,,,,,,,,,,,p,1,1.5359,1.691073473,0,5,2,1,9,1,1,,,,,,,,,,,,,,
,,,,,,,,,,,left.png,,w,right,614d2176e7d39d8826847a43,2021-10-21_20h15.24.914,arrow_simon_punish,2021.1.2,Win32,61.244488,,,,,,,,,,,,,,p,0,1.6109,2.25217102,1,5,2,2,10,3,1,,,,,,,,,,,,,,
,,,,,,,,,,,left.png,,w,right,614d2176e7d39d8826847a43,2021-10-21_20h15.24.914,arrow_simon_punish,2021.1.2,Win32,61.244488,,,,,,,,,,,,,,w,1,1.6847,2.20418405,1,5,2,3,11,3,1,,,,,,,,,,,,,,
,,,,,,,,,,,left.png,,w,right,614d2176e7d39d8826847a43,2021-10-21_20h15.24.914,arrow_simon_punish,2021.1.2,Win32,61.244488,,,,,,,,,,,,,,w,1,1.5352,2.110528022,0,5,3,0,12,3,1,,,,,,,,,,,,,,
,,,,,,,,,,,left.png,,w,right,614d2176e7d39d8826847a43,2021-10-21_20h15.24.914,arrow_simon_punish,2021.1.2,Win32,61.244488,,,,,,,,,,,,,,p,0,1.7026,2.396960146,1,5,3,1,13,3,1,,,,,,,,,,,,,,
,,,,,,,,,,,left.png,,w,left,614d2176e7d39d8826847a43,2021-10-21_20h15.24.914,arrow_simon_punish,2021.1.2,Win32,61.244488,,,,,,,,,,,,,,w,1,1.6233,1.895352561,1,5,3,2,14,2,1,,,,,,,,,,,,,,
,,,,,,,,,,,right.png,,p,left,614d2176e7d39d8826847a43,2021-10-21_20h15.24.914,arrow_simon_punish,2021.1.2,Win32,61.244488,,,,,,,,,,,,,,w,0,1.6353,2.294688435,1,5,3,3,15,0,1,,,,,,,,,,,,,,
,,,,,,,,,,,right.png,,p,left,614d2176e7d39d8826847a43,2021-10-21_20h15.24.914,arrow_simon_punish,2021.1.2,Win32,61.244488,,,,,,,,,,,,,,p,1,1.6398,1.919054394,1,5,4,0,16,0,1,,,,,,,,,,,,,,
,,,,,,,,,,,left.png,,w,right,614d2176e7d39d8826847a43,2021-10-21_20h15.24.914,arrow_simon_punish,2021.1.2,Win32,61.244488,,,,,,,,,,,,,,w,1,1.5255,1.884831617,0,5,4,1,17,3,1,,,,,,,,,,,,,,
,,,,,,,,,,,left.png,,w,right,614d2176e7d39d8826847a43,2021-10-21_20h15.24.914,arrow_simon_punish,2021.1.2,Win32,61.244488,,,,,,,,,,,,,,w,1,1.5605,2.119858637,0,5,4,2,18,3,1,,,,,,,,,,,,,,
,,,,,,,,,,,left.png,,w,left,614d2176e7d39d8826847a43,2021-10-21_20h15.24.914,arrow_simon_punish,2021.1.2,Win32,61.244488,,,,,,,,,,,,,,w,1,1.4841,1.79912212,0,5,4,3,19,2,1,,,,,,,,,,,,,,
,,,,,,,,,,,right.png,,p,left,614d2176e7d39d8826847a43,2021-10-21_20h15.24.914,arrow_simon_punish,2021.1.2,Win32,61.244488,,,,,,,,,,,,,,p,1,1.5097,1.818131881,0,5,5,0,20,0,1,,,,,,,,,,,,,,
,,,,,,,,,,,right.png,,p,right,614d2176e7d39d8826847a43,2021-10-21_20h15.24.914,arrow_simon_punish,2021.1.2,Win32,61.244488,,,,,,,,,,,,,,p,1,1.5288,2.16253566,0,5,5,1,21,1,1,,,,,,,,,,,,,,
,,,,,,,,,,,left.png,,w,right,614d2176e7d39d8826847a43,2021-10-21_20h15.24.914,arrow_simon_punish,2021.1.2,Win32,61.244488,,,,,,,,,,,,,,w,1,1.459,1.661201046,0,5,5,2,22,3,1,,,,,,,,,,,,,,
,,,,,,,,,,,left.png,,w,left,614d2176e7d39d8826847a43,2021-10-21_20h15.24.914,arrow_simon_punish,2021.1.2,Win32,61.244488,,,,,,,,,,,,,,w,1,1.5729,1.751518083,0,5,5,3,23,2,1,,,,,,,,,,,,,,
,,,,,,,,,,,right.png,,p,left,614d2176e7d39d8826847a43,2021-10-21_20h15.24.914,arrow_simon_punish,2021.1.2,Win32,61.244488,,,,,,,,,,,,,,p,1,1.7083,2.06858143,1,5,6,0,24,0,1,,,,,,,,,,,,,,
,,,,,,,,,,,left.png,,w,right,614d2176e7d39d8826847a43,2021-10-21_20h15.24.914,arrow_simon_punish,2021.1.2,Win32,61.244488,,,,,,,,,,,,,,w,1,1.5265,1.539140699,0,5,6,1,25,3,1,,,,,,,,,,,,,,
,,,,,,,,,,,left.png,,w,right,614d2176e7d39d8826847a43,2021-10-21_20h15.24.914,arrow_simon_punish,2021.1.2,Win32,61.244488,,,,,,,,,,,,,,w,1,1.5021,1.930673857,0,5,6,2,26,3,1,,,,,,,,,,,,,,
,,,,,,,,,,,right.png,,p,right,614d2176e7d39d8826847a43,2021-10-21_20h15.24.914,arrow_simon_punish,2021.1.2,Win32,61.244488,,,,,,,,,,,,,,p,1,1.5945,2.198375831,0,5,6,3,27,1,1,,,,,,,,,,,,,,
,,,,,,,,,,,right.png,,p,left,614d2176e7d39d8826847a43,2021-10-21_20h15.24.914,arrow_simon_punish,2021.1.2,Win32,61.244488,,,,,,,,,,,,,,w,0,1.5017,2.177234699,1,5,7,0,28,0,1,,,,,,,,,,,,,,
,,,,,,,,,,,right.png,,p,right,614d2176e7d39d8826847a43,2021-10-21_20h15.24.914,arrow_simon_punish,2021.1.2,Win32,61.244488,,,,,,,,,,,,,,p,1,1.7029,2.353173107,1,5,7,1,29,1,1,,,,,,,,,,,,,,
,,,,,,,,,,,right.png,,p,left,614d2176e7d39d8826847a43,2021-10-21_20h15.24.914,arrow_simon_punish,2021.1.2,Win32,61.244488,,,,,,,,,,,,,,p,1,1.6272,1.923606367,1,5,7,2,30,0,1,,,,,,,,,,,,,,
,,,,,,,,,,,left.png,,w,left,614d2176e7d39d8826847a43,2021-10-21_20h15.24.914,arrow_simon_punish,2021.1.2,Win32,61.244488,,,,,,,,,,,,,,w,1,1.5464,1.988159964,0,5,7,3,31,2,1,,,,,,,,,,,,,,
,,,,,,,,,,,right.png,,p,right,614d2176e7d39d8826847a43,2021-10-21_20h15.24.914,arrow_simon_punish,2021.1.2,Win32,61.244488,,,,,,,,,,,,,,p,1,1.5681,1.589805052,0,5,8,0,32,1,1,,,,,,,,,,,,,,
,,,,,,,,,,,right.png,,p,left,614d2176e7d39d8826847a43,2021-10-21_20h15.24.914,arrow_simon_punish,2021.1.2,Win32,61.244488,,,,,,,,,,,,,,p,1,1.5614,1.983624517,0,5,8,1,33,0,1,,,,,,,,,,,,,,
,,,,,,,,,,,right.png,,p,right,614d2176e7d39d8826847a43,2021-10-21_20h15.24.914,arrow_simon_punish,2021.1.2,Win32,61.244488,,,,,,,,,,,,,,p,1,1.4876,2.081443786,0,5,8,2,34,1,1,,,,,,,,,,,,,,
,,,,,,,,,,,right.png,,p,right,614d2176e7d39d8826847a43,2021-10-21_20h15.24.914,arrow_simon_punish,2021.1.2,Win32,61.244488,,,,,,,,,,,,,,p,1,1.8249,2.477247254,1,5,8,3,35,1,1,,,,,,,,,,,,,,
,,,,,,,,,,,left.png,,w,right,614d2176e7d39d8826847a43,2021-10-21_20h15.24.914,arrow_simon_punish,2021.1.2,Win32,61.244488,,,,,,,,,,,,,,w,1,1.5569,1.826226985,0,5,9,0,36,3,1,,,,,,,,,,,,,,
,,,,,,,,,,,right.png,,p,right,614d2176e7d39d8826847a43,2021-10-21_20h15.24.914,arrow_simon_punish,2021.1.2,Win32,61.244488,,,,,,,,,,,,,,p,1,1.5561,2.202888065,0,5,9,1,37,1,1,,,,,,,,,,,,,,
,,,,,,,,,,,left.png,,w,left,614d2176e7d39d8826847a43,2021-10-21_20h15.24.914,arrow_simon_punish,2021.1.2,Win32,61.244488,,,,,,,,,,,,,,w,1,1.6136,2.440258956,1,5,9,2,38,2,1,,,,,,,,,,,,,,
,,,,,,,,,,,left.png,,w,left,614d2176e7d39d8826847a43,2021-10-21_20h15.24.914,arrow_simon_punish,2021.1.2,Win32,61.244488,,,,,,,,,,,,,,w,1,1.5359,1.773261105,0,5,9,3,39,2,1,,,,,,,,,,,,,,
,,,,,,,,,,,right.png,,p,right,614d2176e7d39d8826847a43,2021-10-21_20h15.24.914,arrow_simon_punish,2021.1.2,Win32,61.244488,,,,,,,,,,,,,,p,1,1.4445,1.501606988,0,5,10,0,40,1,1,,,,,,,,,,,,,,
,,,,,,,,,,,right.png,,p,right,614d2176e7d39d8826847a43,2021-10-21_20h15.24.914,arrow_simon_punish,2021.1.2,Win32,61.244488,,,,,,,,,,,,,,p,1,1.4868,1.903713015,0,5,10,1,41,1,1,,,,,,,,,,,,,,
,,,,,,,,,,,right.png,,p,left,614d2176e7d39d8826847a43,2021-10-21_20h15.24.914,arrow_simon_punish,2021.1.2,Win32,61.244488,,,,,,,,,,,,,,w,0,1.5382,2.195963407,1,5,10,2,42,0,1,,,,,,,,,,,,,,
,,,,,,,,,,,left.png,,w,left,614d2176e7d39d8826847a43,2021-10-21_20h15.24.914,arrow_simon_punish,2021.1.2,Win32,61.244488,,,,,,,,,,,,,,p,0,1.7069,2.295188683,1,5,10,3,43,2,1,,,,,,,,,,,,,,
,,,,,,,,,,,right.png,,p,left,614d2176e7d39d8826847a43,2021-10-21_20h15.24.914,arrow_simon_punish,2021.1.2,Win32,61.244488,,,,,,,,,,,,,,p,1,1.5255,1.659545886,0,5,11,0,44,0,1,,,,,,,,,,,,,,
,,,,,,,,,,,left.png,,w,right,614d2176e7d39d8826847a43,2021-10-21_20h15.24.914,arrow_simon_punish,2021.1.2,Win32,61.244488,,,,,,,,,,,,,,p,0,1.8017,2.45179116,1,5,11,1,45,3,1,,,,,,,,,,,,,,
,,,,,,,,,,,right.png,,p,left,614d2176e7d39d8826847a43,2021-10-21_20h15.24.914,arrow_simon_punish,2021.1.2,Win32,61.244488,,,,,,,,,,,,,,w,0,1.5614,2.240622738,1,5,11,2,46,0,1,,,,,,,,,,,,,,
,,,,,,,,,,,right.png,,p,left,614d2176e7d39d8826847a43,2021-10-21_20h15.24.914,arrow_simon_punish,2021.1.2,Win32,61.244488,,,,,,,,,,,,,,p,1,1.4575,2.027481663,0,5,11,3,47,0,1,,,,,,,,,,,,,,
,,,,,,,,,,,left.png,,w,left,614d2176e7d39d8826847a43,2021-10-21_20h15.24.914,arrow_simon_punish,2021.1.2,Win32,61.244488,,,,,,,,,,,,,,p,0,1.7084,2.323141841,1,5,12,0,48,2,1,,,,,,,,,,,,,,
,,,,,,,,,,,left.png,,w,left,614d2176e7d39d8826847a43,2021-10-21_20h15.24.914,arrow_simon_punish,2021.1.2,Win32,61.244488,,,,,,,,,,,,,,w,1,1.9354,2.478894353,1,5,12,1,49,2,1,,,,,,,,,,,,,,
,,,,,,,,,,,left.png,,w,right,614d2176e7d39d8826847a43,2021-10-21_20h15.24.914,arrow_simon_punish,2021.1.2,Win32,61.244488,,,,,,,,,,,,,,p,0,1.4728,2.148438801,1,5,12,2,50,3,1,,,,,,,,,,,,,,
,,,,,,,,,,,left.png,,w,left,614d2176e7d39d8826847a43,2021-10-21_20h15.24.914,arrow_simon_punish,2021.1.2,Win32,61.244488,,,,,,,,,,,,,,w,1,1.5009,1.818962954,0,5,12,3,51,2,1,,,,,,,,,,,,,,
,,,,,,,,,,,right.png,,p,left,614d2176e7d39d8826847a43,2021-10-21_20h15.24.914,arrow_simon_punish,2021.1.2,Win32,61.244488,,,,,,,,,,,,,,p,1,1.5018,2.097464621,0,5,13,0,52,0,1,,,,,,,,,,,,,,
,,,,,,,,,,,left.png,,w,right,614d2176e7d39d8826847a43,2021-10-21_20h15.24.914,arrow_simon_punish,2021.1.2,Win32,61.244488,,,,,,,,,,,,,,w,1,1.5067,1.566773505,0,5,13,1,53,3,1,,,,,,,,,,,,,,
,,,,,,,,,,,right.png,,p,right,614d2176e7d39d8826847a43,2021-10-21_20h15.24.914,arrow_simon_punish,2021.1.2,Win32,61.244488,,,,,,,,,,,,,,p,1,1.6519,2.337998253,1,5,13,2,54,1,1,,,,,,,,,,,,,,
,,,,,,,,,,,left.png,,w,left,614d2176e7d39d8826847a43,2021-10-21_20h15.24.914,arrow_simon_punish,2021.1.2,Win32,61.244488,,,,,,,,,,,,,,w,1,1.5349,1.961527103,0,5,13,3,55,2,1,,,,,,,,,,,,,,
,,,,,,,,,,,left.png,,w,left,614d2176e7d39d8826847a43,2021-10-21_20h15.24.914,arrow_simon_punish,2021.1.2,Win32,61.244488,,,,,,,,,,,,,,w,1,1.4739,1.553864027,0,5,14,0,56,2,1,,,,,,,,,,,,,,
,,,,,,,,,,,left.png,,w,right,614d2176e7d39d8826847a43,2021-10-21_20h15.24.914,arrow_simon_punish,2021.1.2,Win32,61.244488,,,,,,,,,,,,,,p,0,1.5118,2.325514983,1,5,14,1,57,3,1,,,,,,,,,,,,,,
,,,,,,,,,,,right.png,,p,right,614d2176e7d39d8826847a43,2021-10-21_20h15.24.914,arrow_simon_punish,2021.1.2,Win32,61.244488,,,,,,,,,,,,,,p,1,1.4862,2.175044585,0,5,14,2,58,1,1,,,,,,,,,,,,,,
,,,,,,,,,,,right.png,,p,right,614d2176e7d39d8826847a43,2021-10-21_20h15.24.914,arrow_simon_punish,2021.1.2,Win32,61.244488,,,,,,,,,,,,,,p,1,1.5243,1.660600444,0,5,14,3,59,1,1,,,,,,,,,,,,,,
,,,,,,,,,,,,,,,614d2176e7d39d8826847a43,2021-10-21_20h15.24.914,arrow_simon_punish,2021.1.2,Win32,61.244488,,,,,,,,,,,,,,,,,,,,,,,,,space,258.5645,3,0,1,1,1,1,5,,,,,
,,,,,,,,,,,left.png,,w,left,614d2176e7d39d8826847a43,2021-10-21_20h15.24.914,arrow_simon_punish,2021.1.2,Win32,61.244488,,,,,,,,,,,,,,w,1,1.6904,2.262445549,1,1,0,0,0,2,1,,,,,,,,,,,,,,
,,,,,,,,,,,left.png,,w,right,614d2176e7d39d8826847a43,2021-10-21_20h15.24.914,arrow_simon_punish,2021.1.2,Win32,61.244488,,,,,,,,,,,,,,w,1,1.2564,1.844545192,1,1,0,1,1,3,1,,,,,,,,,,,,,,
,,,,,,,,,,,left.png,,w,right,614d2176e7d39d8826847a43,2021-10-21_20h15.24.914,arrow_simon_punish,2021.1.2,Win32,61.244488,,,,,,,,,,,,,,w,1,1.5268,1.614179921,0,1,0,2,2,3,1,,,,,,,,,,,,,,
,,,,,,,,,,,left.png,,w,right,614d2176e7d39d8826847a43,2021-10-21_20h15.24.914,arrow_simon_punish,2021.1.2,Win32,61.244488,,,,,,,,,,,,,,w,1,1.4699,1.681996046,0,1,0,3,3,3,1,,,,,,,,,,,,,,
,,,,,,,,,,,left.png,,w,right,614d2176e7d39d8826847a43,2021-10-21_20h15.24.914,arrow_simon_punish,2021.1.2,Win32,61.244488,,,,,,,,,,,,,,w,1,1.6013,1.860049075,1,1,1,0,4,3,1,,,,,,,,,,,,,,
,,,,,,,,,,,left.png,,w,right,614d2176e7d39d8826847a43,2021-10-21_20h15.24.914,arrow_simon_punish,2021.1.2,Win32,61.244488,,,,,,,,,,,,,,w,1,1.5516,2.432247062,0,1,1,1,5,3,1,,,,,,,,,,,,,,
,,,,,,,,,,,left.png,,w,left,614d2176e7d39d8826847a43,2021-10-21_20h15.24.914,arrow_simon_punish,2021.1.2,Win32,61.244488,,,,,,,,,,,,,,w,1,1.5682,1.625236391,0,1,1,2,6,2,1,,,,,,,,,,,,,,
,,,,,,,,,,,right.png,,p,right,614d2176e7d39d8826847a43,2021-10-21_20h15.24.914,arrow_simon_punish,2021.1.2,Win32,61.244488,,,,,,,,,,,,,,w,0,1.5514,2.294972052,1,1,1,3,7,1,1,,,,,,,,,,,,,,
,,,,,,,,,,,left.png,,w,right,614d2176e7d39d8826847a43,2021-10-21_20h15.24.914,arrow_simon_punish,2021.1.2,Win32,61.244488,,,,,,,,,,,,,,w,1,1.5622,1.745193982,0,1,2,0,8,3,1,,,,,,,,,,,,,,
,,,,,,,,,,,right.png,,p,left,614d2176e7d39d8826847a43,2021-10-21_20h15.24.914,arrow_simon_punish,2021.1.2,Win32,61.244488,,,,,,,,,,,,,,p,1,1.5943,1.813214123,0,1,2,1,9,0,1,,,,,,,,,,,,,,
,,,,,,,,,,,right.png,,p,right,614d2176e7d39d8826847a43,2021-10-21_20h15.24.914,arrow_simon_punish,2021.1.2,Win32,61.244488,,,,,,,,,,,,,,p,1,1.5349,2.114149668,0,1,2,2,10,1,1,,,,,,,,,,,,,,
,,,,,,,,,,,right.png,,p,left,614d2176e7d39d8826847a43,2021-10-21_20h15.24.914,arrow_simon_punish,2021.1.2,Win32,61.244488,,,,,,,,,,,,,,p,1,1.5598,1.857960705,0,1,2,3,11,0,1,,,,,,,,,,,,,,
,,,,,,,,,,,right.png,,p,right,614d2176e7d39d8826847a43,2021-10-21_20h15.24.914,arrow_simon_punish,2021.1.2,Win32,61.244488,,,,,,,,,,,,,,p,1,1.4551,1.529376619,0,1,3,0,12,1,1,,,,,,,,,,,,,,
,,,,,,,,,,,left.png,,w,left,614d2176e7d39d8826847a43,2021-10-21_20h15.24.914,arrow_simon_punish,2021.1.2,Win32,61.244488,,,,,,,,,,,,,,w,1,1.5534,1.794003772,0,1,3,1,13,2,1,,,,,,,,,,,,,,
,,,,,,,,,,,right.png,,p,right,614d2176e7d39d8826847a43,2021-10-21_20h15.24.914,arrow_simon_punish,2021.1.2,Win32,61.244488,,,,,,,,,,,,,,p,1,1.5853,1.953637932,0,1,3,2,14,1,1,,,,,,,,,,,,,,
,,,,,,,,,,,left.png,,w,right,614d2176e7d39d8826847a43,2021-10-21_20h15.24.914,arrow_simon_punish,2021.1.2,Win32,61.244488,,,,,,,,,,,,,,w,1,1.6268,2.036786762,1,1,3,3,15,3,1,,,,,,,,,,,,,,
,,,,,,,,,,,left.png,,w,right,614d2176e7d39d8826847a43,2021-10-21_20h15.24.914,arrow_simon_punish,2021.1.2,Win32,61.244488,,,,,,,,,,,,,,w,1,1.5435,2.14135401,0,1,4,0,16,3,1,,,,,,,,,,,,,,
,,,,,,,,,,,right.png,,p,right,614d2176e7d39d8826847a43,2021-10-21_20h15.24.914,arrow_simon_punish,2021.1.2,Win32,61.244488,,,,,,,,,,,,,,p,1,1.6217,2.031027528,1,1,4,1,17,1,1,,,,,,,,,,,,,,
,,,,,,,,,,,right.png,,p,right,614d2176e7d39d8826847a43,2021-10-21_20h15.24.914,arrow_simon_punish,2021.1.2,Win32,61.244488,,,,,,,,,,,,,,p,1,1.509,1.995862978,0,1,4,2,18,1,1,,,,,,,,,,,,,,
,,,,,,,,,,,left.png,,w,left,614d2176e7d39d8826847a43,2021-10-21_20h15.24.914,arrow_simon_punish,2021.1.2,Win32,61.244488,,,,,,,,,,,,,,w,1,1.5351,1.588574955,0,1,4,3,19,2,1,,,,,,,,,,,,,,
,,,,,,,,,,,right.png,,p,left,614d2176e7d39d8826847a43,2021-10-21_20h15.24.914,arrow_simon_punish,2021.1.2,Win32,61.244488,,,,,,,,,,,,,,p,1,1.5178,1.500059616,0,1,5,0,20,0,1,,,,,,,,,,,,,,
,,,,,,,,,,,left.png,,w,right,614d2176e7d39d8826847a43,2021-10-21_20h15.24.914,arrow_simon_punish,2021.1.2,Win32,61.244488,,,,,,,,,,,,,,p,0,1.6404,2.363383605,1,1,5,1,21,3,1,,,,,,,,,,,,,,
,,,,,,,,,,,right.png,,p,left,614d2176e7d39d8826847a43,2021-10-21_20h15.24.914,arrow_simon_punish,2021.1.2,Win32,61.244488,,,,,,,,,,,,,,p,1,1.5404,1.985561589,0,1,5,2,22,0,1,,,,,,,,,,,,,,
,,,,,,,,,,,left.png,,w,left,614d2176e7d39d8826847a43,2021-10-21_20h15.24.914,arrow_simon_punish,2021.1.2,Win32,61.244488,,,,,,,,,,,,,,w,1,1.7227,2.38803024,1,1,5,3,23,2,1,,,,,,,,,,,,,,
,,,,,,,,,,,left.png,,w,left,614d2176e7d39d8826847a43,2021-10-21_20h15.24.914,arrow_simon_punish,2021.1.2,Win32,61.244488,,,,,,,,,,,,,,w,1,1.5116,1.799583627,0,1,6,0,24,2,1,,,,,,,,,,,,,,
,,,,,,,,,,,right.png,,p,right,614d2176e7d39d8826847a43,2021-10-21_20h15.24.914,arrow_simon_punish,2021.1.2,Win32,61.244488,,,,,,,,,,,,,,p,1,1.6208,2.308365667,1,1,6,1,25,1,1,,,,,,,,,,,,,,
,,,,,,,,,,,left.png,,w,left,614d2176e7d39d8826847a43,2021-10-21_20h15.24.914,arrow_simon_punish,2021.1.2,Win32,61.244488,,,,,,,,,,,,,,w,1,1.5688,1.834823142,0,1,6,2,26,2,1,,,,,,,,,,,,,,
,,,,,,,,,,,right.png,,p,right,614d2176e7d39d8826847a43,2021-10-21_20h15.24.914,arrow_simon_punish,2021.1.2,Win32,61.244488,,,,,,,,,,,,,,p,1,1.5075,1.559332225,0,1,6,3,27,1,1,,,,,,,,,,,,,,
,,,,,,,,,,,left.png,,w,left,614d2176e7d39d8826847a43,2021-10-21_20h15.24.914,arrow_simon_punish,2021.1.2,Win32,61.244488,,,,,,,,,,,,,,w,1,1.5855,2.002497772,0,1,7,0,28,2,1,,,,,,,,,,,,,,
,,,,,,,,,,,left.png,,w,right,614d2176e7d39d8826847a43,2021-10-21_20h15.24.914,arrow_simon_punish,2021.1.2,Win32,61.244488,,,,,,,,,,,,,,w,1,1.4678,1.675851323,0,1,7,1,29,3,1,,,,,,,,,,,,,,
,,,,,,,,,,,left.png,,w,left,614d2176e7d39d8826847a43,2021-10-21_20h15.24.914,arrow_simon_punish,2021.1.2,Win32,61.244488,,,,,,,,,,,,,,p,0,1.6364,2.389753965,1,1,7,2,30,2,1,,,,,,,,,,,,,,
,,,,,,,,,,,left.png,,w,left,614d2176e7d39d8826847a43,2021-10-21_20h15.24.914,arrow_simon_punish,2021.1.2,Win32,61.244488,,,,,,,,,,,,,,w,1,1.493,2.105274914,0,1,7,3,31,2,1,,,,,,,,,,,,,,
,,,,,,,,,,,right.png,,p,left,614d2176e7d39d8826847a43,2021-10-21_20h15.24.914,arrow_simon_punish,2021.1.2,Win32,61.244488,,,,,,,,,,,,,,w,0,1.5874,2.279083161,1,1,8,0,32,0,1,,,,,,,,,,,,,,
,,,,,,,,,,,right.png,,p,left,614d2176e7d39d8826847a43,2021-10-21_20h15.24.914,arrow_simon_punish,2021.1.2,Win32,61.244488,,,,,,,,,,,,,,p,1,1.5113,1.578783702,0,1,8,1,33,0,1,,,,,,,,,,,,,,
,,,,,,,,,,,right.png,,p,left,614d2176e7d39d8826847a43,2021-10-21_20h15.24.914,arrow_simon_punish,2021.1.2,Win32,61.244488,,,,,,,,,,,,,,p,1,1.8754,2.458594569,1,1,8,2,34,0,1,,,,,,,,,,,,,,
,,,,,,,,,,,right.png,,p,left,614d2176e7d39d8826847a43,2021-10-21_20h15.24.914,arrow_simon_punish,2021.1.2,Win32,61.244488,,,,,,,,,,,,,,w,0,1.5355,2.184221552,1,1,8,3,35,0,1,,,,,,,,,,,,,,
,,,,,,,,,,,right.png,,p,left,614d2176e7d39d8826847a43,2021-10-21_20h15.24.914,arrow_simon_punish,2021.1.2,Win32,61.244488,,,,,,,,,,,,,,p,1,1.5038,2.108496012,0,1,9,0,36,0,1,,,,,,,,,,,,,,
,,,,,,,,,,,left.png,,w,right,614d2176e7d39d8826847a43,2021-10-21_20h15.24.914,arrow_simon_punish,2021.1.2,Win32,61.244488,,,,,,,,,,,,,,w,1,1.5687,1.843469587,0,1,9,1,37,3,1,,,,,,,,,,,,,,
,,,,,,,,,,,right.png,,p,right,614d2176e7d39d8826847a43,2021-10-21_20h15.24.914,arrow_simon_punish,2021.1.2,Win32,61.244488,,,,,,,,,,,,,,p,1,1.8213,2.378167932,1,1,9,2,38,1,1,,,,,,,,,,,,,,
,,,,,,,,,,,right.png,,p,left,614d2176e7d39d8826847a43,2021-10-21_20h15.24.914,arrow_simon_punish,2021.1.2,Win32,61.244488,,,,,,,,,,,,,,w,0,1.5858,2.182155478,1,1,9,3,39,0,1,,,,,,,,,,,,,,
,,,,,,,,,,,right.png,,p,left,614d2176e7d39d8826847a43,2021-10-21_20h15.24.914,arrow_simon_punish,2021.1.2,Win32,61.244488,,,,,,,,,,,,,,p,1,1.5684,1.583752548,0,1,10,0,40,0,1,,,,,,,,,,,,,,
,,,,,,,,,,,right.png,,p,left,614d2176e7d39d8826847a43,2021-10-21_20h15.24.914,arrow_simon_punish,2021.1.2,Win32,61.244488,,,,,,,,,,,,,,p,1,1.5686,2.003970149,0,1,10,1,41,0,1,,,,,,,,,,,,,,
,,,,,,,,,,,left.png,,w,left,614d2176e7d39d8826847a43,2021-10-21_20h15.24.914,arrow_simon_punish,2021.1.2,Win32,61.244488,,,,,,,,,,,,,,w,1,1.4582,1.899042394,0,1,10,2,42,2,1,,,,,,,,,,,,,,
,,,,,,,,,,,left.png,,w,left,614d2176e7d39d8826847a43,2021-10-21_20h15.24.914,arrow_simon_punish,2021.1.2,Win32,61.244488,,,,,,,,,,,,,,w,1,1.9182,2.465442853,1,1,10,3,43,2,1,,,,,,,,,,,,,,
,,,,,,,,,,,right.png,,p,right,614d2176e7d39d8826847a43,2021-10-21_20h15.24.914,arrow_simon_punish,2021.1.2,Win32,61.244488,,,,,,,,,,,,,,p,1,1.585,1.5912623,0,1,11,0,44,1,1,,,,,,,,,,,,,,
,,,,,,,,,,,right.png,,p,left,614d2176e7d39d8826847a43,2021-10-21_20h15.24.914,arrow_simon_punish,2021.1.2,Win32,61.244488,,,,,,,,,,,,,,p,1,1.593,1.705657882,0,1,11,1,45,0,1,,,,,,,,,,,,,,
,,,,,,,,,,,right.png,,p,right,614d2176e7d39d8826847a43,2021-10-21_20h15.24.914,arrow_simon_punish,2021.1.2,Win32,61.244488,,,,,,,,,,,,,,p,1,1.7379,2.405477302,1,1,11,2,46,1,1,,,,,,,,,,,,,,
,,,,,,,,,,,left.png,,w,right,614d2176e7d39d8826847a43,2021-10-21_20h15.24.914,arrow_simon_punish,2021.1.2,Win32,61.244488,,,,,,,,,,,,,,w,1,1.5093,1.502952467,0,1,11,3,47,3,1,,,,,,,,,,,,,,
,,,,,,,,,,,left.png,,w,left,614d2176e7d39d8826847a43,2021-10-21_20h15.24.914,arrow_simon_punish,2021.1.2,Win32,61.244488,,,,,,,,,,,,,,p,0,1.8023,2.448301553,1,1,12,0,48,2,1,,,,,,,,,,,,,,
,,,,,,,,,,,left.png,,w,left,614d2176e7d39d8826847a43,2021-10-21_20h15.24.914,arrow_simon_punish,2021.1.2,Win32,61.244488,,,,,,,,,,,,,,w,1,1.5849,2.198703272,0,1,12,1,49,2,1,,,,,,,,,,,,,,
,,,,,,,,,,,right.png,,p,right,614d2176e7d39d8826847a43,2021-10-21_20h15.24.914,arrow_simon_punish,2021.1.2,Win32,61.244488,,,,,,,,,,,,,,p,1,1.6214,2.022997914,1,1,12,2,50,1,1,,,,,,,,,,,,,,
,,,,,,,,,,,right.png,,p,right,614d2176e7d39d8826847a43,2021-10-21_20h15.24.914,arrow_simon_punish,2021.1.2,Win32,61.244488,,,,,,,,,,,,,,w,0,1.7057,2.487736017,1,1,12,3,51,1,1,,,,,,,,,,,,,,
,,,,,,,,,,,left.png,,w,right,614d2176e7d39d8826847a43,2021-10-21_20h15.24.914,arrow_simon_punish,2021.1.2,Win32,61.244488,,,,,,,,,,,,,,w,1,1.8114,2.217718521,1,1,13,0,52,3,1,,,,,,,,,,,,,,
,,,,,,,,,,,right.png,,p,right,614d2176e7d39d8826847a43,2021-10-21_20h15.24.914,arrow_simon_punish,2021.1.2,Win32,61.244488,,,,,,,,,,,,,,p,1,1.845,2.466707237,1,1,13,1,53,1,1,,,,,,,,,,,,,,
,,,,,,,,,,,right.png,,p,right,614d2176e7d39d8826847a43,2021-10-21_20h15.24.914,arrow_simon_punish,2021.1.2,Win32,61.244488,,,,,,,,,,,,,,p,1,1.8017,2.490405169,1,1,13,2,54,1,1,,,,,,,,,,,,,,
,,,,,,,,,,,right.png,,p,left,614d2176e7d39d8826847a43,2021-10-21_20h15.24.914,arrow_simon_punish,2021.1.2,Win32,61.244488,,,,,,,,,,,,,,w,0,1.6854,2.352905495,1,1,13,3,55,0,1,,,,,,,,,,,,,,
,,,,,,,,,,,left.png,,w,right,614d2176e7d39d8826847a43,2021-10-21_20h15.24.914,arrow_simon_punish,2021.1.2,Win32,61.244488,,,,,,,,,,,,,,w,1,1.5848,1.678022583,0,1,14,0,56,3,1,,,,,,,,,,,,,,
,,,,,,,,,,,right.png,,p,left,614d2176e7d39d8826847a43,2021-10-21_20h15.24.914,arrow_simon_punish,2021.1.2,Win32,61.244488,,,,,,,,,,,,,,p,1,1.5517,1.792414845,0,1,14,1,57,0,1,,,,,,,,,,,,,,
,,,,,,,,,,,left.png,,w,left,614d2176e7d39d8826847a43,2021-10-21_20h15.24.914,arrow_simon_punish,2021.1.2,Win32,61.244488,,,,,,,,,,,,,,w,1,1.5528,2.007363412,0,1,14,2,58,2,1,,,,,,,,,,,,,,
,,,,,,,,,,,left.png,,w,right,614d2176e7d39d8826847a43,2021-10-21_20h15.24.914,arrow_simon_punish,2021.1.2,Win32,61.244488,,,,,,,,,,,,,,w,1,1.5689,1.875375323,0,1,14,3,59,3,1,,,,,,,,,,,,,,
,,,,,,,,,,,,,,,614d2176e7d39d8826847a43,2021-10-21_20h15.24.914,arrow_simon_punish,2021.1.2,Win32,61.244488,,,,,,,,,,,,,,,,,,,,,,,,,space,158.9016,4,1,0,2,0,1,1,,,,,
,,,,,,,,,,,left.png,,w,left,614d2176e7d39d8826847a43,2021-10-21_20h15.24.914,arrow_simon_punish,2021.1.2,Win32,61.244488,,,,,,,,,,,,,,w,1,1.5209,1.566498667,0,5,0,0,0,2,1,,,,,,,,,,,,,,
,,,,,,,,,,,right.png,,p,left,614d2176e7d39d8826847a43,2021-10-21_20h15.24.914,arrow_simon_punish,2021.1.2,Win32,61.244488,,,,,,,,,,,,,,p,1,1.494,1.539485895,0,5,0,1,1,0,1,,,,,,,,,,,,,,
,,,,,,,,,,,right.png,,p,left,614d2176e7d39d8826847a43,2021-10-21_20h15.24.914,arrow_simon_punish,2021.1.2,Win32,61.244488,,,,,,,,,,,,,,p,1,1.519,2.089448544,0,5,0,2,2,0,1,,,,,,,,,,,,,,
,,,,,,,,,,,right.png,,p,left,614d2176e7d39d8826847a43,2021-10-21_20h15.24.914,arrow_simon_punish,2021.1.2,Win32,61.244488,,,,,,,,,,,,,,p,1,1.4909,2.002209552,0,5,0,3,3,0,1,,,,,,,,,,,,,,
,,,,,,,,,,,right.png,,p,right,614d2176e7d39d8826847a43,2021-10-21_20h15.24.914,arrow_simon_punish,2021.1.2,Win32,61.244488,,,,,,,,,,,,,,p,1,1.5102,1.815546514,0,5,1,0,4,1,1,,,,,,,,,,,,,,
,,,,,,,,,,,right.png,,p,right,614d2176e7d39d8826847a43,2021-10-21_20h15.24.914,arrow_simon_punish,2021.1.2,Win32,61.244488,,,,,,,,,,,,,,p,1,1.4728,1.825818966,0,5,1,1,5,1,1,,,,,,,,,,,,,,
,,,,,,,,,,,left.png,,w,left,614d2176e7d39d8826847a43,2021-10-21_20h15.24.914,arrow_simon_punish,2021.1.2,Win32,61.244488,,,,,,,,,,,,,,w,1,1.5694,2.249612217,0,5,1,2,6,2,1,,,,,,,,,,,,,,
,,,,,,,,,,,right.png,,p,right,614d2176e7d39d8826847a43,2021-10-21_20h15.24.914,arrow_simon_punish,2021.1.2,Win32,61.244488,,,,,,,,,,,,,,p,1,1.5217,1.732743007,0,5,1,3,7,1,1,,,,,,,,,,,,,,
,,,,,,,,,,,left.png,,w,left,614d2176e7d39d8826847a43,2021-10-21_20h15.24.914,arrow_simon_punish,2021.1.2,Win32,61.244488,,,,,,,,,,,,,,w,1,1.5546,1.870428144,0,5,2,0,8,2,1,,,,,,,,,,,,,,
,,,,,,,,,,,left.png,,w,left,614d2176e7d39d8826847a43,2021-10-21_20h15.24.914,arrow_simon_punish,2021.1.2,Win32,61.244488,,,,,,,,,,,,,,p,0,1.5862,2.446639017,1,5,2,1,9,2,1,,,,,,,,,,,,,,
,,,,,,,,,,,right.png,,p,left,614d2176e7d39d8826847a43,2021-10-21_20h15.24.914,arrow_simon_punish,2021.1.2,Win32,61.244488,,,,,,,,,,,,,,p,1,1.5527,1.630960383,0,5,2,2,10,0,1,,,,,,,,,,,,,,
,,,,,,,,,,,left.png,,w,right,614d2176e7d39d8826847a43,2021-10-21_20h15.24.914,arrow_simon_punish,2021.1.2,Win32,61.244488,,,,,,,,,,,,,,w,1,1.52,1.558305904,0,5,2,3,11,3,1,,,,,,,,,,,,,,
,,,,,,,,,,,right.png,,p,left,614d2176e7d39d8826847a43,2021-10-21_20h15.24.914,arrow_simon_punish,2021.1.2,Win32,61.244488,,,,,,,,,,,,,,p,1,1.6121,2.238606945,1,5,3,0,12,0,1,,,,,,,,,,,,,,
,,,,,,,,,,,left.png,,w,right,614d2176e7d39d8826847a43,2021-10-21_20h15.24.914,arrow_simon_punish,2021.1.2,Win32,61.244488,,,,,,,,,,,,,,w,1,1.5354,1.935502213,0,5,3,1,13,3,1,,,,,,,,,,,,,,
,,,,,,,,,,,right.png,,p,left,614d2176e7d39d8826847a43,2021-10-21_20h15.24.914,arrow_simon_punish,2021.1.2,Win32,61.244488,,,,,,,,,,,,,,p,1,1.6355,2.412679113,1,5,3,2,14,0,1,,,,,,,,,,,,,,
,,,,,,,,,,,right.png,,p,right,614d2176e7d39d8826847a43,2021-10-21_20h15.24.914,arrow_simon_punish,2021.1.2,Win32,61.244488,,,,,,,,,,,,,,p,1,1.5712,2.426013541,0,5,3,3,15,1,1,,,,,,,,,,,,,,
,,,,,,,,,,,right.png,,p,left,614d2176e7d39d8826847a43,2021-10-21_20h15.24.914,arrow_simon_punish,2021.1.2,Win32,61.244488,,,,,,,,,,,,,,w,0,1.4512,2.07684639,1,5,4,0,16,0,1,,,,,,,,,,,,,,
,,,,,,,,,,,left.png,,w,right,614d2176e7d39d8826847a43,2021-10-21_20h15.24.914,arrow_simon_punish,2021.1.2,Win32,61.244488,,,,,,,,,,,,,,w,1,1.4426,1.542053366,0,5,4,1,17,3,1,,,,,,,,,,,,,,
,,,,,,,,,,,right.png,,p,left,614d2176e7d39d8826847a43,2021-10-21_20h15.24.914,arrow_simon_punish,2021.1.2,Win32,61.244488,,,,,,,,,,,,,,p,1,1.5352,1.962193902,0,5,4,2,18,0,1,,,,,,,,,,,,,,
,,,,,,,,,,,left.png,,w,left,614d2176e7d39d8826847a43,2021-10-21_20h15.24.914,arrow_simon_punish,2021.1.2,Win32,61.244488,,,,,,,,,,,,,,p,0,1.5025,2.106298367,1,5,4,3,19,2,1,,,,,,,,,,,,,,
,,,,,,,,,,,left.png,,w,left,614d2176e7d39d8826847a43,2021-10-21_20h15.24.914,arrow_simon_punish,2021.1.2,Win32,61.244488,,,,,,,,,,,,,,p,0,1.601,2.439717724,1,5,5,0,20,2,1,,,,,,,,,,,,,,
,,,,,,,,,,,right.png,,p,right,614d2176e7d39d8826847a43,2021-10-21_20h15.24.914,arrow_simon_punish,2021.1.2,Win32,61.244488,,,,,,,,,,,,,,p,1,1.5459,1.696879341,0,5,5,1,21,1,1,,,,,,,,,,,,,,
,,,,,,,,,,,right.png,,p,right,614d2176e7d39d8826847a43,2021-10-21_20h15.24.914,arrow_simon_punish,2021.1.2,Win32,61.244488,,,,,,,,,,,,,,p,1,1.4241,1.542255133,0,5,5,2,22,1,1,,,,,,,,,,,,,,
,,,,,,,,,,,right.png,,p,right,614d2176e7d39d8826847a43,2021-10-21_20h15.24.914,arrow_simon_punish,2021.1.2,Win32,61.244488,,,,,,,,,,,,,,p,1,1.5441,2.190900636,0,5,5,3,23,1,1,,,,,,,,,,,,,,
,,,,,,,,,,,left.png,,w,left,614d2176e7d39d8826847a43,2021-10-21_20h15.24.914,arrow_simon_punish,2021.1.2,Win32,61.244488,,,,,,,,,,,,,,w,1,1.5461,1.541455763,0,5,6,0,24,2,1,,,,,,,,,,,,,,
,,,,,,,,,,,left.png,,w,left,614d2176e7d39d8826847a43,2021-10-21_20h15.24.914,arrow_simon_punish,2021.1.2,Win32,61.244488,,,,,,,,,,,,,,w,1,1.5461,2.029338434,0,5,6,1,25,2,1,,,,,,,,,,,,,,
,,,,,,,,,,,left.png,,w,right,614d2176e7d39d8826847a43,2021-10-21_20h15.24.914,arrow_simon_punish,2021.1.2,Win32,61.244488,,,,,,,,,,,,,,w,1,1.5192,1.591538833,0,5,6,2,26,3,1,,,,,,,,,,,,,,
,,,,,,,,,,,left.png,,w,left,614d2176e7d39d8826847a43,2021-10-21_20h15.24.914,arrow_simon_punish,2021.1.2,Win32,61.244488,,,,,,,,,,,,,,w,1,1.5223,1.623703042,0,5,6,3,27,2,1,,,,,,,,,,,,,,
,,,,,,,,,,,left.png,,w,left,614d2176e7d39d8826847a43,2021-10-21_20h15.24.914,arrow_simon_punish,2021.1.2,Win32,61.244488,,,,,,,,,,,,,,w,1,1.646,1.896080363,1,5,7,0,28,2,1,,,,,,,,,,,,,,
,,,,,,,,,,,left.png,,w,left,614d2176e7d39d8826847a43,2021-10-21_20h15.24.914,arrow_simon_punish,2021.1.2,Win32,61.244488,,,,,,,,,,,,,,w,1,1.6069,2.281782672,1,5,7,1,29,2,1,,,,,,,,,,,,,,
,,,,,,,,,,,right.png,,p,right,614d2176e7d39d8826847a43,2021-10-21_20h15.24.914,arrow_simon_punish,2021.1.2,Win32,61.244488,,,,,,,,,,,,,,p,1,1.5411,2.162559189,0,5,7,2,30,1,1,,,,,,,,,,,,,,
,,,,,,,,,,,right.png,,p,right,614d2176e7d39d8826847a43,2021-10-21_20h15.24.914,arrow_simon_punish,2021.1.2,Win32,61.244488,,,,,,,,,,,,,,p,1,1.6024,2.2900305,1,5,7,3,31,1,1,,,,,,,,,,,,,,
,,,,,,,,,,,right.png,,p,left,614d2176e7d39d8826847a43,2021-10-21_20h15.24.914,arrow_simon_punish,2021.1.2,Win32,61.244488,,,,,,,,,,,,,,p,1,1.6871,1.571049919,1,5,8,0,32,0,1,,,,,,,,,,,,,,
,,,,,,,,,,,left.png,,w,right,614d2176e7d39d8826847a43,2021-10-21_20h15.24.914,arrow_simon_punish,2021.1.2,Win32,61.244488,,,,,,,,,,,,,,p,0,1.4933,2.241758578,1,5,8,1,33,3,1,,,,,,,,,,,,,,
,,,,,,,,,,,left.png,,w,right,614d2176e7d39d8826847a43,2021-10-21_20h15.24.914,arrow_simon_punish,2021.1.2,Win32,61.244488,,,,,,,,,,,,,,w,1,1.5283,1.632257947,0,5,8,2,34,3,1,,,,,,,,,,,,,,
,,,,,,,,,,,left.png,,w,right,614d2176e7d39d8826847a43,2021-10-21_20h15.24.914,arrow_simon_punish,2021.1.2,Win32,61.244488,,,,,,,,,,,,,,p,0,1.456,2.0939524,1,5,8,3,35,3,1,,,,,,,,,,,,,,
,,,,,,,,,,,right.png,,p,right,614d2176e7d39d8826847a43,2021-10-21_20h15.24.914,arrow_simon_punish,2021.1.2,Win32,61.244488,,,,,,,,,,,,,,p,1,1.5572,1.862139241,0,5,9,0,36,1,1,,,,,,,,,,,,,,
,,,,,,,,,,,left.png,,w,left,614d2176e7d39d8826847a43,2021-10-21_20h15.24.914,arrow_simon_punish,2021.1.2,Win32,61.244488,,,,,,,,,,,,,,w,1,1.6195,2.181575794,1,5,9,1,37,2,1,,,,,,,,,,,,,,
,,,,,,,,,,,left.png,,w,right,614d2176e7d39d8826847a43,2021-10-21_20h15.24.914,arrow_simon_punish,2021.1.2,Win32,61.244488,,,,,,,,,,,,,,p,0,1.5517,2.262369951,1,5,9,2,38,3,1,,,,,,,,,,,,,,
,,,,,,,,,,,right.png,,p,left,614d2176e7d39d8826847a43,2021-10-21_20h15.24.914,arrow_simon_punish,2021.1.2,Win32,61.244488,,,,,,,,,,,,,,p,1,1.5034,1.781476685,0,5,9,3,39,0,1,,,,,,,,,,,,,,
,,,,,,,,,,,right.png,,p,right,614d2176e7d39d8826847a43,2021-10-21_20h15.24.914,arrow_simon_punish,2021.1.2,Win32,61.244488,,,,,,,,,,,,,,p,1,1.492,1.673231064,0,5,10,0,40,1,1,,,,,,,,,,,,,,
,,,,,,,,,,,left.png,,w,left,614d2176e7d39d8826847a43,2021-10-21_20h15.24.914,arrow_simon_punish,2021.1.2,Win32,61.244488,,,,,,,,,,,,,,w,1,1.5278,1.863784371,0,5,10,1,41,2,1,,,,,,,,,,,,,,
,,,,,,,,,,,left.png,,w,right,614d2176e7d39d8826847a43,2021-10-21_20h15.24.914,arrow_simon_punish,2021.1.2,Win32,61.244488,,,,,,,,,,,,,,p,0,1.5363,2.27615205,1,5,10,2,42,3,1,,,,,,,,,,,,,,
,,,,,,,,,,,right.png,,p,right,614d2176e7d39d8826847a43,2021-10-21_20h15.24.914,arrow_simon_punish,2021.1.2,Win32,61.244488,,,,,,,,,,,,,,p,1,1.4896,2.240298718,0,5,10,3,43,1,1,,,,,,,,,,,,,,
,,,,,,,,,,,left.png,,w,right,614d2176e7d39d8826847a43,2021-10-21_20h15.24.914,arrow_simon_punish,2021.1.2,Win32,61.244488,,,,,,,,,,,,,,p,0,1.5095,2.036166292,1,5,11,0,44,3,1,,,,,,,,,,,,,,
,,,,,,,,,,,left.png,,w,right,614d2176e7d39d8826847a43,2021-10-21_20h15.24.914,arrow_simon_punish,2021.1.2,Win32,61.244488,,,,,,,,,,,,,,p,0,1.5183,2.246880407,1,5,11,1,45,3,1,,,,,,,,,,,,,,
,,,,,,,,,,,right.png,,p,left,614d2176e7d39d8826847a43,2021-10-21_20h15.24.914,arrow_simon_punish,2021.1.2,Win32,61.244488,,,,,,,,,,,,,,p,1,1.5191,1.84993504,0,5,11,2,46,0,1,,,,,,,,,,,,,,
,,,,,,,,,,,left.png,,w,right,614d2176e7d39d8826847a43,2021-10-21_20h15.24.914,arrow_simon_punish,2021.1.2,Win32,61.244488,,,,,,,,,,,,,,p,0,1.5691,2.218969522,1,5,11,3,47,3,1,,,,,,,,,,,,,,
,,,,,,,,,,,left.png,,w,right,614d2176e7d39d8826847a43,2021-10-21_20h15.24.914,arrow_simon_punish,2021.1.2,Win32,61.244488,,,,,,,,,,,,,,w,1,1.5684,1.910319231,0,5,12,0,48,3,1,,,,,,,,,,,,,,
,,,,,,,,,,,right.png,,p,right,614d2176e7d39d8826847a43,2021-10-21_20h15.24.914,arrow_simon_punish,2021.1.2,Win32,61.244488,,,,,,,,,,,,,,p,1,1.4731,1.611911222,0,5,12,1,49,1,1,,,,,,,,,,,,,,
,,,,,,,,,,,right.png,,p,left,614d2176e7d39d8826847a43,2021-10-21_20h15.24.914,arrow_simon_punish,2021.1.2,Win32,61.244488,,,,,,,,,,,,,,p,1,1.4845,1.688221277,0,5,12,2,50,0,1,,,,,,,,,,,,,,
,,,,,,,,,,,left.png,,w,left,614d2176e7d39d8826847a43,2021-10-21_20h15.24.914,arrow_simon_punish,2021.1.2,Win32,61.244488,,,,,,,,,,,,,,w,1,1.4273,1.844314856,0,5,12,3,51,2,1,,,,,,,,,,,,,,
,,,,,,,,,,,left.png,,w,right,614d2176e7d39d8826847a43,2021-10-21_20h15.24.914,arrow_simon_punish,2021.1.2,Win32,61.244488,,,,,,,,,,,,,,w,1,1.4707,1.608151064,0,5,13,0,52,3,1,,,,,,,,,,,,,,
,,,,,,,,,,,right.png,,p,right,614d2176e7d39d8826847a43,2021-10-21_20h15.24.914,arrow_simon_punish,2021.1.2,Win32,61.244488,,,,,,,,,,,,,,p,1,1.4774,1.771513467,0,5,13,1,53,1,1,,,,,,,,,,,,,,
,,,,,,,,,,,right.png,,p,left,614d2176e7d39d8826847a43,2021-10-21_20h15.24.914,arrow_simon_punish,2021.1.2,Win32,61.244488,,,,,,,,,,,,,,p,1,1.4874,1.768864297,0,5,13,2,54,0,1,,,,,,,,,,,,,,
,,,,,,,,,,,left.png,,w,left,614d2176e7d39d8826847a43,2021-10-21_20h15.24.914,arrow_simon_punish,2021.1.2,Win32,61.244488,,,,,,,,,,,,,,w,1,1.5557,2.348714045,0,5,13,3,55,2,1,,,,,,,,,,,,,,
,,,,,,,,,,,right.png,,p,right,614d2176e7d39d8826847a43,2021-10-21_20h15.24.914,arrow_simon_punish,2021.1.2,Win32,61.244488,,,,,,,,,,,,,,p,1,1.5688,1.772628332,0,5,14,0,56,1,1,,,,,,,,,,,,,,
,,,,,,,,,,,right.png,,p,left,614d2176e7d39d8826847a43,2021-10-21_20h15.24.914,arrow_simon_punish,2021.1.2,Win32,61.244488,,,,,,,,,,,,,,p,1,1.5047,2.02202721,0,5,14,1,57,0,1,,,,,,,,,,,,,,
,,,,,,,,,,,left.png,,w,right,614d2176e7d39d8826847a43,2021-10-21_20h15.24.914,arrow_simon_punish,2021.1.2,Win32,61.244488,,,,,,,,,,,,,,p,0,1.5242,2.344618374,1,5,14,2,58,3,1,,,,,,,,,,,,,,
,,,,,,,,,,,right.png,,p,left,614d2176e7d39d8826847a43,2021-10-21_20h15.24.914,arrow_simon_punish,2021.1.2,Win32,61.244488,,,,,,,,,,,,,,p,1,1.5733,2.392732393,0,5,14,3,59,0,1,,,,,,,,,,,,,,
,,,,,,,,,,,,,,,614d2176e7d39d8826847a43,2021-10-21_20h15.24.914,arrow_simon_punish,2021.1.2,Win32,61.244488,,,,,,,,,,,,,,,,,,,,,,,,,space,118.9418,5,1,1,3,1,1,5,,,,,
,,,,,,,,,,,left.png,,w,right,614d2176e7d39d8826847a43,2021-10-21_20h15.24.914,arrow_simon_punish,2021.1.2,Win32,61.244488,,,,,,,,,,,,,,p,0,1.6189,2.32701981,1,1,0,0,0,3,1,,,,,,,,,,,,,,
,,,,,,,,,,,right.png,,p,right,614d2176e7d39d8826847a43,2021-10-21_20h15.24.914,arrow_simon_punish,2021.1.2,Win32,61.244488,,,,,,,,,,,,,,p,1,1.552,2.168253683,0,1,0,1,1,1,1,,,,,,,,,,,,,,
,,,,,,,,,,,left.png,,w,right,614d2176e7d39d8826847a43,2021-10-21_20h15.24.914,arrow_simon_punish,2021.1.2,Win32,61.244488,,,,,,,,,,,,,,w,1,1.4433,2.007474714,0,1,0,2,2,3,1,,,,,,,,,,,,,,
,,,,,,,,,,,left.png,,w,left,614d2176e7d39d8826847a43,2021-10-21_20h15.24.914,arrow_simon_punish,2021.1.2,Win32,61.244488,,,,,,,,,,,,,,w,1,1.5755,2.258593043,0,1,0,3,3,2,1,,,,,,,,,,,,,,
,,,,,,,,,,,left.png,,w,right,614d2176e7d39d8826847a43,2021-10-21_20h15.24.914,arrow_simon_punish,2021.1.2,Win32,61.244488,,,,,,,,,,,,,,w,1,1.5587,1.982805092,0,1,1,0,4,3,1,,,,,,,,,,,,,,
,,,,,,,,,,,left.png,,w,left,614d2176e7d39d8826847a43,2021-10-21_20h15.24.914,arrow_simon_punish,2021.1.2,Win32,61.244488,,,,,,,,,,,,,,w,1,1.4392,1.629177845,0,1,1,1,5,2,1,,,,,,,,,,,,,,
,,,,,,,,,,,left.png,,w,left,614d2176e7d39d8826847a43,2021-10-21_20h15.24.914,arrow_simon_punish,2021.1.2,Win32,61.244488,,,,,,,,,,,,,,w,1,1.5715,2.222877054,0,1,1,2,6,2,1,,,,,,,,,,,,,,
,,,,,,,,,,,right.png,,p,right,614d2176e7d39d8826847a43,2021-10-21_20h15.24.914,arrow_simon_punish,2021.1.2,Win32,61.244488,,,,,,,,,,,,,,p,1,1.7518,2.441324923,1,1,1,3,7,1,1,,,,,,,,,,,,,,
,,,,,,,,,,,left.png,,w,left,614d2176e7d39d8826847a43,2021-10-21_20h15.24.914,arrow_simon_punish,2021.1.2,Win32,61.244488,,,,,,,,,,,,,,w,1,1.5348,1.753413598,0,1,2,0,8,2,1,,,,,,,,,,,,,,
,,,,,,,,,,,left.png,,w,left,614d2176e7d39d8826847a43,2021-10-21_20h15.24.914,arrow_simon_punish,2021.1.2,Win32,61.244488,,,,,,,,,,,,,,w,1,1.5177,2.013437491,0,1,2,1,9,2,1,,,,,,,,,,,,,,
,,,,,,,,,,,right.png,,p,right,614d2176e7d39d8826847a43,2021-10-21_20h15.24.914,arrow_simon_punish,2021.1.2,Win32,61.244488,,,,,,,,,,,,,,p,1,1.5684,2.236485094,0,1,2,2,10,1,1,,,,,,,,,,,,,,
,,,,,,,,,,,right.png,,p,right,614d2176e7d39d8826847a43,2021-10-21_20h15.24.914,arrow_simon_punish,2021.1.2,Win32,61.244488,,,,,,,,,,,,,,p,1,1.5496,1.836462421,0,1,2,3,11,1,1,,,,,,,,,,,,,,
,,,,,,,,,,,left.png,,w,left,614d2176e7d39d8826847a43,2021-10-21_20h15.24.914,arrow_simon_punish,2021.1.2,Win32,61.244488,,,,,,,,,,,,,,w,1,1.5682,1.879488653,0,1,3,0,12,2,1,,,,,,,,,,,,,,
,,,,,,,,,,,right.png,,p,left,614d2176e7d39d8826847a43,2021-10-21_20h15.24.914,arrow_simon_punish,2021.1.2,Win32,61.244488,,,,,,,,,,,,,,p,1,1.535,1.622763524,0,1,3,1,13,0,1,,,,,,,,,,,,,,
,,,,,,,,,,,left.png,,w,left,614d2176e7d39d8826847a43,2021-10-21_20h15.24.914,arrow_simon_punish,2021.1.2,Win32,61.244488,,,,,,,,,,,,,,w,1,1.536,1.894369895,0,1,3,2,14,2,1,,,,,,,,,,,,,,
,,,,,,,,,,,right.png,,p,left,614d2176e7d39d8826847a43,2021-10-21_20h15.24.914,arrow_simon_punish,2021.1.2,Win32,61.244488,,,,,,,,,,,,,,p,1,1.5688,2.132566749,0,1,3,3,15,0,1,,,,,,,,,,,,,,
,,,,,,,,,,,left.png,,w,right,614d2176e7d39d8826847a43,2021-10-21_20h15.24.914,arrow_simon_punish,2021.1.2,Win32,61.244488,,,,,,,,,,,,,,p,0,1.8021,2.476921689,1,1,4,0,16,3,1,,,,,,,,,,,,,,
,,,,,,,,,,,right.png,,p,left,614d2176e7d39d8826847a43,2021-10-21_20h15.24.914,arrow_simon_punish,2021.1.2,Win32,61.244488,,,,,,,,,,,,,,w,0,1.7188,2.390565484,1,1,4,1,17,0,1,,,,,,,,,,,,,,
,,,,,,,,,,,left.png,,w,right,614d2176e7d39d8826847a43,2021-10-21_20h15.24.914,arrow_simon_punish,2021.1.2,Win32,61.244488,,,,,,,,,,,,,,w,1,1.5519,1.52760851,0,1,4,2,18,3,1,,,,,,,,,,,,,,
,,,,,,,,,,,left.png,,w,left,614d2176e7d39d8826847a43,2021-10-21_20h15.24.914,arrow_simon_punish,2021.1.2,Win32,61.244488,,,,,,,,,,,,,,w,1,1.5036,1.760765598,0,1,4,3,19,2,1,,,,,,,,,,,,,,
,,,,,,,,,,,left.png,,w,left,614d2176e7d39d8826847a43,2021-10-21_20h15.24.914,arrow_simon_punish,2021.1.2,Win32,61.244488,,,,,,,,,,,,,,w,1,1.902,2.492705635,1,1,5,0,20,2,1,,,,,,,,,,,,,,
,,,,,,,,,,,left.png,,w,right,614d2176e7d39d8826847a43,2021-10-21_20h15.24.914,arrow_simon_punish,2021.1.2,Win32,61.244488,,,,,,,,,,,,,,p,0,1.6089,2.33624306,1,1,5,1,21,3,1,,,,,,,,,,,,,,
,,,,,,,,,,,right.png,,p,left,614d2176e7d39d8826847a43,2021-10-21_20h15.24.914,arrow_simon_punish,2021.1.2,Win32,61.244488,,,,,,,,,,,,,,p,1,1.5743,1.772525449,0,1,5,2,22,0,1,,,,,,,,,,,,,,
,,,,,,,,,,,left.png,,w,right,614d2176e7d39d8826847a43,2021-10-21_20h15.24.914,arrow_simon_punish,2021.1.2,Win32,61.244488,,,,,,,,,,,,,,w,1,1.5107,1.698440737,0,1,5,3,23,3,1,,,,,,,,,,,,,,
,,,,,,,,,,,right.png,,p,right,614d2176e7d39d8826847a43,2021-10-21_20h15.24.914,arrow_simon_punish,2021.1.2,Win32,61.244488,,,,,,,,,,,,,,p,1,1.4544,1.621400871,0,1,6,0,24,1,1,,,,,,,,,,,,,,
,,,,,,,,,,,right.png,,p,left,614d2176e7d39d8826847a43,2021-10-21_20h15.24.914,arrow_simon_punish,2021.1.2,Win32,61.244488,,,,,,,,,,,,,,p,1,1.5246,1.697498746,0,1,6,1,25,0,1,,,,,,,,,,,,,,
,,,,,,,,,,,right.png,,p,left,614d2176e7d39d8826847a43,2021-10-21_20h15.24.914,arrow_simon_punish,2021.1.2,Win32,61.244488,,,,,,,,,,,,,,p,1,1.4539,1.739902973,0,1,6,2,26,0,1,,,,,,,,,,,,,,
,,,,,,,,,,,right.png,,p,left,614d2176e7d39d8826847a43,2021-10-21_20h15.24.914,arrow_simon_punish,2021.1.2,Win32,61.244488,,,,,,,,,,,,,,p,1,1.642,2.262799992,1,1,6,3,27,0,1,,,,,,,,,,,,,,
,,,,,,,,,,,right.png,,p,right,614d2176e7d39d8826847a43,2021-10-21_20h15.24.914,arrow_simon_punish,2021.1.2,Win32,61.244488,,,,,,,,,,,,,,p,1,1.4533,1.754888948,0,1,7,0,28,1,1,,,,,,,,,,,,,,
,,,,,,,,,,,left.png,,w,right,614d2176e7d39d8826847a43,2021-10-21_20h15.24.914,arrow_simon_punish,2021.1.2,Win32,61.244488,,,,,,,,,,,,,,w,1,1.4516,1.792571789,0,1,7,1,29,3,1,,,,,,,,,,,,,,
,,,,,,,,,,,left.png,,w,left,614d2176e7d39d8826847a43,2021-10-21_20h15.24.914,arrow_simon_punish,2021.1.2,Win32,61.244488,,,,,,,,,,,,,,w,1,1.4595,1.769980011,0,1,7,2,30,2,1,,,,,,,,,,,,,,
,,,,,,,,,,,right.png,,p,right,614d2176e7d39d8826847a43,2021-10-21_20h15.24.914,arrow_simon_punish,2021.1.2,Win32,61.244488,,,,,,,,,,,,,,p,1,1.5014,1.822760183,0,1,7,3,31,1,1,,,,,,,,,,,,,,
,,,,,,,,,,,right.png,,p,left,614d2176e7d39d8826847a43,2021-10-21_20h15.24.914,arrow_simon_punish,2021.1.2,Win32,61.244488,,,,,,,,,,,,,,p,1,1.6229,1.915992509,1,1,8,0,32,0,1,,,,,,,,,,,,,,
,,,,,,,,,,,left.png,,w,right,614d2176e7d39d8826847a43,2021-10-21_20h15.24.914,arrow_simon_punish,2021.1.2,Win32,61.244488,,,,,,,,,,,,,,w,1,1.6011,2.170159856,1,1,8,1,33,3,1,,,,,,,,,,,,,,
,,,,,,,,,,,left.png,,w,left,614d2176e7d39d8826847a43,2021-10-21_20h15.24.914,arrow_simon_punish,2021.1.2,Win32,61.244488,,,,,,,,,,,,,,w,1,1.7195,2.028935187,1,1,8,2,34,2,1,,,,,,,,,,,,,,
,,,,,,,,,,,left.png,,w,left,614d2176e7d39d8826847a43,2021-10-21_20h15.24.914,arrow_simon_punish,2021.1.2,Win32,61.244488,,,,,,,,,,,,,,w,1,1.5519,1.948686863,0,1,8,3,35,2,1,,,,,,,,,,,,,,
,,,,,,,,,,,right.png,,p,left,614d2176e7d39d8826847a43,2021-10-21_20h15.24.914,arrow_simon_punish,2021.1.2,Win32,61.244488,,,,,,,,,,,,,,p,1,1.4262,1.521383298,0,1,9,0,36,0,1,,,,,,,,,,,,,,
,,,,,,,,,,,right.png,,p,left,614d2176e7d39d8826847a43,2021-10-21_20h15.24.914,arrow_simon_punish,2021.1.2,Win32,61.244488,,,,,,,,,,,,,,w,0,1.4402,2.090915711,1,1,9,1,37,0,1,,,,,,,,,,,,,,
,,,,,,,,,,,right.png,,p,right,614d2176e7d39d8826847a43,2021-10-21_20h15.24.914,arrow_simon_punish,2021.1.2,Win32,61.244488,,,,,,,,,,,,,,p,1,1.5254,2.271554922,0,1,9,2,38,1,1,,,,,,,,,,,,,,
,,,,,,,,,,,right.png,,p,left,614d2176e7d39d8826847a43,2021-10-21_20h15.24.914,arrow_simon_punish,2021.1.2,Win32,61.244488,,,,,,,,,,,,,,p,1,1.5024,1.615094532,0,1,9,3,39,0,1,,,,,,,,,,,,,,
,,,,,,,,,,,left.png,,w,left,614d2176e7d39d8826847a43,2021-10-21_20h15.24.914,arrow_simon_punish,2021.1.2,Win32,61.244488,,,,,,,,,,,,,,p,0,1.5367,2.400466389,1,1,10,0,40,2,1,,,,,,,,,,,,,,
,,,,,,,,,,,left.png,,w,right,614d2176e7d39d8826847a43,2021-10-21_20h15.24.914,arrow_simon_punish,2021.1.2,Win32,61.244488,,,,,,,,,,,,,,p,0,1.6277,2.329146469,1,1,10,1,41,3,1,,,,,,,,,,,,,,
,,,,,,,,,,,right.png,,p,right,614d2176e7d39d8826847a43,2021-10-21_20h15.24.914,arrow_simon_punish,2021.1.2,Win32,61.244488,,,,,,,,,,,,,,p,1,1.535,2.393566253,0,1,10,2,42,1,1,,,,,,,,,,,,,,
,,,,,,,,,,,right.png,,p,right,614d2176e7d39d8826847a43,2021-10-21_20h15.24.914,arrow_simon_punish,2021.1.2,Win32,61.244488,,,,,,,,,,,,,,p,1,1.5188,1.975233608,0,1,10,3,43,1,1,,,,,,,,,,,,,,
,,,,,,,,,,,left.png,,w,left,614d2176e7d39d8826847a43,2021-10-21_20h15.24.914,arrow_simon_punish,2021.1.2,Win32,61.244488,,,,,,,,,,,,,,p,0,1.6103,2.481147566,1,1,11,0,44,2,1,,,,,,,,,,,,,,
,,,,,,,,,,,right.png,,p,right,614d2176e7d39d8826847a43,2021-10-21_20h15.24.914,arrow_simon_punish,2021.1.2,Win32,61.244488,,,,,,,,,,,,,,p,1,1.456,1.970557002,0,1,11,1,45,1,1,,,,,,,,,,,,,,
,,,,,,,,,,,left.png,,w,right,614d2176e7d39d8826847a43,2021-10-21_20h15.24.914,arrow_simon_punish,2021.1.2,Win32,61.244488,,,,,,,,,,,,,,w,1,1.5092,1.905861606,0,1,11,2,46,3,1,,,,,,,,,,,,,,
,,,,,,,,,,,right.png,,p,right,614d2176e7d39d8826847a43,2021-10-21_20h15.24.914,arrow_simon_punish,2021.1.2,Win32,61.244488,,,,,,,,,,,,,,p,1,1.5445,2.476493952,0,1,11,3,47,1,1,,,,,,,,,,,,,,
,,,,,,,,,,,left.png,,w,right,614d2176e7d39d8826847a43,2021-10-21_20h15.24.914,arrow_simon_punish,2021.1.2,Win32,61.244488,,,,,,,,,,,,,,w,1,1.5023,1.791570324,0,1,12,0,48,3,1,,,,,,,,,,,,,,
,,,,,,,,,,,right.png,,p,left,614d2176e7d39d8826847a43,2021-10-21_20h15.24.914,arrow_simon_punish,2021.1.2,Win32,61.244488,,,,,,,,,,,,,,p,1,1.478,2.431629952,0,1,12,1,49,0,1,,,,,,,,,,,,,,
,,,,,,,,,,,left.png,,w,right,614d2176e7d39d8826847a43,2021-10-21_20h15.24.914,arrow_simon_punish,2021.1.2,Win32,61.244488,,,,,,,,,,,,,,p,0,1.4404,2.13094262,1,1,12,2,50,3,1,,,,,,,,,,,,,,
,,,,,,,,,,,right.png,,p,right,614d2176e7d39d8826847a43,2021-10-21_20h15.24.914,arrow_simon_punish,2021.1.2,Win32,61.244488,,,,,,,,,,,,,,p,1,1.469,2.171261416,0,1,12,3,51,1,1,,,,,,,,,,,,,,
,,,,,,,,,,,left.png,,w,left,614d2176e7d39d8826847a43,2021-10-21_20h15.24.914,arrow_simon_punish,2021.1.2,Win32,61.244488,,,,,,,,,,,,,,w,1,1.5519,1.745919364,0,1,13,0,52,2,1,,,,,,,,,,,,,,
,,,,,,,,,,,right.png,,p,left,614d2176e7d39d8826847a43,2021-10-21_20h15.24.914,arrow_simon_punish,2021.1.2,Win32,61.244488,,,,,,,,,,,,,,p,1,1.5202,2.065525088,0,1,13,1,53,0,1,,,,,,,,,,,,,,
,,,,,,,,,,,right.png,,p,left,614d2176e7d39d8826847a43,2021-10-21_20h15.24.914,arrow_simon_punish,2021.1.2,Win32,61.244488,,,,,,,,,,,,,,p,1,1.6121,2.026869402,1,1,13,2,54,0,1,,,,,,,,,,,,,,
,,,,,,,,,,,right.png,,p,left,614d2176e7d39d8826847a43,2021-10-21_20h15.24.914,arrow_simon_punish,2021.1.2,Win32,61.244488,,,,,,,,,,,,,,p,1,1.5521,2.331849342,0,1,13,3,55,0,1,,,,,,,,,,,,,,
,,,,,,,,,,,right.png,,p,right,614d2176e7d39d8826847a43,2021-10-21_20h15.24.914,arrow_simon_punish,2021.1.2,Win32,61.244488,,,,,,,,,,,,,,p,1,1.4561,1.975054295,0,1,14,0,56,1,1,,,,,,,,,,,,,,
,,,,,,,,,,,right.png,,p,right,614d2176e7d39d8826847a43,2021-10-21_20h15.24.914,arrow_simon_punish,2021.1.2,Win32,61.244488,,,,,,,,,,,,,,p,1,1.4571,2.433249178,0,1,14,1,57,1,1,,,,,,,,,,,,,,
,,,,,,,,,,,left.png,,w,right,614d2176e7d39d8826847a43,2021-10-21_20h15.24.914,arrow_simon_punish,2021.1.2,Win32,61.244488,,,,,,,,,,,,,,w,1,1.5255,2.266363697,0,1,14,2,58,3,1,,,,,,,,,,,,,,
,,,,,,,,,,,left.png,,w,right,614d2176e7d39d8826847a43,2021-10-21_20h15.24.914,arrow_simon_punish,2021.1.2,Win32,61.244488,,,,,,,,,,,,,,w,1,1.5584,1.608635426,0,1,14,3,59,3,1,,,,,,,,,,,,,,
,,,,,,,,,,,,,,,614d2176e7d39d8826847a43,2021-10-21_20h15.24.914,arrow_simon_punish,2021.1.2,Win32,61.244488,,,,,,,,,,,,,,,,,,,,,,,,,space,3.6244,6,2,0,4,0,1,1,,,,,
,,,,,,,,,,,left.png,,w,right,614d2176e7d39d8826847a43,2021-10-21_20h15.24.914,arrow_simon_punish,2021.1.2,Win32,61.244488,,,,,,,,,,,,,,w,1,1.4913,1.580633763,0,5,0,0,0,3,1,,,,,,,,,,,,,,
,,,,,,,,,,,left.png,,w,right,614d2176e7d39d8826847a43,2021-10-21_20h15.24.914,arrow_simon_punish,2021.1.2,Win32,61.244488,,,,,,,,,,,,,,w,1,1.5109,1.719646388,0,5,0,1,1,3,1,,,,,,,,,,,,,,
,,,,,,,,,,,left.png,,w,right,614d2176e7d39d8826847a43,2021-10-21_20h15.24.914,arrow_simon_punish,2021.1.2,Win32,61.244488,,,,,,,,,,,,,,w,1,1.4726,1.852586128,0,5,0,2,2,3,1,,,,,,,,,,,,,,
,,,,,,,,,,,left.png,,w,left,614d2176e7d39d8826847a43,2021-10-21_20h15.24.914,arrow_simon_punish,2021.1.2,Win32,61.244488,,,,,,,,,,,,,,p,0,1.4849,2.448431374,1,5,0,3,3,2,1,,,,,,,,,,,,,,
,,,,,,,,,,,right.png,,p,left,614d2176e7d39d8826847a43,2021-10-21_20h15.24.914,arrow_simon_punish,2021.1.2,Win32,61.244488,,,,,,,,,,,,,,p,1,1.4885,2.320924911,0,5,1,0,4,0,1,,,,,,,,,,,,,,
,,,,,,,,,,,left.png,,w,right,614d2176e7d39d8826847a43,2021-10-21_20h15.24.914,arrow_simon_punish,2021.1.2,Win32,61.244488,,,,,,,,,,,,,,w,1,1.4844,1.789719113,0,5,1,1,5,3,1,,,,,,,,,,,,,,
,,,,,,,,,,,left.png,,w,right,614d2176e7d39d8826847a43,2021-10-21_20h15.24.914,arrow_simon_punish,2021.1.2,Win32,61.244488,,,,,,,,,,,,,,p,0,1.5017,2.290882923,1,5,1,2,6,3,1,,,,,,,,,,,,,,
,,,,,,,,,,,left.png,,w,left,614d2176e7d39d8826847a43,2021-10-21_20h15.24.914,arrow_simon_punish,2021.1.2,Win32,61.244488,,,,,,,,,,,,,,w,1,1.4755,1.781574447,0,5,1,3,7,2,1,,,,,,,,,,,,,,
,,,,,,,,,,,left.png,,w,left,614d2176e7d39d8826847a43,2021-10-21_20h15.24.914,arrow_simon_punish,2021.1.2,Win32,61.244488,,,,,,,,,,,,,,w,1,1.4858,1.965778071,0,5,2,0,8,2,1,,,,,,,,,,,,,,
,,,,,,,,,,,left.png,,w,right,614d2176e7d39d8826847a43,2021-10-21_20h15.24.914,arrow_simon_punish,2021.1.2,Win32,61.244488,,,,,,,,,,,,,,w,1,1.4346,1.965854566,0,5,2,1,9,3,1,,,,,,,,,,,,,,
,,,,,,,,,,,right.png,,p,left,614d2176e7d39d8826847a43,2021-10-21_20h15.24.914,arrow_simon_punish,2021.1.2,Win32,61.244488,,,,,,,,,,,,,,p,1,1.4721,2.254973386,0,5,2,2,10,0,1,,,,,,,,,,,,,,
,,,,,,,,,,,right.png,,p,left,614d2176e7d39d8826847a43,2021-10-21_20h15.24.914,arrow_simon_punish,2021.1.2,Win32,61.244488,,,,,,,,,,,,,,w,0,1.5405,2.307464776,1,5,2,3,11,0,1,,,,,,,,,,,,,,
,,,,,,,,,,,right.png,,p,right,614d2176e7d39d8826847a43,2021-10-21_20h15.24.914,arrow_simon_punish,2021.1.2,Win32,61.244488,,,,,,,,,,,,,,p,1,1.2014,2.021482017,1,5,3,0,12,1,1,,,,,,,,,,,,,,
,,,,,,,,,,,right.png,,p,right,614d2176e7d39d8826847a43,2021-10-21_20h15.24.914,arrow_simon_punish,2021.1.2,Win32,61.244488,,,,,,,,,,,,,,p,1,1.6514,2.329948005,1,5,3,1,13,1,1,,,,,,,,,,,,,,
,,,,,,,,,,,right.png,,p,left,614d2176e7d39d8826847a43,2021-10-21_20h15.24.914,arrow_simon_punish,2021.1.2,Win32,61.244488,,,,,,,,,,,,,,p,1,1.3873,1.529210148,1,5,3,2,14,0,1,,,,,,,,,,,,,,
,,,,,,,,,,,left.png,,w,left,614d2176e7d39d8826847a43,2021-10-21_20h15.24.914,arrow_simon_punish,2021.1.2,Win32,61.244488,,,,,,,,,,,,,,p,0,1.4778,2.404139697,1,5,3,3,15,2,1,,,,,,,,,,,,,,
,,,,,,,,,,,right.png,,p,right,614d2176e7d39d8826847a43,2021-10-21_20h15.24.914,arrow_simon_punish,2021.1.2,Win32,61.244488,,,,,,,,,,,,,,p,1,1.5349,2.49071775,0,5,4,0,16,1,1,,,,,,,,,,,,,,
,,,,,,,,,,,left.png,,w,right,614d2176e7d39d8826847a43,2021-10-21_20h15.24.914,arrow_simon_punish,2021.1.2,Win32,61.244488,,,,,,,,,,,,,,w,1,1.4594,1.943590711,0,5,4,1,17,3,1,,,,,,,,,,,,,,
,,,,,,,,,,,right.png,,p,left,614d2176e7d39d8826847a43,2021-10-21_20h15.24.914,arrow_simon_punish,2021.1.2,Win32,61.244488,,,,,,,,,,,,,,w,0,1.4687,2.128895612,1,5,4,2,18,0,1,,,,,,,,,,,,,,
,,,,,,,,,,,right.png,,p,right,614d2176e7d39d8826847a43,2021-10-21_20h15.24.914,arrow_simon_punish,2021.1.2,Win32,61.244488,,,,,,,,,,,,,,p,1,1.4754,1.929198392,0,5,4,3,19,1,1,,,,,,,,,,,,,,
,,,,,,,,,,,right.png,,p,right,614d2176e7d39d8826847a43,2021-10-21_20h15.24.914,arrow_simon_punish,2021.1.2,Win32,61.244488,,,,,,,,,,,,,,w,0,1.4849,2.224757421,1,5,5,0,20,1,1,,,,,,,,,,,,,,
,,,,,,,,,,,right.png,,p,left,614d2176e7d39d8826847a43,2021-10-21_20h15.24.914,arrow_simon_punish,2021.1.2,Win32,61.244488,,,,,,,,,,,,,,p,1,1.5385,2.464873133,0,5,5,1,21,0,1,,,,,,,,,,,,,,
,,,,,,,,,,,left.png,,w,left,614d2176e7d39d8826847a43,2021-10-21_20h15.24.914,arrow_simon_punish,2021.1.2,Win32,61.244488,,,,,,,,,,,,,,w,1,1.5105,1.863039396,0,5,5,2,22,2,1,,,,,,,,,,,,,,
,,,,,,,,,,,left.png,,w,left,614d2176e7d39d8826847a43,2021-10-21_20h15.24.914,arrow_simon_punish,2021.1.2,Win32,61.244488,,,,,,,,,,,,,,w,1,1.486,1.91680592,0,5,5,3,23,2,1,,,,,,,,,,,,,,
,,,,,,,,,,,left.png,,w,right,614d2176e7d39d8826847a43,2021-10-21_20h15.24.914,arrow_simon_punish,2021.1.2,Win32,61.244488,,,,,,,,,,,,,,w,1,1.4932,1.662305663,0,5,6,0,24,3,1,,,,,,,,,,,,,,
,,,,,,,,,,,left.png,,w,left,614d2176e7d39d8826847a43,2021-10-21_20h15.24.914,arrow_simon_punish,2021.1.2,Win32,61.244488,,,,,,,,,,,,,,w,1,1.4377,1.642333371,0,5,6,1,25,2,1,,,,,,,,,,,,,,
,,,,,,,,,,,right.png,,p,left,614d2176e7d39d8826847a43,2021-10-21_20h15.24.914,arrow_simon_punish,2021.1.2,Win32,61.244488,,,,,,,,,,,,,,p,1,1.3284,1.887150519,1,5,6,2,26,0,1,,,,,,,,,,,,,,
,,,,,,,,,,,left.png,,w,left,614d2176e7d39d8826847a43,2021-10-21_20h15.24.914,arrow_simon_punish,2021.1.2,Win32,61.244488,,,,,,,,,,,,,,w,1,1.6224,2.203179914,1,5,6,3,27,2,1,,,,,,,,,,,,,,
,,,,,,,,,,,left.png,,w,left,614d2176e7d39d8826847a43,2021-10-21_20h15.24.914,arrow_simon_punish,2021.1.2,Win32,61.244488,,,,,,,,,,,,,,p,0,1.5013,2.389276113,1,5,7,0,28,2,1,,,,,,,,,,,,,,
,,,,,,,,,,,right.png,,p,right,614d2176e7d39d8826847a43,2021-10-21_20h15.24.914,arrow_simon_punish,2021.1.2,Win32,61.244488,,,,,,,,,,,,,,p,1,1.5425,1.77206215,0,5,7,1,29,1,1,,,,,,,,,,,,,,
,,,,,,,,,,,left.png,,w,right,614d2176e7d39d8826847a43,2021-10-21_20h15.24.914,arrow_simon_punish,2021.1.2,Win32,61.244488,,,,,,,,,,,,,,p,0,1.5198,2.207592864,1,5,7,2,30,3,1,,,,,,,,,,,,,,
,,,,,,,,,,,right.png,,p,left,614d2176e7d39d8826847a43,2021-10-21_20h15.24.914,arrow_simon_punish,2021.1.2,Win32,61.244488,,,,,,,,,,,,,,p,1,1.4783,2.357375927,0,5,7,3,31,0,1,,,,,,,,,,,,,,
,,,,,,,,,,,left.png,,w,left,614d2176e7d39d8826847a43,2021-10-21_20h15.24.914,arrow_simon_punish,2021.1.2,Win32,61.244488,,,,,,,,,,,,,,p,0,1.5014,2.266866874,1,5,8,0,32,2,1,,,,,,,,,,,,,,
,,,,,,,,,,,right.png,,p,left,614d2176e7d39d8826847a43,2021-10-21_20h15.24.914,arrow_simon_punish,2021.1.2,Win32,61.244488,,,,,,,,,,,,,,p,1,1.4184,1.513778838,0,5,8,1,33,0,1,,,,,,,,,,,,,,
,,,,,,,,,,,right.png,,p,right,614d2176e7d39d8826847a43,2021-10-21_20h15.24.914,arrow_simon_punish,2021.1.2,Win32,61.244488,,,,,,,,,,,,,,p,1,1.5357,1.747277091,0,5,8,2,34,1,1,,,,,,,,,,,,,,
,,,,,,,,,,,right.png,,p,left,614d2176e7d39d8826847a43,2021-10-21_20h15.24.914,arrow_simon_punish,2021.1.2,Win32,61.244488,,,,,,,,,,,,,,w,0,1.4598,2.097182429,1,5,8,3,35,0,1,,,,,,,,,,,,,,
,,,,,,,,,,,left.png,,w,left,614d2176e7d39d8826847a43,2021-10-21_20h15.24.914,arrow_simon_punish,2021.1.2,Win32,61.244488,,,,,,,,,,,,,,w,1,1.3933,1.55261892,1,5,9,0,36,2,1,,,,,,,,,,,,,,
,,,,,,,,,,,left.png,,w,right,614d2176e7d39d8826847a43,2021-10-21_20h15.24.914,arrow_simon_punish,2021.1.2,Win32,61.244488,,,,,,,,,,,,,,w,1,1.5185,1.994517589,0,5,9,1,37,3,1,,,,,,,,,,,,,,
,,,,,,,,,,,right.png,,p,right,614d2176e7d39d8826847a43,2021-10-21_20h15.24.914,arrow_simon_punish,2021.1.2,Win32,61.244488,,,,,,,,,,,,,,p,1,1.5197,2.242614357,0,5,9,2,38,1,1,,,,,,,,,,,,,,
,,,,,,,,,,,left.png,,w,right,614d2176e7d39d8826847a43,2021-10-21_20h15.24.914,arrow_simon_punish,2021.1.2,Win32,61.244488,,,,,,,,,,,,,,w,1,1.4185,1.650436704,0,5,9,3,39,3,1,,,,,,,,,,,,,,
,,,,,,,,,,,left.png,,w,left,614d2176e7d39d8826847a43,2021-10-21_20h15.24.914,arrow_simon_punish,2021.1.2,Win32,61.244488,,,,,,,,,,,,,,w,1,1.4556,1.749864824,0,5,10,0,40,2,1,,,,,,,,,,,,,,
,,,,,,,,,,,right.png,,p,right,614d2176e7d39d8826847a43,2021-10-21_20h15.24.914,arrow_simon_punish,2021.1.2,Win32,61.244488,,,,,,,,,,,,,,p,1,1.5902,2.468346279,0,5,10,1,41,1,1,,,,,,,,,,,,,,
,,,,,,,,,,,right.png,,p,right,614d2176e7d39d8826847a43,2021-10-21_20h15.24.914,arrow_simon_punish,2021.1.2,Win32,61.244488,,,,,,,,,,,,,,p,1,1.3185,1.712087074,1,5,10,2,42,1,1,,,,,,,,,,,,,,
,,,,,,,,,,,right.png,,p,right,614d2176e7d39d8826847a43,2021-10-21_20h15.24.914,arrow_simon_punish,2021.1.2,Win32,61.244488,,,,,,,,,,,,,,p,1,1.3853,1.63316174,1,5,10,3,43,1,1,,,,,,,,,,,,,,
,,,,,,,,,,,left.png,,w,right,614d2176e7d39d8826847a43,2021-10-21_20h15.24.914,arrow_simon_punish,2021.1.2,Win32,61.244488,,,,,,,,,,,,,,p,0,1.5222,2.300917111,1,5,11,0,44,3,1,,,,,,,,,,,,,,
,,,,,,,,,,,right.png,,p,left,614d2176e7d39d8826847a43,2021-10-21_20h15.24.914,arrow_simon_punish,2021.1.2,Win32,61.244488,,,,,,,,,,,,,,p,1,1.5431,2.433586384,0,5,11,1,45,0,1,,,,,,,,,,,,,,
,,,,,,,,,,,right.png,,p,left,614d2176e7d39d8826847a43,2021-10-21_20h15.24.914,arrow_simon_punish,2021.1.2,Win32,61.244488,,,,,,,,,,,,,,p,1,1.5013,2.138122746,0,5,11,2,46,0,1,,,,,,,,,,,,,,
,,,,,,,,,,,right.png,,p,right,614d2176e7d39d8826847a43,2021-10-21_20h15.24.914,arrow_simon_punish,2021.1.2,Win32,61.244488,,,,,,,,,,,,,,p,1,1.4591,1.541355873,0,5,11,3,47,1,1,,,,,,,,,,,,,,
,,,,,,,,,,,left.png,,w,right,614d2176e7d39d8826847a43,2021-10-21_20h15.24.914,arrow_simon_punish,2021.1.2,Win32,61.244488,,,,,,,,,,,,,,w,1,1.5607,1.923006447,0,5,12,0,48,3,1,,,,,,,,,,,,,,
,,,,,,,,,,,right.png,,p,left,614d2176e7d39d8826847a43,2021-10-21_20h15.24.914,arrow_simon_punish,2021.1.2,Win32,61.244488,,,,,,,,,,,,,,p,1,1.5751,2.357858232,0,5,12,1,49,0,1,,,,,,,,,,,,,,
,,,,,,,,,,,right.png,,p,left,614d2176e7d39d8826847a43,2021-10-21_20h15.24.914,arrow_simon_punish,2021.1.2,Win32,61.244488,,,,,,,,,,,,,,p,1,1.2424,1.723212719,1,5,12,2,50,0,1,,,,,,,,,,,,,,
,,,,,,,,,,,left.png,,w,left,614d2176e7d39d8826847a43,2021-10-21_20h15.24.914,arrow_simon_punish,2021.1.2,Win32,61.244488,,,,,,,,,,,,,,p,0,1.6685,2.288903796,1,5,12,3,51,2,1,,,,,,,,,,,,,,
,,,,,,,,,,,right.png,,p,right,614d2176e7d39d8826847a43,2021-10-21_20h15.24.914,arrow_simon_punish,2021.1.2,Win32,61.244488,,,,,,,,,,,,,,p,1,1.5346,1.981719548,0,5,13,0,52,1,1,,,,,,,,,,,,,,
,,,,,,,,,,,right.png,,p,right,614d2176e7d39d8826847a43,2021-10-21_20h15.24.914,arrow_simon_punish,2021.1.2,Win32,61.244488,,,,,,,,,,,,,,p,1,1.5516,1.89732429,0,5,13,1,53,1,1,,,,,,,,,,,,,,
,,,,,,,,,,,right.png,,p,left,614d2176e7d39d8826847a43,2021-10-21_20h15.24.914,arrow_simon_punish,2021.1.2,Win32,61.244488,,,,,,,,,,,,,,p,1,1.5683,2.367282192,0,5,13,2,54,0,1,,,,,,,,,,,,,,
,,,,,,,,,,,left.png,,w,left,614d2176e7d39d8826847a43,2021-10-21_20h15.24.914,arrow_simon_punish,2021.1.2,Win32,61.244488,,,,,,,,,,,,,,w,1,1.4415,1.586800101,0,5,13,3,55,2,1,,,,,,,,,,,,,,
,,,,,,,,,,,right.png,,p,right,614d2176e7d39d8826847a43,2021-10-21_20h15.24.914,arrow_simon_punish,2021.1.2,Win32,61.244488,,,,,,,,,,,,,,p,1,1.5265,1.731408403,0,5,14,0,56,1,1,,,,,,,,,,,,,,
,,,,,,,,,,,left.png,,w,right,614d2176e7d39d8826847a43,2021-10-21_20h15.24.914,arrow_simon_punish,2021.1.2,Win32,61.244488,,,,,,,,,,,,,,w,1,1.4541,1.783870345,0,5,14,1,57,3,1,,,,,,,,,,,,,,
,,,,,,,,,,,left.png,,w,left,614d2176e7d39d8826847a43,2021-10-21_20h15.24.914,arrow_simon_punish,2021.1.2,Win32,61.244488,,,,,,,,,,,,,,p,0,1.5233,2.198661158,1,5,14,2,58,2,1,,,,,,,,,,,,,,
,,,,,,,,,,,left.png,,w,right,614d2176e7d39d8826847a43,2021-10-21_20h15.24.914,arrow_simon_punish,2021.1.2,Win32,61.244488,,,,,,,,,,,,,,w,1,1.4693,1.630882839,0,5,14,3,59,3,1,,,,,,,,,,,,,,
,,,,,,,,,,,,,,,614d2176e7d39d8826847a43,2021-10-21_20h15.24.914,arrow_simon_punish,2021.1.2,Win32,61.244488,,,,,,,,,,,,,,,,,,,,,,,,,space,258.7462,7,2,1,5,1,1,5,,,,,
,,,,,,,,,,,right.png,,p,right,614d2176e7d39d8826847a43,2021-10-21_20h15.24.914,arrow_simon_punish,2021.1.2,Win32,61.244488,,,,,,,,,,,,,,p,1,1.724,2.444367549,1,1,0,0,0,1,1,,,,,,,,,,,,,,
,,,,,,,,,,,left.png,,w,right,614d2176e7d39d8826847a43,2021-10-21_20h15.24.914,arrow_simon_punish,2021.1.2,Win32,61.244488,,,,,,,,,,,,,,w,1,1.5891,1.804285764,0,1,0,1,1,3,1,,,,,,,,,,,,,,
,,,,,,,,,,,left.png,,w,left,614d2176e7d39d8826847a43,2021-10-21_20h15.24.914,arrow_simon_punish,2021.1.2,Win32,61.244488,,,,,,,,,,,,,,w,1,1.5397,2.127761728,0,1,0,2,2,2,1,,,,,,,,,,,,,,
,,,,,,,,,,,left.png,,w,right,614d2176e7d39d8826847a43,2021-10-21_20h15.24.914,arrow_simon_punish,2021.1.2,Win32,61.244488,,,,,,,,,,,,,,w,1,1.4956,1.804865325,0,1,0,3,3,3,1,,,,,,,,,,,,,,
,,,,,,,,,,,left.png,,w,left,614d2176e7d39d8826847a43,2021-10-21_20h15.24.914,arrow_simon_punish,2021.1.2,Win32,61.244488,,,,,,,,,,,,,,w,1,1.5928,2.280467105,0,1,1,0,4,2,1,,,,,,,,,,,,,,
,,,,,,,,,,,right.png,,p,left,614d2176e7d39d8826847a43,2021-10-21_20h15.24.914,arrow_simon_punish,2021.1.2,Win32,61.244488,,,,,,,,,,,,,,p,1,1.4539,1.867768353,0,1,1,1,5,0,1,,,,,,,,,,,,,,
,,,,,,,,,,,left.png,,w,left,614d2176e7d39d8826847a43,2021-10-21_20h15.24.914,arrow_simon_punish,2021.1.2,Win32,61.244488,,,,,,,,,,,,,,w,1,1.554,2.243420758,0,1,1,2,6,2,1,,,,,,,,,,,,,,
,,,,,,,,,,,left.png,,w,right,614d2176e7d39d8826847a43,2021-10-21_20h15.24.914,arrow_simon_punish,2021.1.2,Win32,61.244488,,,,,,,,,,,,,,w,1,1.4688,1.707221109,0,1,1,3,7,3,1,,,,,,,,,,,,,,
,,,,,,,,,,,left.png,,w,right,614d2176e7d39d8826847a43,2021-10-21_20h15.24.914,arrow_simon_punish,2021.1.2,Win32,61.244488,,,,,,,,,,,,,,w,1,1.4439,1.573458724,0,1,2,0,8,3,1,,,,,,,,,,,,,,
,,,,,,,,,,,right.png,,p,right,614d2176e7d39d8826847a43,2021-10-21_20h15.24.914,arrow_simon_punish,2021.1.2,Win32,61.244488,,,,,,,,,,,,,,p,1,1.4548,1.866744896,0,1,2,1,9,1,1,,,,,,,,,,,,,,
,,,,,,,,,,,right.png,,p,left,614d2176e7d39d8826847a43,2021-10-21_20h15.24.914,arrow_simon_punish,2021.1.2,Win32,61.244488,,,,,,,,,,,,,,p,1,1.5259,1.889849413,0,1,2,2,10,0,1,,,,,,,,,,,,,,
,,,,,,,,,,,left.png,,w,right,614d2176e7d39d8826847a43,2021-10-21_20h15.24.914,arrow_simon_punish,2021.1.2,Win32,61.244488,,,,,,,,,,,,,,p,0,1.4725,2.179366966,1,1,2,3,11,3,1,,,,,,,,,,,,,,
,,,,,,,,,,,right.png,,p,right,614d2176e7d39d8826847a43,2021-10-21_20h15.24.914,arrow_simon_punish,2021.1.2,Win32,61.244488,,,,,,,,,,,,,,p,1,1.5527,1.588356799,0,1,3,0,12,1,1,,,,,,,,,,,,,,
,,,,,,,,,,,left.png,,w,left,614d2176e7d39d8826847a43,2021-10-21_20h15.24.914,arrow_simon_punish,2021.1.2,Win32,61.244488,,,,,,,,,,,,,,p,0,1.5207,2.450669411,1,1,3,1,13,2,1,,,,,,,,,,,,,,
,,,,,,,,,,,right.png,,p,right,614d2176e7d39d8826847a43,2021-10-21_20h15.24.914,arrow_simon_punish,2021.1.2,Win32,61.244488,,,,,,,,,,,,,,p,1,1.468,1.530291527,0,1,3,2,14,1,1,,,,,,,,,,,,,,
,,,,,,,,,,,left.png,,w,left,614d2176e7d39d8826847a43,2021-10-21_20h15.24.914,arrow_simon_punish,2021.1.2,Win32,61.244488,,,,,,,,,,,,,,w,1,1.4426,1.585535063,0,1,3,3,15,2,1,,,,,,,,,,,,,,
,,,,,,,,,,,right.png,,p,right,614d2176e7d39d8826847a43,2021-10-21_20h15.24.914,arrow_simon_punish,2021.1.2,Win32,61.244488,,,,,,,,,,,,,,p,1,1.5284,1.887851503,0,1,4,0,16,1,1,,,,,,,,,,,,,,
,,,,,,,,,,,left.png,,w,left,614d2176e7d39d8826847a43,2021-10-21_20h15.24.914,arrow_simon_punish,2021.1.2,Win32,61.244488,,,,,,,,,,,,,,w,1,1.5615,1.91617591,0,1,4,1,17,2,1,,,,,,,,,,,,,,
,,,,,,,,,,,right.png,,p,left,614d2176e7d39d8826847a43,2021-10-21_20h15.24.914,arrow_simon_punish,2021.1.2,Win32,61.244488,,,,,,,,,,,,,,p,1,1.4737,1.819015705,0,1,4,2,18,0,1,,,,,,,,,,,,,,
,,,,,,,,,,,left.png,,w,right,614d2176e7d39d8826847a43,2021-10-21_20h15.24.914,arrow_simon_punish,2021.1.2,Win32,61.244488,,,,,,,,,,,,,,w,1,1.4964,1.779493196,0,1,4,3,19,3,1,,,,,,,,,,,,,,
,,,,,,,,,,,left.png,,w,left,614d2176e7d39d8826847a43,2021-10-21_20h15.24.914,arrow_simon_punish,2021.1.2,Win32,61.244488,,,,,,,,,,,,,,p,0,1.5187,2.309655116,1,1,5,0,20,2,1,,,,,,,,,,,,,,
,,,,,,,,,,,right.png,,p,right,614d2176e7d39d8826847a43,2021-10-21_20h15.24.914,arrow_simon_punish,2021.1.2,Win32,61.244488,,,,,,,,,,,,,,p,1,1.4606,1.709463051,0,1,5,1,21,1,1,,,,,,,,,,,,,,
,,,,,,,,,,,right.png,,p,left,614d2176e7d39d8826847a43,2021-10-21_20h15.24.914,arrow_simon_punish,2021.1.2,Win32,61.244488,,,,,,,,,,,,,,p,1,1.4706,2.331743212,0,1,5,2,22,0,1,,,,,,,,,,,,,,
,,,,,,,,,,,left.png,,w,left,614d2176e7d39d8826847a43,2021-10-21_20h15.24.914,arrow_simon_punish,2021.1.2,Win32,61.244488,,,,,,,,,,,,,,w,1,1.4685,1.602875481,0,1,5,3,23,2,1,,,,,,,,,,,,,,
,,,,,,,,,,,right.png,,p,right,614d2176e7d39d8826847a43,2021-10-21_20h15.24.914,arrow_simon_punish,2021.1.2,Win32,61.244488,,,,,,,,,,,,,,p,1,1.4728,1.92357837,0,1,6,0,24,1,1,,,,,,,,,,,,,,
,,,,,,,,,,,right.png,,p,left,614d2176e7d39d8826847a43,2021-10-21_20h15.24.914,arrow_simon_punish,2021.1.2,Win32,61.244488,,,,,,,,,,,,,,p,1,1.5015,1.801566459,0,1,6,1,25,0,1,,,,,,,,,,,,,,
,,,,,,,,,,,right.png,,p,right,614d2176e7d39d8826847a43,2021-10-21_20h15.24.914,arrow_simon_punish,2021.1.2,Win32,61.244488,,,,,,,,,,,,,,p,1,1.5515,2.483700852,0,1,6,2,26,1,1,,,,,,,,,,,,,,
,,,,,,,,,,,left.png,,w,right,614d2176e7d39d8826847a43,2021-10-21_20h15.24.914,arrow_simon_punish,2021.1.2,Win32,61.244488,,,,,,,,,,,,,,p,0,1.7116,2.350317835,1,1,6,3,27,3,1,,,,,,,,,,,,,,
,,,,,,,,,,,right.png,,p,right,614d2176e7d39d8826847a43,2021-10-21_20h15.24.914,arrow_simon_punish,2021.1.2,Win32,61.244488,,,,,,,,,,,,,,p,1,1.502,2.20771096,0,1,7,0,28,1,1,,,,,,,,,,,,,,
,,,,,,,,,,,right.png,,p,right,614d2176e7d39d8826847a43,2021-10-21_20h15.24.914,arrow_simon_punish,2021.1.2,Win32,61.244488,,,,,,,,,,,,,,p,1,1.5351,1.610590949,0,1,7,1,29,1,1,,,,,,,,,,,,,,
,,,,,,,,,,,right.png,,p,right,614d2176e7d39d8826847a43,2021-10-21_20h15.24.914,arrow_simon_punish,2021.1.2,Win32,61.244488,,,,,,,,,,,,,,p,1,1.5028,1.675895428,0,1,7,2,30,1,1,,,,,,,,,,,,,,
,,,,,,,,,,,left.png,,w,right,614d2176e7d39d8826847a43,2021-10-21_20h15.24.914,arrow_simon_punish,2021.1.2,Win32,61.244488,,,,,,,,,,,,,,w,1,1.4686,1.530012504,0,1,7,3,31,3,1,,,,,,,,,,,,,,
,,,,,,,,,,,right.png,,p,left,614d2176e7d39d8826847a43,2021-10-21_20h15.24.914,arrow_simon_punish,2021.1.2,Win32,61.244488,,,,,,,,,,,,,,p,1,1.5032,1.638427476,0,1,8,0,32,0,1,,,,,,,,,,,,,,
,,,,,,,,,,,left.png,,w,left,614d2176e7d39d8826847a43,2021-10-21_20h15.24.914,arrow_simon_punish,2021.1.2,Win32,61.244488,,,,,,,,,,,,,,w,1,1.5065,1.956755136,0,1,8,1,33,2,1,,,,,,,,,,,,,,
,,,,,,,,,,,right.png,,p,left,614d2176e7d39d8826847a43,2021-10-21_20h15.24.914,arrow_simon_punish,2021.1.2,Win32,61.244488,,,,,,,,,,,,,,p,1,1.4523,1.771069834,0,1,8,2,34,0,1,,,,,,,,,,,,,,
,,,,,,,,,,,left.png,,w,left,614d2176e7d39d8826847a43,2021-10-21_20h15.24.914,arrow_simon_punish,2021.1.2,Win32,61.244488,,,,,,,,,,,,,,w,1,1.4181,1.55956624,0,1,8,3,35,2,1,,,,,,,,,,,,,,
,,,,,,,,,,,right.png,,p,right,614d2176e7d39d8826847a43,2021-10-21_20h15.24.914,arrow_simon_punish,2021.1.2,Win32,61.244488,,,,,,,,,,,,,,p,1,1.4913,1.837322999,0,1,9,0,36,1,1,,,,,,,,,,,,,,
,,,,,,,,,,,right.png,,p,left,614d2176e7d39d8826847a43,2021-10-21_20h15.24.914,arrow_simon_punish,2021.1.2,Win32,61.244488,,,,,,,,,,,,,,p,1,1.5112,1.738105811,0,1,9,1,37,0,1,,,,,,,,,,,,,,
,,,,,,,,,,,right.png,,p,left,614d2176e7d39d8826847a43,2021-10-21_20h15.24.914,arrow_simon_punish,2021.1.2,Win32,61.244488,,,,,,,,,,,,,,p,1,1.4866,1.67169039,0,1,9,2,38,0,1,,,,,,,,,,,,,,
,,,,,,,,,,,left.png,,w,right,614d2176e7d39d8826847a43,2021-10-21_20h15.24.914,arrow_simon_punish,2021.1.2,Win32,61.244488,,,,,,,,,,,,,,w,1,1.4356,1.657271482,0,1,9,3,39,3,1,,,,,,,,,,,,,,
,,,,,,,,,,,left.png,,w,right,614d2176e7d39d8826847a43,2021-10-21_20h15.24.914,arrow_simon_punish,2021.1.2,Win32,61.244488,,,,,,,,,,,,,,p,0,1.5369,2.430203557,1,1,10,0,40,3,1,,,,,,,,,,,,,,
,,,,,,,,,,,right.png,,p,left,614d2176e7d39d8826847a43,2021-10-21_20h15.24.914,arrow_simon_punish,2021.1.2,Win32,61.244488,,,,,,,,,,,,,,p,1,1.4783,2.339046033,0,1,10,1,41,0,1,,,,,,,,,,,,,,
,,,,,,,,,,,left.png,,w,right,614d2176e7d39d8826847a43,2021-10-21_20h15.24.914,arrow_simon_punish,2021.1.2,Win32,61.244488,,,,,,,,,,,,,,p,0,1.3521,2.030929452,1,1,10,2,42,3,1,,,,,,,,,,,,,,
,,,,,,,,,,,right.png,,p,left,614d2176e7d39d8826847a43,2021-10-21_20h15.24.914,arrow_simon_punish,2021.1.2,Win32,61.244488,,,,,,,,,,,,,,w,0,1.5183,2.491411078,1,1,10,3,43,0,1,,,,,,,,,,,,,,
,,,,,,,,,,,left.png,,w,left,614d2176e7d39d8826847a43,2021-10-21_20h15.24.914,arrow_simon_punish,2021.1.2,Win32,61.244488,,,,,,,,,,,,,,p,0,1.5421,2.315303192,1,1,11,0,44,2,1,,,,,,,,,,,,,,
,,,,,,,,,,,right.png,,p,right,614d2176e7d39d8826847a43,2021-10-21_20h15.24.914,arrow_simon_punish,2021.1.2,Win32,61.244488,,,,,,,,,,,,,,p,1,1.8021,1.910250725,1,1,11,1,45,1,1,,,,,,,,,,,,,,
,,,,,,,,,,,right.png,,p,left,614d2176e7d39d8826847a43,2021-10-21_20h15.24.914,arrow_simon_punish,2021.1.2,Win32,61.244488,,,,,,,,,,,,,,p,1,1.5189,1.506971753,0,1,11,2,46,0,1,,,,,,,,,,,,,,
,,,,,,,,,,,left.png,,w,right,614d2176e7d39d8826847a43,2021-10-21_20h15.24.914,arrow_simon_punish,2021.1.2,Win32,61.244488,,,,,,,,,,,,,,w,1,1.5681,2.322541525,0,1,11,3,47,3,1,,,,,,,,,,,,,,
,,,,,,,,,,,right.png,,p,right,614d2176e7d39d8826847a43,2021-10-21_20h15.24.914,arrow_simon_punish,2021.1.2,Win32,61.244488,,,,,,,,,,,,,,p,1,1.4609,2.02971164,0,1,12,0,48,1,1,,,,,,,,,,,,,,
,,,,,,,,,,,right.png,,p,left,614d2176e7d39d8826847a43,2021-10-21_20h15.24.914,arrow_simon_punish,2021.1.2,Win32,61.244488,,,,,,,,,,,,,,p,1,1.4341,1.582477016,0,1,12,1,49,0,1,,,,,,,,,,,,,,
,,,,,,,,,,,left.png,,w,left,614d2176e7d39d8826847a43,2021-10-21_20h15.24.914,arrow_simon_punish,2021.1.2,Win32,61.244488,,,,,,,,,,,,,,w,1,1.5187,2.275648936,0,1,12,2,50,2,1,,,,,,,,,,,,,,
,,,,,,,,,,,left.png,,w,right,614d2176e7d39d8826847a43,2021-10-21_20h15.24.914,arrow_simon_punish,2021.1.2,Win32,61.244488,,,,,,,,,,,,,,w,1,1.5518,1.823207649,0,1,12,3,51,3,1,,,,,,,,,,,,,,
,,,,,,,,,,,left.png,,w,right,614d2176e7d39d8826847a43,2021-10-21_20h15.24.914,arrow_simon_punish,2021.1.2,Win32,61.244488,,,,,,,,,,,,,,p,0,1.4437,2.36466173,1,1,13,0,52,3,1,,,,,,,,,,,,,,
,,,,,,,,,,,left.png,,w,left,614d2176e7d39d8826847a43,2021-10-21_20h15.24.914,arrow_simon_punish,2021.1.2,Win32,61.244488,,,,,,,,,,,,,,p,0,1.4547,2.060326267,1,1,13,1,53,2,1,,,,,,,,,,,,,,
,,,,,,,,,,,right.png,,p,left,614d2176e7d39d8826847a43,2021-10-21_20h15.24.914,arrow_simon_punish,2021.1.2,Win32,61.244488,,,,,,,,,,,,,,p,1,1.4686,1.656320383,0,1,13,2,54,0,1,,,,,,,,,,,,,,
,,,,,,,,,,,left.png,,w,right,614d2176e7d39d8826847a43,2021-10-21_20h15.24.914,arrow_simon_punish,2021.1.2,Win32,61.244488,,,,,,,,,,,,,,w,1,1.4683,1.870508116,0,1,13,3,55,3,1,,,,,,,,,,,,,,
,,,,,,,,,,,right.png,,p,right,614d2176e7d39d8826847a43,2021-10-21_20h15.24.914,arrow_simon_punish,2021.1.2,Win32,61.244488,,,,,,,,,,,,,,p,1,1.4698,2.375738601,0,1,14,0,56,1,1,,,,,,,,,,,,,,
,,,,,,,,,,,left.png,,w,left,614d2176e7d39d8826847a43,2021-10-21_20h15.24.914,arrow_simon_punish,2021.1.2,Win32,61.244488,,,,,,,,,,,,,,w,1,1.4349,2.072664874,0,1,14,1,57,2,1,,,,,,,,,,,,,,
,,,,,,,,,,,left.png,,w,left,614d2176e7d39d8826847a43,2021-10-21_20h15.24.914,arrow_simon_punish,2021.1.2,Win32,61.244488,,,,,,,,,,,,,,w,1,1.52,2.061654931,0,1,14,2,58,2,1,,,,,,,,,,,,,,
,,,,,,,,,,,right.png,,p,left,614d2176e7d39d8826847a43,2021-10-21_20h15.24.914,arrow_simon_punish,2021.1.2,Win32,61.244488,,,,,,,,,,,,,,p,1,1.4676,1.519294737,0,1,14,3,59,0,1,,,,,,,,,,,,,,
,,,,,,,,,,,,,,,614d2176e7d39d8826847a43,2021-10-21_20h15.24.914,arrow_simon_punish,2021.1.2,Win32,61.244488,,,,,,,,,,,,,,,,,,,,,,,,,space,1.3181,8,3,0,6,0,1,1,,,,,
,,,,,,,,,,,left.png,,w,left,614d2176e7d39d8826847a43,2021-10-21_20h15.24.914,arrow_simon_punish,2021.1.2,Win32,61.244488,,,,,,,,,,,,,,w,1,1.5762,1.90962838,0,5,0,0,0,2,1,,,,,,,,,,,,,,
,,,,,,,,,,,left.png,,w,left,614d2176e7d39d8826847a43,2021-10-21_20h15.24.914,arrow_simon_punish,2021.1.2,Win32,61.244488,,,,,,,,,,,,,,w,1,1.5435,2.000456371,0,5,0,1,1,2,1,,,,,,,,,,,,,,
,,,,,,,,,,,left.png,,w,left,614d2176e7d39d8826847a43,2021-10-21_20h15.24.914,arrow_simon_punish,2021.1.2,Win32,61.244488,,,,,,,,,,,,,,p,0,1.5752,2.417156623,1,5,0,2,2,2,1,,,,,,,,,,,,,,
,,,,,,,,,,,right.png,,p,right,614d2176e7d39d8826847a43,2021-10-21_20h15.24.914,arrow_simon_punish,2021.1.2,Win32,61.244488,,,,,,,,,,,,,,p,1,1.4852,1.662987396,0,5,0,3,3,1,1,,,,,,,,,,,,,,
,,,,,,,,,,,left.png,,w,left,614d2176e7d39d8826847a43,2021-10-21_20h15.24.914,arrow_simon_punish,2021.1.2,Win32,61.244488,,,,,,,,,,,,,,w,1,1.5035,1.690500428,0,5,1,0,4,2,1,,,,,,,,,,,,,,
,,,,,,,,,,,right.png,,p,right,614d2176e7d39d8826847a43,2021-10-21_20h15.24.914,arrow_simon_punish,2021.1.2,Win32,61.244488,,,,,,,,,,,,,,p,1,1.5087,1.724954806,0,5,1,1,5,1,1,,,,,,,,,,,,,,
,,,,,,,,,,,left.png,,w,right,614d2176e7d39d8826847a43,2021-10-21_20h15.24.914,arrow_simon_punish,2021.1.2,Win32,61.244488,,,,,,,,,,,,,,w,1,1.4535,1.540172549,0,5,1,2,6,3,1,,,,,,,,,,,,,,
,,,,,,,,,,,right.png,,p,left,614d2176e7d39d8826847a43,2021-10-21_20h15.24.914,arrow_simon_punish,2021.1.2,Win32,61.244488,,,,,,,,,,,,,,w,0,1.5236,2.153999169,1,5,1,3,7,0,1,,,,,,,,,,,,,,
,,,,,,,,,,,left.png,,w,left,614d2176e7d39d8826847a43,2021-10-21_20h15.24.914,arrow_simon_punish,2021.1.2,Win32,61.244488,,,,,,,,,,,,,,w,1,1.6189,2.219817365,1,5,2,0,8,2,1,,,,,,,,,,,,,,
,,,,,,,,,,,right.png,,p,right,614d2176e7d39d8826847a43,2021-10-21_20h15.24.914,arrow_simon_punish,2021.1.2,Win32,61.244488,,,,,,,,,,,,,,p,1,1.5688,1.873432434,0,5,2,1,9,1,1,,,,,,,,,,,,,,
,,,,,,,,,,,left.png,,w,right,614d2176e7d39d8826847a43,2021-10-21_20h15.24.914,arrow_simon_punish,2021.1.2,Win32,61.244488,,,,,,,,,,,,,,w,1,1.5348,1.981827165,0,5,2,2,10,3,1,,,,,,,,,,,,,,
,,,,,,,,,,,right.png,,p,left,614d2176e7d39d8826847a43,2021-10-21_20h15.24.914,arrow_simon_punish,2021.1.2,Win32,61.244488,,,,,,,,,,,,,,p,1,1.52,2.029864876,0,5,2,3,11,0,1,,,,,,,,,,,,,,
,,,,,,,,,,,right.png,,p,left,614d2176e7d39d8826847a43,2021-10-21_20h15.24.914,arrow_simon_punish,2021.1.2,Win32,61.244488,,,,,,,,,,,,,,p,1,1.5101,1.966993845,0,5,3,0,12,0,1,,,,,,,,,,,,,,
,,,,,,,,,,,right.png,,p,left,614d2176e7d39d8826847a43,2021-10-21_20h15.24.914,arrow_simon_punish,2021.1.2,Win32,61.244488,,,,,,,,,,,,,,p,1,1.4093,1.659169967,0,5,3,1,13,0,1,,,,,,,,,,,,,,
