instruct_resp_simon.keys,instruct_resp_simon.corr,instruct_resp_simon.rt,trial_resp_simon.keys,trial_resp_simon.corr,trial_resp_simon.rt,trials_train_simon.thisRepN,trials_train_simon.thisTrialN,trials_train_simon.thisN,trials_train_simon.thisIndex,trials_train_simon.ran,target_file,target_pos,target_resp,target_side,participant,date,expName,psychopyVersion,OS,frameRate,instruct_resp_timing.keys,instruct_resp_timing.corr,instruct_resp_timing.rt,trial_resp_timing.keys,trial_resp_timing.rt,trials_train_timing.thisRepN,trials_train_timing.thisTrialN,trials_train_timing.thisN,trials_train_timing.thisIndex,trials_train_timing.ran,instruct_resp.keys,instruct_resp.corr,instruct_resp.rt,trial_resp.keys,trial_resp.corr,trial_resp.rt,target_onset,err,pun,trials.thisRepN,trials.thisTrialN,trials.thisN,trials.thisIndex,trials.ran,block_note_resp.keys,block_note_resp.rt,block_num,blocks.thisRepN,blocks.thisTrialN,blocks.thisN,blocks.thisIndex,blocks.ran,punish,complete_resp.keys,complete_resp.rt,raffle_trial,raffle_err,raffle_rew
space,0,31.671,p,1,1.1984,0,0,0,1,1,right.png,,p,right,61525181e018e4f7c9d94299,2021-10-27_09h15.49.547,arrow_simon_punish,2021.1.2,Win32,60.0528465,,,,,,,,,,,,,,,,,,,,,,,,,,,,,,,,,,,,,,
,,,p,1,1.2895,0,1,1,0,1,right.png,,p,left,61525181e018e4f7c9d94299,2021-10-27_09h15.49.547,arrow_simon_punish,2021.1.2,Win32,60.0528465,,,,,,,,,,,,,,,,,,,,,,,,,,,,,,,,,,,,,,
,,,w,1,1.8475,0,2,2,2,1,left.png,,w,left,61525181e018e4f7c9d94299,2021-10-27_09h15.49.547,arrow_simon_punish,2021.1.2,Win32,60.0528465,,,,,,,,,,,,,,,,,,,,,,,,,,,,,,,,,,,,,,
,,,w,1,1.5521,0,3,3,3,1,left.png,,w,right,61525181e018e4f7c9d94299,2021-10-27_09h15.49.547,arrow_simon_punish,2021.1.2,Win32,60.0528465,,,,,,,,,,,,,,,,,,,,,,,,,,,,,,,,,,,,,,
,,,p,1,1.257,1,0,4,1,1,right.png,,p,right,61525181e018e4f7c9d94299,2021-10-27_09h15.49.547,arrow_simon_punish,2021.1.2,Win32,60.0528465,,,,,,,,,,,,,,,,,,,,,,,,,,,,,,,,,,,,,,
,,,w,1,1.4221,1,1,5,3,1,left.png,,w,right,61525181e018e4f7c9d94299,2021-10-27_09h15.49.547,arrow_simon_punish,2021.1.2,Win32,60.0528465,,,,,,,,,,,,,,,,,,,,,,,,,,,,,,,,,,,,,,
,,,p,1,0.8169,1,2,6,0,1,right.png,,p,left,61525181e018e4f7c9d94299,2021-10-27_09h15.49.547,arrow_simon_punish,2021.1.2,Win32,60.0528465,,,,,,,,,,,,,,,,,,,,,,,,,,,,,,,,,,,,,,
,,,w,1,0.7967,1,3,7,2,1,left.png,,w,left,61525181e018e4f7c9d94299,2021-10-27_09h15.49.547,arrow_simon_punish,2021.1.2,Win32,60.0528465,,,,,,,,,,,,,,,,,,,,,,,,,,,,,,,,,,,,,,
,,,p,1,1.1037,2,0,8,0,1,right.png,,p,left,61525181e018e4f7c9d94299,2021-10-27_09h15.49.547,arrow_simon_punish,2021.1.2,Win32,60.0528465,,,,,,,,,,,,,,,,,,,,,,,,,,,,,,,,,,,,,,
,,,p,1,0.769,2,1,9,1,1,right.png,,p,right,61525181e018e4f7c9d94299,2021-10-27_09h15.49.547,arrow_simon_punish,2021.1.2,Win32,60.0528465,,,,,,,,,,,,,,,,,,,,,,,,,,,,,,,,,,,,,,
,,,w,1,0.8732,2,2,10,3,1,left.png,,w,right,61525181e018e4f7c9d94299,2021-10-27_09h15.49.547,arrow_simon_punish,2021.1.2,Win32,60.0528465,,,,,,,,,,,,,,,,,,,,,,,,,,,,,,,,,,,,,,
,,,w,1,0.7371,2,3,11,2,1,left.png,,w,left,61525181e018e4f7c9d94299,2021-10-27_09h15.49.547,arrow_simon_punish,2021.1.2,Win32,60.0528465,,,,,,,,,,,,,,,,,,,,,,,,,,,,,,,,,,,,,,
,,,p,1,1.1365,3,0,12,0,1,right.png,,p,left,61525181e018e4f7c9d94299,2021-10-27_09h15.49.547,arrow_simon_punish,2021.1.2,Win32,60.0528465,,,,,,,,,,,,,,,,,,,,,,,,,,,,,,,,,,,,,,
,,,p,1,0.8534,3,1,13,1,1,right.png,,p,right,61525181e018e4f7c9d94299,2021-10-27_09h15.49.547,arrow_simon_punish,2021.1.2,Win32,60.0528465,,,,,,,,,,,,,,,,,,,,,,,,,,,,,,,,,,,,,,
,,,w,1,1.3839,3,2,14,3,1,left.png,,w,right,61525181e018e4f7c9d94299,2021-10-27_09h15.49.547,arrow_simon_punish,2021.1.2,Win32,60.0528465,,,,,,,,,,,,,,,,,,,,,,,,,,,,,,,,,,,,,,
,,,w,1,0.7408,3,3,15,2,1,left.png,,w,left,61525181e018e4f7c9d94299,2021-10-27_09h15.49.547,arrow_simon_punish,2021.1.2,Win32,60.0528465,,,,,,,,,,,,,,,,,,,,,,,,,,,,,,,,,,,,,,
,,,p,0,1.0371,4,0,16,3,1,left.png,,w,right,61525181e018e4f7c9d94299,2021-10-27_09h15.49.547,arrow_simon_punish,2021.1.2,Win32,60.0528465,,,,,,,,,,,,,,,,,,,,,,,,,,,,,,,,,,,,,,
,,,p,1,0.8476,4,1,17,0,1,right.png,,p,left,61525181e018e4f7c9d94299,2021-10-27_09h15.49.547,arrow_simon_punish,2021.1.2,Win32,60.0528465,,,,,,,,,,,,,,,,,,,,,,,,,,,,,,,,,,,,,,
,,,p,1,0.6215,4,2,18,1,1,right.png,,p,right,61525181e018e4f7c9d94299,2021-10-27_09h15.49.547,arrow_simon_punish,2021.1.2,Win32,60.0528465,,,,,,,,,,,,,,,,,,,,,,,,,,,,,,,,,,,,,,
,,,w,1,1.3459,4,3,19,2,1,left.png,,w,left,61525181e018e4f7c9d94299,2021-10-27_09h15.49.547,arrow_simon_punish,2021.1.2,Win32,60.0528465,,,,,,,,,,,,,,,,,,,,,,,,,,,,,,,,,,,,,,
,,,p,0,1.4332,5,0,20,3,1,left.png,,w,right,61525181e018e4f7c9d94299,2021-10-27_09h15.49.547,arrow_simon_punish,2021.1.2,Win32,60.0528465,,,,,,,,,,,,,,,,,,,,,,,,,,,,,,,,,,,,,,
,,,w,1,1.2329,5,1,21,2,1,left.png,,w,left,61525181e018e4f7c9d94299,2021-10-27_09h15.49.547,arrow_simon_punish,2021.1.2,Win32,60.0528465,,,,,,,,,,,,,,,,,,,,,,,,,,,,,,,,,,,,,,
,,,p,1,1.0894,5,2,22,0,1,right.png,,p,left,61525181e018e4f7c9d94299,2021-10-27_09h15.49.547,arrow_simon_punish,2021.1.2,Win32,60.0528465,,,,,,,,,,,,,,,,,,,,,,,,,,,,,,,,,,,,,,
,,,p,1,1.3351,5,3,23,1,1,right.png,,p,right,61525181e018e4f7c9d94299,2021-10-27_09h15.49.547,arrow_simon_punish,2021.1.2,Win32,60.0528465,,,,,,,,,,,,,,,,,,,,,,,,,,,,,,,,,,,,,,
,,,p,1,1.4472,6,0,24,1,1,right.png,,p,right,61525181e018e4f7c9d94299,2021-10-27_09h15.49.547,arrow_simon_punish,2021.1.2,Win32,60.0528465,,,,,,,,,,,,,,,,,,,,,,,,,,,,,,,,,,,,,,
,,,w,1,1.054,6,1,25,2,1,left.png,,w,left,61525181e018e4f7c9d94299,2021-10-27_09h15.49.547,arrow_simon_punish,2021.1.2,Win32,60.0528465,,,,,,,,,,,,,,,,,,,,,,,,,,,,,,,,,,,,,,
,,,p,1,1.3667,6,2,26,0,1,right.png,,p,left,61525181e018e4f7c9d94299,2021-10-27_09h15.49.547,arrow_simon_punish,2021.1.2,Win32,60.0528465,,,,,,,,,,,,,,,,,,,,,,,,,,,,,,,,,,,,,,
,,,w,1,1.1696,6,3,27,3,1,left.png,,w,right,61525181e018e4f7c9d94299,2021-10-27_09h15.49.547,arrow_simon_punish,2021.1.2,Win32,60.0528465,,,,,,,,,,,,,,,,,,,,,,,,,,,,,,,,,,,,,,
,,,w,1,1.4634,7,0,28,2,1,left.png,,w,left,61525181e018e4f7c9d94299,2021-10-27_09h15.49.547,arrow_simon_punish,2021.1.2,Win32,60.0528465,,,,,,,,,,,,,,,,,,,,,,,,,,,,,,,,,,,,,,
,,,p,1,0.9215,7,1,29,0,1,right.png,,p,left,61525181e018e4f7c9d94299,2021-10-27_09h15.49.547,arrow_simon_punish,2021.1.2,Win32,60.0528465,,,,,,,,,,,,,,,,,,,,,,,,,,,,,,,,,,,,,,
,,,p,1,1.5557,7,2,30,1,1,right.png,,p,right,61525181e018e4f7c9d94299,2021-10-27_09h15.49.547,arrow_simon_punish,2021.1.2,Win32,60.0528465,,,,,,,,,,,,,,,,,,,,,,,,,,,,,,,,,,,,,,
,,,w,1,1.1852,7,3,31,3,1,left.png,,w,right,61525181e018e4f7c9d94299,2021-10-27_09h15.49.547,arrow_simon_punish,2021.1.2,Win32,60.0528465,,,,,,,,,,,,,,,,,,,,,,,,,,,,,,,,,,,,,,
,,,w,1,1.7319,8,0,32,3,1,left.png,,w,right,61525181e018e4f7c9d94299,2021-10-27_09h15.49.547,arrow_simon_punish,2021.1.2,Win32,60.0528465,,,,,,,,,,,,,,,,,,,,,,,,,,,,,,,,,,,,,,
,,,p,1,0.8718,8,1,33,0,1,right.png,,p,left,61525181e018e4f7c9d94299,2021-10-27_09h15.49.547,arrow_simon_punish,2021.1.2,Win32,60.0528465,,,,,,,,,,,,,,,,,,,,,,,,,,,,,,,,,,,,,,
,,,p,1,0.6117,8,2,34,1,1,right.png,,p,right,61525181e018e4f7c9d94299,2021-10-27_09h15.49.547,arrow_simon_punish,2021.1.2,Win32,60.0528465,,,,,,,,,,,,,,,,,,,,,,,,,,,,,,,,,,,,,,
,,,w,1,0.7521,8,3,35,2,1,left.png,,w,left,61525181e018e4f7c9d94299,2021-10-27_09h15.49.547,arrow_simon_punish,2021.1.2,Win32,60.0528465,,,,,,,,,,,,,,,,,,,,,,,,,,,,,,,,,,,,,,
,,,p,1,1.2277,9,0,36,1,1,right.png,,p,right,61525181e018e4f7c9d94299,2021-10-27_09h15.49.547,arrow_simon_punish,2021.1.2,Win32,60.0528465,,,,,,,,,,,,,,,,,,,,,,,,,,,,,,,,,,,,,,
,,,w,1,1.3361,9,1,37,2,1,left.png,,w,left,61525181e018e4f7c9d94299,2021-10-27_09h15.49.547,arrow_simon_punish,2021.1.2,Win32,60.0528465,,,,,,,,,,,,,,,,,,,,,,,,,,,,,,,,,,,,,,
,,,p,1,1.6207,9,2,38,0,1,right.png,,p,left,61525181e018e4f7c9d94299,2021-10-27_09h15.49.547,arrow_simon_punish,2021.1.2,Win32,60.0528465,,,,,,,,,,,,,,,,,,,,,,,,,,,,,,,,,,,,,,
,,,w,1,1.2982,9,3,39,3,1,left.png,,w,right,61525181e018e4f7c9d94299,2021-10-27_09h15.49.547,arrow_simon_punish,2021.1.2,Win32,60.0528465,,,,,,,,,,,,,,,,,,,,,,,,,,,,,,,,,,,,,,
,,,,,,,,,,,,,,,61525181e018e4f7c9d94299,2021-10-27_09h15.49.547,arrow_simon_punish,2021.1.2,Win32,60.0528465,space,0,29.0381,p,2.8994,0,0,0,0,1,,,,,,,,,,,,,,,,,,,,,,,,,,,,
,,,,,,,,,,,,,,,61525181e018e4f7c9d94299,2021-10-27_09h15.49.547,arrow_simon_punish,2021.1.2,Win32,60.0528465,,,,p,2.8318,1,0,1,0,1,,,,,,,,,,,,,,,,,,,,,,,,,,,,
,,,,,,,,,,,,,,,61525181e018e4f7c9d94299,2021-10-27_09h15.49.547,arrow_simon_punish,2021.1.2,Win32,60.0528465,,,,p,2.6373,2,0,2,0,1,,,,,,,,,,,,,,,,,,,,,,,,,,,,
,,,,,,,,,,,,,,,61525181e018e4f7c9d94299,2021-10-27_09h15.49.547,arrow_simon_punish,2021.1.2,Win32,60.0528465,,,,w,2.7489,3,0,3,0,1,,,,,,,,,,,,,,,,,,,,,,,,,,,,
,,,,,,,,,,,,,,,61525181e018e4f7c9d94299,2021-10-27_09h15.49.547,arrow_simon_punish,2021.1.2,Win32,60.0528465,,,,p,2.3716,4,0,4,0,1,,,,,,,,,,,,,,,,,,,,,,,,,,,,
,,,,,,,,,,,,,,,61525181e018e4f7c9d94299,2021-10-27_09h15.49.547,arrow_simon_punish,2021.1.2,Win32,60.0528465,,,,p,2.5599,5,0,5,0,1,,,,,,,,,,,,,,,,,,,,,,,,,,,,
,,,,,,,,,,,,,,,61525181e018e4f7c9d94299,2021-10-27_09h15.49.547,arrow_simon_punish,2021.1.2,Win32,60.0528465,,,,p,2.5566,6,0,6,0,1,,,,,,,,,,,,,,,,,,,,,,,,,,,,
,,,,,,,,,,,,,,,61525181e018e4f7c9d94299,2021-10-27_09h15.49.547,arrow_simon_punish,2021.1.2,Win32,60.0528465,,,,p,2.5908,7,0,7,0,1,,,,,,,,,,,,,,,,,,,,,,,,,,,,
,,,,,,,,,,,,,,,61525181e018e4f7c9d94299,2021-10-27_09h15.49.547,arrow_simon_punish,2021.1.2,Win32,60.0528465,,,,p,2.5656,8,0,8,0,1,,,,,,,,,,,,,,,,,,,,,,,,,,,,
,,,,,,,,,,,,,,,61525181e018e4f7c9d94299,2021-10-27_09h15.49.547,arrow_simon_punish,2021.1.2,Win32,60.0528465,,,,p,2.5819,9,0,9,0,1,,,,,,,,,,,,,,,,,,,,,,,,,,,,
,,,,,,,,,,,,,,,61525181e018e4f7c9d94299,2021-10-27_09h15.49.547,arrow_simon_punish,2021.1.2,Win32,60.0528465,,,,w,2.6305,10,0,10,0,1,,,,,,,,,,,,,,,,,,,,,,,,,,,,
,,,,,,,,,,,,,,,61525181e018e4f7c9d94299,2021-10-27_09h15.49.547,arrow_simon_punish,2021.1.2,Win32,60.0528465,,,,w,2.5516,11,0,11,0,1,,,,,,,,,,,,,,,,,,,,,,,,,,,,
,,,,,,,,,,,,,,,61525181e018e4f7c9d94299,2021-10-27_09h15.49.547,arrow_simon_punish,2021.1.2,Win32,60.0528465,,,,w,2.589,12,0,12,0,1,,,,,,,,,,,,,,,,,,,,,,,,,,,,
,,,,,,,,,,,,,,,61525181e018e4f7c9d94299,2021-10-27_09h15.49.547,arrow_simon_punish,2021.1.2,Win32,60.0528465,,,,w,2.5721,13,0,13,0,1,,,,,,,,,,,,,,,,,,,,,,,,,,,,
,,,,,,,,,,,,,,,61525181e018e4f7c9d94299,2021-10-27_09h15.49.547,arrow_simon_punish,2021.1.2,Win32,60.0528465,,,,p,2.5954,14,0,14,0,1,,,,,,,,,,,,,,,,,,,,,,,,,,,,
,,,,,,,,,,,,,,,61525181e018e4f7c9d94299,2021-10-27_09h15.49.547,arrow_simon_punish,2021.1.2,Win32,60.0528465,,,,p,2.5226,15,0,15,0,1,,,,,,,,,,,,,,,,,,,,,,,,,,,,
,,,,,,,,,,,,,,,61525181e018e4f7c9d94299,2021-10-27_09h15.49.547,arrow_simon_punish,2021.1.2,Win32,60.0528465,,,,p,2.556,16,0,16,0,1,,,,,,,,,,,,,,,,,,,,,,,,,,,,
,,,,,,,,,,,,,,,61525181e018e4f7c9d94299,2021-10-27_09h15.49.547,arrow_simon_punish,2021.1.2,Win32,60.0528465,,,,p,2.5968,17,0,17,0,1,,,,,,,,,,,,,,,,,,,,,,,,,,,,
,,,,,,,,,,,,,,,61525181e018e4f7c9d94299,2021-10-27_09h15.49.547,arrow_simon_punish,2021.1.2,Win32,60.0528465,,,,p,2.6463,18,0,18,0,1,,,,,,,,,,,,,,,,,,,,,,,,,,,,
,,,,,,,,,,,,,,,61525181e018e4f7c9d94299,2021-10-27_09h15.49.547,arrow_simon_punish,2021.1.2,Win32,60.0528465,,,,p,2.5091,19,0,19,0,1,,,,,,,,,,,,,,,,,,,,,,,,,,,,
,,,,,,,,,,,,,,,61525181e018e4f7c9d94299,2021-10-27_09h15.49.547,arrow_simon_punish,2021.1.2,Win32,60.0528465,,,,p,2.5622,20,0,20,0,1,,,,,,,,,,,,,,,,,,,,,,,,,,,,
,,,,,,,,,,,,,,,61525181e018e4f7c9d94299,2021-10-27_09h15.49.547,arrow_simon_punish,2021.1.2,Win32,60.0528465,,,,w,2.6756,21,0,21,0,1,,,,,,,,,,,,,,,,,,,,,,,,,,,,
,,,,,,,,,,,,,,,61525181e018e4f7c9d94299,2021-10-27_09h15.49.547,arrow_simon_punish,2021.1.2,Win32,60.0528465,,,,w,2.4926,22,0,22,0,1,,,,,,,,,,,,,,,,,,,,,,,,,,,,
,,,,,,,,,,,,,,,61525181e018e4f7c9d94299,2021-10-27_09h15.49.547,arrow_simon_punish,2021.1.2,Win32,60.0528465,,,,w,2.5579,23,0,23,0,1,,,,,,,,,,,,,,,,,,,,,,,,,,,,
,,,,,,,,,,,,,,,61525181e018e4f7c9d94299,2021-10-27_09h15.49.547,arrow_simon_punish,2021.1.2,Win32,60.0528465,,,,w,2.5164,24,0,24,0,1,,,,,,,,,,,,,,,,,,,,,,,,,,,,
,,,,,,,,,,,,,,,61525181e018e4f7c9d94299,2021-10-27_09h15.49.547,arrow_simon_punish,2021.1.2,Win32,60.0528465,,,,w,2.0343,25,0,25,0,1,,,,,,,,,,,,,,,,,,,,,,,,,,,,
,,,,,,,,,,,,,,,61525181e018e4f7c9d94299,2021-10-27_09h15.49.547,arrow_simon_punish,2021.1.2,Win32,60.0528465,,,,p,2.5568,26,0,26,0,1,,,,,,,,,,,,,,,,,,,,,,,,,,,,
,,,,,,,,,,,,,,,61525181e018e4f7c9d94299,2021-10-27_09h15.49.547,arrow_simon_punish,2021.1.2,Win32,60.0528465,,,,p,2.456,27,0,27,0,1,,,,,,,,,,,,,,,,,,,,,,,,,,,,
,,,,,,,,,,,,,,,61525181e018e4f7c9d94299,2021-10-27_09h15.49.547,arrow_simon_punish,2021.1.2,Win32,60.0528465,,,,p,2.386,28,0,28,0,1,,,,,,,,,,,,,,,,,,,,,,,,,,,,
,,,,,,,,,,,,,,,61525181e018e4f7c9d94299,2021-10-27_09h15.49.547,arrow_simon_punish,2021.1.2,Win32,60.0528465,,,,p,2.4048,29,0,29,0,1,,,,,,,,,,,,,,,,,,,,,,,,,,,,
,,,,,,,,,,,,,,,61525181e018e4f7c9d94299,2021-10-27_09h15.49.547,arrow_simon_punish,2021.1.2,Win32,60.0528465,,,,p,2.4608,30,0,30,0,1,,,,,,,,,,,,,,,,,,,,,,,,,,,,
,,,,,,,,,,,,,,,61525181e018e4f7c9d94299,2021-10-27_09h15.49.547,arrow_simon_punish,2021.1.2,Win32,60.0528465,,,,p,2.4938,31,0,31,0,1,,,,,,,,,,,,,,,,,,,,,,,,,,,,
,,,,,,,,,,,,,,,61525181e018e4f7c9d94299,2021-10-27_09h15.49.547,arrow_simon_punish,2021.1.2,Win32,60.0528465,,,,p,2.397,32,0,32,0,1,,,,,,,,,,,,,,,,,,,,,,,,,,,,
,,,,,,,,,,,,,,,61525181e018e4f7c9d94299,2021-10-27_09h15.49.547,arrow_simon_punish,2021.1.2,Win32,60.0528465,,,,p,2.4861,33,0,33,0,1,,,,,,,,,,,,,,,,,,,,,,,,,,,,
,,,,,,,,,,,,,,,61525181e018e4f7c9d94299,2021-10-27_09h15.49.547,arrow_simon_punish,2021.1.2,Win32,60.0528465,,,,p,2.446,34,0,34,0,1,,,,,,,,,,,,,,,,,,,,,,,,,,,,
,,,,,,,,,,,,,,,61525181e018e4f7c9d94299,2021-10-27_09h15.49.547,arrow_simon_punish,2021.1.2,Win32,60.0528465,,,,p,2.365,35,0,35,0,1,,,,,,,,,,,,,,,,,,,,,,,,,,,,
,,,,,,,,,,,,,,,61525181e018e4f7c9d94299,2021-10-27_09h15.49.547,arrow_simon_punish,2021.1.2,Win32,60.0528465,,,,p,2.5414,36,0,36,0,1,,,,,,,,,,,,,,,,,,,,,,,,,,,,
,,,,,,,,,,,,,,,61525181e018e4f7c9d94299,2021-10-27_09h15.49.547,arrow_simon_punish,2021.1.2,Win32,60.0528465,,,,p,2.4551,37,0,37,0,1,,,,,,,,,,,,,,,,,,,,,,,,,,,,
,,,,,,,,,,,,,,,61525181e018e4f7c9d94299,2021-10-27_09h15.49.547,arrow_simon_punish,2021.1.2,Win32,60.0528465,,,,p,2.5256,38,0,38,0,1,,,,,,,,,,,,,,,,,,,,,,,,,,,,
,,,,,,,,,,,,,,,61525181e018e4f7c9d94299,2021-10-27_09h15.49.547,arrow_simon_punish,2021.1.2,Win32,60.0528465,,,,p,2.7009,39,0,39,0,1,,,,,,,,,,,,,,,,,,,,,,,,,,,,
,,,,,,,,,,,,,,,61525181e018e4f7c9d94299,2021-10-27_09h15.49.547,arrow_simon_punish,2021.1.2,Win32,60.0528465,,,,p,2.472,40,0,40,0,1,,,,,,,,,,,,,,,,,,,,,,,,,,,,
,,,,,,,,,,,,,,,61525181e018e4f7c9d94299,2021-10-27_09h15.49.547,arrow_simon_punish,2021.1.2,Win32,60.0528465,,,,p,2.2828,41,0,41,0,1,,,,,,,,,,,,,,,,,,,,,,,,,,,,
,,,,,,,,,,,,,,,61525181e018e4f7c9d94299,2021-10-27_09h15.49.547,arrow_simon_punish,2021.1.2,Win32,60.0528465,,,,p,2.4483,42,0,42,0,1,,,,,,,,,,,,,,,,,,,,,,,,,,,,
,,,,,,,,,,,,,,,61525181e018e4f7c9d94299,2021-10-27_09h15.49.547,arrow_simon_punish,2021.1.2,Win32,60.0528465,,,,p,2.5832,43,0,43,0,1,,,,,,,,,,,,,,,,,,,,,,,,,,,,
,,,,,,,,,,,,,,,61525181e018e4f7c9d94299,2021-10-27_09h15.49.547,arrow_simon_punish,2021.1.2,Win32,60.0528465,,,,p,2.5296,44,0,44,0,1,,,,,,,,,,,,,,,,,,,,,,,,,,,,
,,,,,,,,,,,,,,,61525181e018e4f7c9d94299,2021-10-27_09h15.49.547,arrow_simon_punish,2021.1.2,Win32,60.0528465,,,,p,2.5845,45,0,45,0,1,,,,,,,,,,,,,,,,,,,,,,,,,,,,
,,,,,,,,,,,,,,,61525181e018e4f7c9d94299,2021-10-27_09h15.49.547,arrow_simon_punish,2021.1.2,Win32,60.0528465,,,,p,2.5874,46,0,46,0,1,,,,,,,,,,,,,,,,,,,,,,,,,,,,
,,,,,,,,,,,,,,,61525181e018e4f7c9d94299,2021-10-27_09h15.49.547,arrow_simon_punish,2021.1.2,Win32,60.0528465,,,,p,2.5166,47,0,47,0,1,,,,,,,,,,,,,,,,,,,,,,,,,,,,
,,,,,,,,,,,,,,,61525181e018e4f7c9d94299,2021-10-27_09h15.49.547,arrow_simon_punish,2021.1.2,Win32,60.0528465,,,,p,2.4125,48,0,48,0,1,,,,,,,,,,,,,,,,,,,,,,,,,,,,
,,,,,,,,,,,,,,,61525181e018e4f7c9d94299,2021-10-27_09h15.49.547,arrow_simon_punish,2021.1.2,Win32,60.0528465,,,,p,2.4228,49,0,49,0,1,,,,,,,,,,,,,,,,,,,,,,,,,,,,
,,,,,,,,,,,,,,,61525181e018e4f7c9d94299,2021-10-27_09h15.49.547,arrow_simon_punish,2021.1.2,Win32,60.0528465,,,,p,2.5529,50,0,50,0,1,,,,,,,,,,,,,,,,,,,,,,,,,,,,
,,,,,,,,,,,,,,,61525181e018e4f7c9d94299,2021-10-27_09h15.49.547,arrow_simon_punish,2021.1.2,Win32,60.0528465,,,,p,2.4453,51,0,51,0,1,,,,,,,,,,,,,,,,,,,,,,,,,,,,
,,,,,,,,,,,,,,,61525181e018e4f7c9d94299,2021-10-27_09h15.49.547,arrow_simon_punish,2021.1.2,Win32,60.0528465,,,,p,2.5329,52,0,52,0,1,,,,,,,,,,,,,,,,,,,,,,,,,,,,
,,,,,,,,,,,,,,,61525181e018e4f7c9d94299,2021-10-27_09h15.49.547,arrow_simon_punish,2021.1.2,Win32,60.0528465,,,,p,2.5774,53,0,53,0,1,,,,,,,,,,,,,,,,,,,,,,,,,,,,
,,,,,,,,,,,,,,,61525181e018e4f7c9d94299,2021-10-27_09h15.49.547,arrow_simon_punish,2021.1.2,Win32,60.0528465,,,,p,2.4559,54,0,54,0,1,,,,,,,,,,,,,,,,,,,,,,,,,,,,
,,,,,,,,,,,,,,,61525181e018e4f7c9d94299,2021-10-27_09h15.49.547,arrow_simon_punish,2021.1.2,Win32,60.0528465,,,,p,2.5663,55,0,55,0,1,,,,,,,,,,,,,,,,,,,,,,,,,,,,
,,,,,,,,,,,,,,,61525181e018e4f7c9d94299,2021-10-27_09h15.49.547,arrow_simon_punish,2021.1.2,Win32,60.0528465,,,,p,2.4077,56,0,56,0,1,,,,,,,,,,,,,,,,,,,,,,,,,,,,
,,,,,,,,,,,,,,,61525181e018e4f7c9d94299,2021-10-27_09h15.49.547,arrow_simon_punish,2021.1.2,Win32,60.0528465,,,,p,2.4269,57,0,57,0,1,,,,,,,,,,,,,,,,,,,,,,,,,,,,
,,,,,,,,,,,,,,,61525181e018e4f7c9d94299,2021-10-27_09h15.49.547,arrow_simon_punish,2021.1.2,Win32,60.0528465,,,,p,2.3524,58,0,58,0,1,,,,,,,,,,,,,,,,,,,,,,,,,,,,
,,,,,,,,,,,,,,,61525181e018e4f7c9d94299,2021-10-27_09h15.49.547,arrow_simon_punish,2021.1.2,Win32,60.0528465,,,,p,2.508,59,0,59,0,1,,,,,,,,,,,,,,,,,,,,,,,,,,,,
,,,,,,,,,,,left.png,,w,right,61525181e018e4f7c9d94299,2021-10-27_09h15.49.547,arrow_simon_punish,2021.1.2,Win32,60.0528465,,,,,,,,,,,space,0,62.2148,w,1,1.6676,2.148500725,1,1,0,0,0,3,1,,,,,,,,,,,,,,
,,,,,,,,,,,left.png,,w,left,61525181e018e4f7c9d94299,2021-10-27_09h15.49.547,arrow_simon_punish,2021.1.2,Win32,60.0528465,,,,,,,,,,,,,,w,1,1.2702,1.953057281,1,1,0,1,1,2,1,,,,,,,,,,,,,,
,,,,,,,,,,,left.png,,w,right,61525181e018e4f7c9d94299,2021-10-27_09h15.49.547,arrow_simon_punish,2021.1.2,Win32,60.0528465,,,,,,,,,,,,,,w,1,0.9971,2.060916907,1,1,0,2,2,3,1,,,,,,,,,,,,,,
,,,,,,,,,,,left.png,,w,left,61525181e018e4f7c9d94299,2021-10-27_09h15.49.547,arrow_simon_punish,2021.1.2,Win32,60.0528465,,,,,,,,,,,,,,w,1,1.0152,1.618886244,1,1,0,3,3,2,1,,,,,,,,,,,,,,
,,,,,,,,,,,left.png,,w,left,61525181e018e4f7c9d94299,2021-10-27_09h15.49.547,arrow_simon_punish,2021.1.2,Win32,60.0528465,,,,,,,,,,,,,,w,1,1.7404,2.455262748,1,1,1,0,4,2,1,,,,,,,,,,,,,,
,,,,,,,,,,,left.png,,w,right,61525181e018e4f7c9d94299,2021-10-27_09h15.49.547,arrow_simon_punish,2021.1.2,Win32,60.0528465,,,,,,,,,,,,,,p,0,1.1238,1.62780586,1,1,1,1,5,3,1,,,,,,,,,,,,,,
,,,,,,,,,,,left.png,,w,right,61525181e018e4f7c9d94299,2021-10-27_09h15.49.547,arrow_simon_punish,2021.1.2,Win32,60.0528465,,,,,,,,,,,,,,p,0,1.7212,2.013130166,1,1,1,2,6,3,1,,,,,,,,,,,,,,
,,,,,,,,,,,left.png,,w,right,61525181e018e4f7c9d94299,2021-10-27_09h15.49.547,arrow_simon_punish,2021.1.2,Win32,60.0528465,,,,,,,,,,,,,,p,0,1.6177,1.900936323,1,1,1,3,7,3,1,,,,,,,,,,,,,,
,,,,,,,,,,,left.png,,w,right,61525181e018e4f7c9d94299,2021-10-27_09h15.49.547,arrow_simon_punish,2021.1.2,Win32,60.0528465,,,,,,,,,,,,,,p,0,1.1132,1.519287243,1,1,2,0,8,3,1,,,,,,,,,,,,,,
,,,,,,,,,,,left.png,,w,right,61525181e018e4f7c9d94299,2021-10-27_09h15.49.547,arrow_simon_punish,2021.1.2,Win32,60.0528465,,,,,,,,,,,,,,p,0,1.6847,1.837055375,1,1,2,1,9,3,1,,,,,,,,,,,,,,
,,,,,,,,,,,right.png,,p,left,61525181e018e4f7c9d94299,2021-10-27_09h15.49.547,arrow_simon_punish,2021.1.2,Win32,60.0528465,,,,,,,,,,,,,,w,0,1.5624,2.053699851,1,1,2,2,10,0,1,,,,,,,,,,,,,,
,,,,,,,,,,,left.png,,w,left,61525181e018e4f7c9d94299,2021-10-27_09h15.49.547,arrow_simon_punish,2021.1.2,Win32,60.0528465,,,,,,,,,,,,,,w,1,1.0755,1.767581451,1,1,2,3,11,2,1,,,,,,,,,,,,,,
,,,,,,,,,,,right.png,,p,right,61525181e018e4f7c9d94299,2021-10-27_09h15.49.547,arrow_simon_punish,2021.1.2,Win32,60.0528465,,,,,,,,,,,,,,p,1,1.7334,2.336995591,1,1,3,0,12,1,1,,,,,,,,,,,,,,
,,,,,,,,,,,right.png,,p,left,61525181e018e4f7c9d94299,2021-10-27_09h15.49.547,arrow_simon_punish,2021.1.2,Win32,60.0528465,,,,,,,,,,,,,,p,1,1.3998,1.548315872,1,1,3,1,13,0,1,,,,,,,,,,,,,,
,,,,,,,,,,,right.png,,p,right,61525181e018e4f7c9d94299,2021-10-27_09h15.49.547,arrow_simon_punish,2021.1.2,Win32,60.0528465,,,,,,,,,,,,,,p,1,1.8006,2.495900233,1,1,3,2,14,1,1,,,,,,,,,,,,,,
,,,,,,,,,,,left.png,,w,left,61525181e018e4f7c9d94299,2021-10-27_09h15.49.547,arrow_simon_punish,2021.1.2,Win32,60.0528465,,,,,,,,,,,,,,w,1,1.4525,2.058769752,0,1,3,3,15,2,1,,,,,,,,,,,,,,
,,,,,,,,,,,right.png,,p,right,61525181e018e4f7c9d94299,2021-10-27_09h15.49.547,arrow_simon_punish,2021.1.2,Win32,60.0528465,,,,,,,,,,,,,,p,1,1.6184,1.67470891,1,1,4,0,16,1,1,,,,,,,,,,,,,,
,,,,,,,,,,,left.png,,w,right,61525181e018e4f7c9d94299,2021-10-27_09h15.49.547,arrow_simon_punish,2021.1.2,Win32,60.0528465,,,,,,,,,,,,,,p,0,1.7937,2.479458884,1,1,4,1,17,3,1,,,,,,,,,,,,,,
,,,,,,,,,,,left.png,,w,right,61525181e018e4f7c9d94299,2021-10-27_09h15.49.547,arrow_simon_punish,2021.1.2,Win32,60.0528465,,,,,,,,,,,,,,p,0,1.6293,2.311164589,1,1,4,2,18,3,1,,,,,,,,,,,,,,
,,,,,,,,,,,right.png,,p,left,61525181e018e4f7c9d94299,2021-10-27_09h15.49.547,arrow_simon_punish,2021.1.2,Win32,60.0528465,,,,,,,,,,,,,,p,1,1.64,2.132421495,1,1,4,3,19,0,1,,,,,,,,,,,,,,
,,,,,,,,,,,right.png,,p,left,61525181e018e4f7c9d94299,2021-10-27_09h15.49.547,arrow_simon_punish,2021.1.2,Win32,60.0528465,,,,,,,,,,,,,,w,0,1.437,2.075493629,1,1,5,0,20,0,1,,,,,,,,,,,,,,
,,,,,,,,,,,right.png,,p,right,61525181e018e4f7c9d94299,2021-10-27_09h15.49.547,arrow_simon_punish,2021.1.2,Win32,60.0528465,,,,,,,,,,,,,,p,1,1.6858,2.365828661,1,1,5,1,21,1,1,,,,,,,,,,,,,,
,,,,,,,,,,,right.png,,p,left,61525181e018e4f7c9d94299,2021-10-27_09h15.49.547,arrow_simon_punish,2021.1.2,Win32,60.0528465,,,,,,,,,,,,,,w,0,1.4529,2.076934511,1,1,5,2,22,0,1,,,,,,,,,,,,,,
,,,,,,,,,,,right.png,,p,right,61525181e018e4f7c9d94299,2021-10-27_09h15.49.547,arrow_simon_punish,2021.1.2,Win32,60.0528465,,,,,,,,,,,,,,p,1,1.6377,1.658256057,1,1,5,3,23,1,1,,,,,,,,,,,,,,
,,,,,,,,,,,right.png,,p,right,61525181e018e4f7c9d94299,2021-10-27_09h15.49.547,arrow_simon_punish,2021.1.2,Win32,60.0528465,,,,,,,,,,,,,,p,1,1.5839,1.589008301,0,1,6,0,24,1,1,,,,,,,,,,,,,,
,,,,,,,,,,,left.png,,w,left,61525181e018e4f7c9d94299,2021-10-27_09h15.49.547,arrow_simon_punish,2021.1.2,Win32,60.0528465,,,,,,,,,,,,,,w,1,1.5007,1.517180753,0,1,6,1,25,2,1,,,,,,,,,,,,,,
,,,,,,,,,,,right.png,,p,left,61525181e018e4f7c9d94299,2021-10-27_09h15.49.547,arrow_simon_punish,2021.1.2,Win32,60.0528465,,,,,,,,,,,,,,w,0,1.5942,1.552999339,1,1,6,2,26,0,1,,,,,,,,,,,,,,
,,,,,,,,,,,left.png,,w,left,61525181e018e4f7c9d94299,2021-10-27_09h15.49.547,arrow_simon_punish,2021.1.2,Win32,60.0528465,,,,,,,,,,,,,,w,1,1.5602,1.608412533,0,1,6,3,27,2,1,,,,,,,,,,,,,,
,,,,,,,,,,,left.png,,w,right,61525181e018e4f7c9d94299,2021-10-27_09h15.49.547,arrow_simon_punish,2021.1.2,Win32,60.0528465,,,,,,,,,,,,,,p,0,1.4729,1.804565769,1,1,7,0,28,3,1,,,,,,,,,,,,,,
,,,,,,,,,,,right.png,,p,right,61525181e018e4f7c9d94299,2021-10-27_09h15.49.547,arrow_simon_punish,2021.1.2,Win32,60.0528465,,,,,,,,,,,,,,p,1,1.7465,2.482251564,1,1,7,1,29,1,1,,,,,,,,,,,,,,
,,,,,,,,,,,right.png,,p,left,61525181e018e4f7c9d94299,2021-10-27_09h15.49.547,arrow_simon_punish,2021.1.2,Win32,60.0528465,,,,,,,,,,,,,,p,1,1.7169,2.080979667,1,1,7,2,30,0,1,,,,,,,,,,,,,,
,,,,,,,,,,,left.png,,w,left,61525181e018e4f7c9d94299,2021-10-27_09h15.49.547,arrow_simon_punish,2021.1.2,Win32,60.0528465,,,,,,,,,,,,,,w,1,1.6966,1.847365895,1,1,7,3,31,2,1,,,,,,,,,,,,,,
,,,,,,,,,,,left.png,,w,left,61525181e018e4f7c9d94299,2021-10-27_09h15.49.547,arrow_simon_punish,2021.1.2,Win32,60.0528465,,,,,,,,,,,,,,p,0,1.4232,2.122481835,1,1,8,0,32,2,1,,,,,,,,,,,,,,
,,,,,,,,,,,left.png,,w,left,61525181e018e4f7c9d94299,2021-10-27_09h15.49.547,arrow_simon_punish,2021.1.2,Win32,60.0528465,,,,,,,,,,,,,,w,1,1.4467,2.116830652,0,1,8,1,33,2,1,,,,,,,,,,,,,,
,,,,,,,,,,,left.png,,w,left,61525181e018e4f7c9d94299,2021-10-27_09h15.49.547,arrow_simon_punish,2021.1.2,Win32,60.0528465,,,,,,,,,,,,,,w,1,1.5166,2.068300279,0,1,8,2,34,2,1,,,,,,,,,,,,,,
,,,,,,,,,,,right.png,,p,left,61525181e018e4f7c9d94299,2021-10-27_09h15.49.547,arrow_simon_punish,2021.1.2,Win32,60.0528465,,,,,,,,,,,,,,w,0,1.5744,2.300022054,1,1,8,3,35,0,1,,,,,,,,,,,,,,
,,,,,,,,,,,left.png,,w,left,61525181e018e4f7c9d94299,2021-10-27_09h15.49.547,arrow_simon_punish,2021.1.2,Win32,60.0528465,,,,,,,,,,,,,,w,1,1.5836,1.861208475,0,1,9,0,36,2,1,,,,,,,,,,,,,,
,,,,,,,,,,,right.png,,p,right,61525181e018e4f7c9d94299,2021-10-27_09h15.49.547,arrow_simon_punish,2021.1.2,Win32,60.0528465,,,,,,,,,,,,,,p,1,1.494,1.980953061,0,1,9,1,37,1,1,,,,,,,,,,,,,,
,,,,,,,,,,,left.png,,w,left,61525181e018e4f7c9d94299,2021-10-27_09h15.49.547,arrow_simon_punish,2021.1.2,Win32,60.0528465,,,,,,,,,,,,,,w,1,1.6151,1.93441015,1,1,9,2,38,2,1,,,,,,,,,,,,,,
,,,,,,,,,,,right.png,,p,left,61525181e018e4f7c9d94299,2021-10-27_09h15.49.547,arrow_simon_punish,2021.1.2,Win32,60.0528465,,,,,,,,,,,,,,p,1,1.5174,1.839421633,0,1,9,3,39,0,1,,,,,,,,,,,,,,
,,,,,,,,,,,left.png,,w,left,61525181e018e4f7c9d94299,2021-10-27_09h15.49.547,arrow_simon_punish,2021.1.2,Win32,60.0528465,,,,,,,,,,,,,,w,1,1.3897,1.944004663,1,1,10,0,40,2,1,,,,,,,,,,,,,,
,,,,,,,,,,,right.png,,p,right,61525181e018e4f7c9d94299,2021-10-27_09h15.49.547,arrow_simon_punish,2021.1.2,Win32,60.0528465,,,,,,,,,,,,,,w,0,1.6069,2.453834463,1,1,10,1,41,1,1,,,,,,,,,,,,,,
,,,,,,,,,,,right.png,,p,left,61525181e018e4f7c9d94299,2021-10-27_09h15.49.547,arrow_simon_punish,2021.1.2,Win32,60.0528465,,,,,,,,,,,,,,p,1,1.4699,1.766322355,0,1,10,2,42,0,1,,,,,,,,,,,,,,
,,,,,,,,,,,right.png,,p,right,61525181e018e4f7c9d94299,2021-10-27_09h15.49.547,arrow_simon_punish,2021.1.2,Win32,60.0528465,,,,,,,,,,,,,,p,1,1.541,1.636322776,0,1,10,3,43,1,1,,,,,,,,,,,,,,
,,,,,,,,,,,right.png,,p,right,61525181e018e4f7c9d94299,2021-10-27_09h15.49.547,arrow_simon_punish,2021.1.2,Win32,60.0528465,,,,,,,,,,,,,,p,1,1.3352,1.827877305,1,1,11,0,44,1,1,,,,,,,,,,,,,,
,,,,,,,,,,,left.png,,w,right,61525181e018e4f7c9d94299,2021-10-27_09h15.49.547,arrow_simon_punish,2021.1.2,Win32,60.0528465,,,,,,,,,,,,,,w,1,1.5598,1.547403159,0,1,11,1,45,3,1,,,,,,,,,,,,,,
,,,,,,,,,,,left.png,,w,left,61525181e018e4f7c9d94299,2021-10-27_09h15.49.547,arrow_simon_punish,2021.1.2,Win32,60.0528465,,,,,,,,,,,,,,p,0,1.535,2.315287577,1,1,11,2,46,2,1,,,,,,,,,,,,,,
,,,,,,,,,,,left.png,,w,right,61525181e018e4f7c9d94299,2021-10-27_09h15.49.547,arrow_simon_punish,2021.1.2,Win32,60.0528465,,,,,,,,,,,,,,p,0,1.458,2.141713479,1,1,11,3,47,3,1,,,,,,,,,,,,,,
,,,,,,,,,,,left.png,,w,right,61525181e018e4f7c9d94299,2021-10-27_09h15.49.547,arrow_simon_punish,2021.1.2,Win32,60.0528465,,,,,,,,,,,,,,w,1,1.507,1.832899788,0,1,12,0,48,3,1,,,,,,,,,,,,,,
,,,,,,,,,,,right.png,,p,left,61525181e018e4f7c9d94299,2021-10-27_09h15.49.547,arrow_simon_punish,2021.1.2,Win32,60.0528465,,,,,,,,,,,,,,w,0,1.4533,2.058733811,1,1,12,1,49,0,1,,,,,,,,,,,,,,
,,,,,,,,,,,right.png,,p,left,61525181e018e4f7c9d94299,2021-10-27_09h15.49.547,arrow_simon_punish,2021.1.2,Win32,60.0528465,,,,,,,,,,,,,,w,0,1.4232,1.814779506,1,1,12,2,50,0,1,,,,,,,,,,,,,,
,,,,,,,,,,,right.png,,p,right,61525181e018e4f7c9d94299,2021-10-27_09h15.49.547,arrow_simon_punish,2021.1.2,Win32,60.0528465,,,,,,,,,,,,,,w,0,1.4774,2.149116476,1,1,12,3,51,1,1,,,,,,,,,,,,,,
,,,,,,,,,,,left.png,,w,right,61525181e018e4f7c9d94299,2021-10-27_09h15.49.547,arrow_simon_punish,2021.1.2,Win32,60.0528465,,,,,,,,,,,,,,w,1,1.535,2.226779093,0,1,13,0,52,3,1,,,,,,,,,,,,,,
,,,,,,,,,,,right.png,,p,right,61525181e018e4f7c9d94299,2021-10-27_09h15.49.547,arrow_simon_punish,2021.1.2,Win32,60.0528465,,,,,,,,,,,,,,p,1,1.548,2.195567261,0,1,13,1,53,1,1,,,,,,,,,,,,,,
,,,,,,,,,,,right.png,,p,left,61525181e018e4f7c9d94299,2021-10-27_09h15.49.547,arrow_simon_punish,2021.1.2,Win32,60.0528465,,,,,,,,,,,,,,w,0,1.4706,2.101778834,1,1,13,2,54,0,1,,,,,,,,,,,,,,
,,,,,,,,,,,right.png,,p,left,61525181e018e4f7c9d94299,2021-10-27_09h15.49.547,arrow_simon_punish,2021.1.2,Win32,60.0528465,,,,,,,,,,,,,,w,0,1.624,2.321875361,1,1,13,3,55,0,1,,,,,,,,,,,,,,
,,,,,,,,,,,right.png,,p,right,61525181e018e4f7c9d94299,2021-10-27_09h15.49.547,arrow_simon_punish,2021.1.2,Win32,60.0528465,,,,,,,,,,,,,,p,1,1.6146,2.333062853,1,1,14,0,56,1,1,,,,,,,,,,,,,,
,,,,,,,,,,,right.png,,p,right,61525181e018e4f7c9d94299,2021-10-27_09h15.49.547,arrow_simon_punish,2021.1.2,Win32,60.0528465,,,,,,,,,,,,,,p,1,1.4695,2.199484595,0,1,14,1,57,1,1,,,,,,,,,,,,,,
,,,,,,,,,,,left.png,,w,right,61525181e018e4f7c9d94299,2021-10-27_09h15.49.547,arrow_simon_punish,2021.1.2,Win32,60.0528465,,,,,,,,,,,,,,p,0,1.4578,2.182268042,1,1,14,2,58,3,1,,,,,,,,,,,,,,
,,,,,,,,,,,right.png,,p,left,61525181e018e4f7c9d94299,2021-10-27_09h15.49.547,arrow_simon_punish,2021.1.2,Win32,60.0528465,,,,,,,,,,,,,,w,0,1.398,1.861784129,1,1,14,3,59,0,1,,,,,,,,,,,,,,
,,,,,,,,,,,,,,,61525181e018e4f7c9d94299,2021-10-27_09h15.49.547,arrow_simon_punish,2021.1.2,Win32,60.0528465,,,,,,,,,,,,,,,,,,,,,,,,,space,18.5846,2,0,0,0,0,1,1,,,,,
,,,,,,,,,,,right.png,,p,left,61525181e018e4f7c9d94299,2021-10-27_09h15.49.547,arrow_simon_punish,2021.1.2,Win32,60.0528465,,,,,,,,,,,,,,p,1,1.6403,2.319312332,1,5,0,0,0,0,1,,,,,,,,,,,,,,
,,,,,,,,,,,right.png,,p,right,61525181e018e4f7c9d94299,2021-10-27_09h15.49.547,arrow_simon_punish,2021.1.2,Win32,60.0528465,,,,,,,,,,,,,,p,1,1.4508,2.072491716,0,5,0,1,1,1,1,,,,,,,,,,,,,,
,,,,,,,,,,,right.png,,p,left,61525181e018e4f7c9d94299,2021-10-27_09h15.49.547,arrow_simon_punish,2021.1.2,Win32,60.0528465,,,,,,,,,,,,,,p,1,1.4038,1.836468761,0,5,0,2,2,0,1,,,,,,,,,,,,,,
,,,,,,,,,,,left.png,,w,right,61525181e018e4f7c9d94299,2021-10-27_09h15.49.547,arrow_simon_punish,2021.1.2,Win32,60.0528465,,,,,,,,,,,,,,w,1,1.5694,2.214774746,0,5,0,3,3,3,1,,,,,,,,,,,,,,
,,,,,,,,,,,right.png,,p,left,61525181e018e4f7c9d94299,2021-10-27_09h15.49.547,arrow_simon_punish,2021.1.2,Win32,60.0528465,,,,,,,,,,,,,,p,1,1.6151,1.506836293,1,5,1,0,4,0,1,,,,,,,,,,,,,,
,,,,,,,,,,,left.png,,w,right,61525181e018e4f7c9d94299,2021-10-27_09h15.49.547,arrow_simon_punish,2021.1.2,Win32,60.0528465,,,,,,,,,,,,,,w,1,1.5069,2.095755195,0,5,1,1,5,3,1,,,,,,,,,,,,,,
,,,,,,,,,,,right.png,,p,right,61525181e018e4f7c9d94299,2021-10-27_09h15.49.547,arrow_simon_punish,2021.1.2,Win32,60.0528465,,,,,,,,,,,,,,p,1,1.6226,2.06064677,1,5,1,2,6,1,1,,,,,,,,,,,,,,
,,,,,,,,,,,right.png,,p,left,61525181e018e4f7c9d94299,2021-10-27_09h15.49.547,arrow_simon_punish,2021.1.2,Win32,60.0528465,,,,,,,,,,,,,,w,0,1.5568,2.299987176,1,5,1,3,7,0,1,,,,,,,,,,,,,,
,,,,,,,,,,,left.png,,w,left,61525181e018e4f7c9d94299,2021-10-27_09h15.49.547,arrow_simon_punish,2021.1.2,Win32,60.0528465,,,,,,,,,,,,,,w,1,1.4725,2.018737582,0,5,2,0,8,2,1,,,,,,,,,,,,,,
,,,,,,,,,,,right.png,,p,left,61525181e018e4f7c9d94299,2021-10-27_09h15.49.547,arrow_simon_punish,2021.1.2,Win32,60.0528465,,,,,,,,,,,,,,p,1,1.5745,2.034705313,0,5,2,1,9,0,1,,,,,,,,,,,,,,
,,,,,,,,,,,left.png,,w,left,61525181e018e4f7c9d94299,2021-10-27_09h15.49.547,arrow_simon_punish,2021.1.2,Win32,60.0528465,,,,,,,,,,,,,,w,1,1.5965,2.481370103,0,5,2,2,10,2,1,,,,,,,,,,,,,,
,,,,,,,,,,,left.png,,w,left,61525181e018e4f7c9d94299,2021-10-27_09h15.49.547,arrow_simon_punish,2021.1.2,Win32,60.0528465,,,,,,,,,,,,,,w,1,1.5193,1.92231811,0,5,2,3,11,2,1,,,,,,,,,,,,,,
,,,,,,,,,,,right.png,,p,left,61525181e018e4f7c9d94299,2021-10-27_09h15.49.547,arrow_simon_punish,2021.1.2,Win32,60.0528465,,,,,,,,,,,,,,p,1,1.465,1.546276839,0,5,3,0,12,0,1,,,,,,,,,,,,,,
,,,,,,,,,,,right.png,,p,left,61525181e018e4f7c9d94299,2021-10-27_09h15.49.547,arrow_simon_punish,2021.1.2,Win32,60.0528465,,,,,,,,,,,,,,w,0,1.5966,2.409550321,1,5,3,1,13,0,1,,,,,,,,,,,,,,
,,,,,,,,,,,left.png,,w,right,61525181e018e4f7c9d94299,2021-10-27_09h15.49.547,arrow_simon_punish,2021.1.2,Win32,60.0528465,,,,,,,,,,,,,,w,1,1.6795,2.491616944,1,5,3,2,14,3,1,,,,,,,,,,,,,,
,,,,,,,,,,,left.png,,w,right,61525181e018e4f7c9d94299,2021-10-27_09h15.49.547,arrow_simon_punish,2021.1.2,Win32,60.0528465,,,,,,,,,,,,,,w,1,1.5921,1.882339275,0,5,3,3,15,3,1,,,,,,,,,,,,,,
,,,,,,,,,,,left.png,,w,left,61525181e018e4f7c9d94299,2021-10-27_09h15.49.547,arrow_simon_punish,2021.1.2,Win32,60.0528465,,,,,,,,,,,,,,w,1,1.6177,1.623389846,1,5,4,0,16,2,1,,,,,,,,,,,,,,
,,,,,,,,,,,right.png,,p,left,61525181e018e4f7c9d94299,2021-10-27_09h15.49.547,arrow_simon_punish,2021.1.2,Win32,60.0528465,,,,,,,,,,,,,,w,0,1.4532,2.249729958,1,5,4,1,17,0,1,,,,,,,,,,,,,,
,,,,,,,,,,,right.png,,p,right,61525181e018e4f7c9d94299,2021-10-27_09h15.49.547,arrow_simon_punish,2021.1.2,Win32,60.0528465,,,,,,,,,,,,,,p,1,1.6067,1.897155584,1,5,4,2,18,1,1,,,,,,,,,,,,,,
,,,,,,,,,,,left.png,,w,left,61525181e018e4f7c9d94299,2021-10-27_09h15.49.547,arrow_simon_punish,2021.1.2,Win32,60.0528465,,,,,,,,,,,,,,w,1,1.5319,1.598628934,0,5,4,3,19,2,1,,,,,,,,,,,,,,
,,,,,,,,,,,right.png,,p,left,61525181e018e4f7c9d94299,2021-10-27_09h15.49.547,arrow_simon_punish,2021.1.2,Win32,60.0528465,,,,,,,,,,,,,,w,0,1.5175,2.324628909,1,5,5,0,20,0,1,,,,,,,,,,,,,,
,,,,,,,,,,,left.png,,w,left,61525181e018e4f7c9d94299,2021-10-27_09h15.49.547,arrow_simon_punish,2021.1.2,Win32,60.0528465,,,,,,,,,,,,,,w,1,1.4427,2.277738736,0,5,5,1,21,2,1,,,,,,,,,,,,,,
,,,,,,,,,,,left.png,,w,right,61525181e018e4f7c9d94299,2021-10-27_09h15.49.547,arrow_simon_punish,2021.1.2,Win32,60.0528465,,,,,,,,,,,,,,p,0,1.4964,1.825661019,1,5,5,2,22,3,1,,,,,,,,,,,,,,
,,,,,,,,,,,left.png,,w,left,61525181e018e4f7c9d94299,2021-10-27_09h15.49.547,arrow_simon_punish,2021.1.2,Win32,60.0528465,,,,,,,,,,,,,,w,1,1.5251,2.211551393,0,5,5,3,23,2,1,,,,,,,,,,,,,,
,,,,,,,,,,,left.png,,w,left,61525181e018e4f7c9d94299,2021-10-27_09h15.49.547,arrow_simon_punish,2021.1.2,Win32,60.0528465,,,,,,,,,,,,,,w,1,1.5561,1.653845451,0,5,6,0,24,2,1,,,,,,,,,,,,,,
,,,,,,,,,,,right.png,,p,right,61525181e018e4f7c9d94299,2021-10-27_09h15.49.547,arrow_simon_punish,2021.1.2,Win32,60.0528465,,,,,,,,,,,,,,p,1,1.4525,2.059234373,0,5,6,1,25,1,1,,,,,,,,,,,,,,
,,,,,,,,,,,right.png,,p,left,61525181e018e4f7c9d94299,2021-10-27_09h15.49.547,arrow_simon_punish,2021.1.2,Win32,60.0528465,,,,,,,,,,,,,,w,0,1.4692,2.453807458,1,5,6,2,26,0,1,,,,,,,,,,,,,,
,,,,,,,,,,,left.png,,w,right,61525181e018e4f7c9d94299,2021-10-27_09h15.49.547,arrow_simon_punish,2021.1.2,Win32,60.0528465,,,,,,,,,,,,,,p,0,1.5605,2.208387596,1,5,6,3,27,3,1,,,,,,,,,,,,,,
,,,,,,,,,,,left.png,,w,right,61525181e018e4f7c9d94299,2021-10-27_09h15.49.547,arrow_simon_punish,2021.1.2,Win32,60.0528465,,,,,,,,,,,,,,p,0,1.4224,2.458800521,1,5,7,0,28,3,1,,,,,,,,,,,,,,
,,,,,,,,,,,left.png,,w,right,61525181e018e4f7c9d94299,2021-10-27_09h15.49.547,arrow_simon_punish,2021.1.2,Win32,60.0528465,,,,,,,,,,,,,,p,0,1.4965,1.979962996,1,5,7,1,29,3,1,,,,,,,,,,,,,,
,,,,,,,,,,,left.png,,w,right,61525181e018e4f7c9d94299,2021-10-27_09h15.49.547,arrow_simon_punish,2021.1.2,Win32,60.0528465,,,,,,,,,,,,,,p,0,1.3623,2.092248994,1,5,7,2,30,3,1,,,,,,,,,,,,,,
,,,,,,,,,,,right.png,,p,left,61525181e018e4f7c9d94299,2021-10-27_09h15.49.547,arrow_simon_punish,2021.1.2,Win32,60.0528465,,,,,,,,,,,,,,p,1,1.5089,1.597983638,0,5,7,3,31,0,1,,,,,,,,,,,,,,
,,,,,,,,,,,right.png,,p,left,61525181e018e4f7c9d94299,2021-10-27_09h15.49.547,arrow_simon_punish,2021.1.2,Win32,60.0528465,,,,,,,,,,,,,,p,1,1.59,2.361714746,0,5,8,0,32,0,1,,,,,,,,,,,,,,
,,,,,,,,,,,right.png,,p,right,61525181e018e4f7c9d94299,2021-10-27_09h15.49.547,arrow_simon_punish,2021.1.2,Win32,60.0528465,,,,,,,,,,,,,,p,1,1.4237,1.749892119,0,5,8,1,33,1,1,,,,,,,,,,,,,,
,,,,,,,,,,,left.png,,w,left,61525181e018e4f7c9d94299,2021-10-27_09h15.49.547,arrow_simon_punish,2021.1.2,Win32,60.0528465,,,,,,,,,,,,,,w,1,1.484,2.235842919,0,5,8,2,34,2,1,,,,,,,,,,,,,,
,,,,,,,,,,,right.png,,p,right,61525181e018e4f7c9d94299,2021-10-27_09h15.49.547,arrow_simon_punish,2021.1.2,Win32,60.0528465,,,,,,,,,,,,,,p,1,1.4703,2.09131841,0,5,8,3,35,1,1,,,,,,,,,,,,,,
,,,,,,,,,,,right.png,,p,right,61525181e018e4f7c9d94299,2021-10-27_09h15.49.547,arrow_simon_punish,2021.1.2,Win32,60.0528465,,,,,,,,,,,,,,p,1,1.4866,2.424090266,0,5,9,0,36,1,1,,,,,,,,,,,,,,
,,,,,,,,,,,left.png,,w,left,61525181e018e4f7c9d94299,2021-10-27_09h15.49.547,arrow_simon_punish,2021.1.2,Win32,60.0528465,,,,,,,,,,,,,,w,1,1.5889,1.794993033,0,5,9,1,37,2,1,,,,,,,,,,,,,,
,,,,,,,,,,,right.png,,p,left,61525181e018e4f7c9d94299,2021-10-27_09h15.49.547,arrow_simon_punish,2021.1.2,Win32,60.0528465,,,,,,,,,,,,,,p,1,1.5906,1.623291976,0,5,9,2,38,0,1,,,,,,,,,,,,,,
,,,,,,,,,,,left.png,,w,left,61525181e018e4f7c9d94299,2021-10-27_09h15.49.547,arrow_simon_punish,2021.1.2,Win32,60.0528465,,,,,,,,,,,,,,w,1,1.4843,1.512137587,0,5,9,3,39,2,1,,,,,,,,,,,,,,
,,,,,,,,,,,right.png,,p,right,61525181e018e4f7c9d94299,2021-10-27_09h15.49.547,arrow_simon_punish,2021.1.2,Win32,60.0528465,,,,,,,,,,,,,,p,1,1.5406,1.917046198,0,5,10,0,40,1,1,,,,,,,,,,,,,,
,,,,,,,,,,,left.png,,w,right,61525181e018e4f7c9d94299,2021-10-27_09h15.49.547,arrow_simon_punish,2021.1.2,Win32,60.0528465,,,,,,,,,,,,,,p,0,1.4852,2.36511033,1,5,10,1,41,3,1,,,,,,,,,,,,,,
,,,,,,,,,,,right.png,,p,right,61525181e018e4f7c9d94299,2021-10-27_09h15.49.547,arrow_simon_punish,2021.1.2,Win32,60.0528465,,,,,,,,,,,,,,p,1,1.5248,1.919541995,0,5,10,2,42,1,1,,,,,,,,,,,,,,
,,,,,,,,,,,left.png,,w,right,61525181e018e4f7c9d94299,2021-10-27_09h15.49.547,arrow_simon_punish,2021.1.2,Win32,60.0528465,,,,,,,,,,,,,,w,1,1.3239,1.832100004,1,5,10,3,43,3,1,,,,,,,,,,,,,,
,,,,,,,,,,,left.png,,w,left,61525181e018e4f7c9d94299,2021-10-27_09h15.49.547,arrow_simon_punish,2021.1.2,Win32,60.0528465,,,,,,,,,,,,,,w,1,1.5439,1.746315058,0,5,11,0,44,2,1,,,,,,,,,,,,,,
,,,,,,,,,,,right.png,,p,left,61525181e018e4f7c9d94299,2021-10-27_09h15.49.547,arrow_simon_punish,2021.1.2,Win32,60.0528465,,,,,,,,,,,,,,p,1,1.5034,1.538977393,0,5,11,1,45,0,1,,,,,,,,,,,,,,
,,,,,,,,,,,right.png,,p,right,61525181e018e4f7c9d94299,2021-10-27_09h15.49.547,arrow_simon_punish,2021.1.2,Win32,60.0528465,,,,,,,,,,,,,,p,1,1.4831,1.597899315,0,5,11,2,46,1,1,,,,,,,,,,,,,,
,,,,,,,,,,,left.png,,w,left,61525181e018e4f7c9d94299,2021-10-27_09h15.49.547,arrow_simon_punish,2021.1.2,Win32,60.0528465,,,,,,,,,,,,,,w,1,1.5836,1.890034786,0,5,11,3,47,2,1,,,,,,,,,,,,,,
,,,,,,,,,,,left.png,,w,right,61525181e018e4f7c9d94299,2021-10-27_09h15.49.547,arrow_simon_punish,2021.1.2,Win32,60.0528465,,,,,,,,,,,,,,w,1,1.5703,1.633930607,0,5,12,0,48,3,1,,,,,,,,,,,,,,
,,,,,,,,,,,right.png,,p,right,61525181e018e4f7c9d94299,2021-10-27_09h15.49.547,arrow_simon_punish,2021.1.2,Win32,60.0528465,,,,,,,,,,,,,,p,1,1.7032,2.071709385,1,5,12,1,49,1,1,,,,,,,,,,,,,,
,,,,,,,,,,,right.png,,p,left,61525181e018e4f7c9d94299,2021-10-27_09h15.49.547,arrow_simon_punish,2021.1.2,Win32,60.0528465,,,,,,,,,,,,,,w,0,1.3829,2.060461051,1,5,12,2,50,0,1,,,,,,,,,,,,,,
,,,,,,,,,,,right.png,,p,right,61525181e018e4f7c9d94299,2021-10-27_09h15.49.547,arrow_simon_punish,2021.1.2,Win32,60.0528465,,,,,,,,,,,,,,w,0,1.6387,2.478909385,1,5,12,3,51,1,1,,,,,,,,,,,,,,
,,,,,,,,,,,right.png,,p,right,61525181e018e4f7c9d94299,2021-10-27_09h15.49.547,arrow_simon_punish,2021.1.2,Win32,60.0528465,,,,,,,,,,,,,,p,1,1.4641,2.041761323,0,5,13,0,52,1,1,,,,,,,,,,,,,,
,,,,,,,,,,,left.png,,w,right,61525181e018e4f7c9d94299,2021-10-27_09h15.49.547,arrow_simon_punish,2021.1.2,Win32,60.0528465,,,,,,,,,,,,,,w,1,1.6901,2.451671996,1,5,13,1,53,3,1,,,,,,,,,,,,,,
,,,,,,,,,,,left.png,,w,right,61525181e018e4f7c9d94299,2021-10-27_09h15.49.547,arrow_simon_punish,2021.1.2,Win32,60.0528465,,,,,,,,,,,,,,w,1,1.6237,1.774803413,1,5,13,2,54,3,1,,,,,,,,,,,,,,
,,,,,,,,,,,left.png,,w,left,61525181e018e4f7c9d94299,2021-10-27_09h15.49.547,arrow_simon_punish,2021.1.2,Win32,60.0528465,,,,,,,,,,,,,,w,1,1.6511,2.484622836,1,5,13,3,55,2,1,,,,,,,,,,,,,,
,,,,,,,,,,,left.png,,w,left,61525181e018e4f7c9d94299,2021-10-27_09h15.49.547,arrow_simon_punish,2021.1.2,Win32,60.0528465,,,,,,,,,,,,,,w,1,1.6078,1.619689485,1,5,14,0,56,2,1,,,,,,,,,,,,,,
,,,,,,,,,,,right.png,,p,right,61525181e018e4f7c9d94299,2021-10-27_09h15.49.547,arrow_simon_punish,2021.1.2,Win32,60.0528465,,,,,,,,,,,,,,w,0,1.4403,2.229323406,1,5,14,1,57,1,1,,,,,,,,,,,,,,
,,,,,,,,,,,right.png,,p,right,61525181e018e4f7c9d94299,2021-10-27_09h15.49.547,arrow_simon_punish,2021.1.2,Win32,60.0528465,,,,,,,,,,,,,,p,1,1.4289,2.401883307,0,5,14,2,58,1,1,,,,,,,,,,,,,,
,,,,,,,,,,,left.png,,w,right,61525181e018e4f7c9d94299,2021-10-27_09h15.49.547,arrow_simon_punish,2021.1.2,Win32,60.0528465,,,,,,,,,,,,,,p,0,1.4198,2.057859841,1,5,14,3,59,3,1,,,,,,,,,,,,,,
,,,,,,,,,,,,,,,61525181e018e4f7c9d94299,2021-10-27_09h15.49.547,arrow_simon_punish,2021.1.2,Win32,60.0528465,,,,,,,,,,,,,,,,,,,,,,,,,space,22.4944,3,0,1,1,1,1,5,,,,,
,,,,,,,,,,,left.png,,w,left,61525181e018e4f7c9d94299,2021-10-27_09h15.49.547,arrow_simon_punish,2021.1.2,Win32,60.0528465,,,,,,,,,,,,,,w,1,1.5337,1.605317101,0,1,0,0,0,2,1,,,,,,,,,,,,,,
,,,,,,,,,,,right.png,,p,left,61525181e018e4f7c9d94299,2021-10-27_09h15.49.547,arrow_simon_punish,2021.1.2,Win32,60.0528465,,,,,,,,,,,,,,w,0,1.554,2.356527326,1,1,0,1,1,0,1,,,,,,,,,,,,,,
,,,,,,,,,,,left.png,,w,left,61525181e018e4f7c9d94299,2021-10-27_09h15.49.547,arrow_simon_punish,2021.1.2,Win32,60.0528465,,,,,,,,,,,,,,w,1,1.4861,1.508099158,0,1,0,2,2,2,1,,,,,,,,,,,,,,
,,,,,,,,,,,right.png,,p,right,61525181e018e4f7c9d94299,2021-10-27_09h15.49.547,arrow_simon_punish,2021.1.2,Win32,60.0528465,,,,,,,,,,,,,,p,1,1.4894,1.584737178,0,1,0,3,3,1,1,,,,,,,,,,,,,,
,,,,,,,,,,,right.png,,p,left,61525181e018e4f7c9d94299,2021-10-27_09h15.49.547,arrow_simon_punish,2021.1.2,Win32,60.0528465,,,,,,,,,,,,,,w,0,1.5839,2.411356456,1,1,1,0,4,0,1,,,,,,,,,,,,,,
,,,,,,,,,,,left.png,,w,left,61525181e018e4f7c9d94299,2021-10-27_09h15.49.547,arrow_simon_punish,2021.1.2,Win32,60.0528465,,,,,,,,,,,,,,w,1,1.5592,1.954554,0,1,1,1,5,2,1,,,,,,,,,,,,,,
,,,,,,,,,,,left.png,,w,right,61525181e018e4f7c9d94299,2021-10-27_09h15.49.547,arrow_simon_punish,2021.1.2,Win32,60.0528465,,,,,,,,,,,,,,p,0,1.509,2.494426826,1,1,1,2,6,3,1,,,,,,,,,,,,,,
,,,,,,,,,,,left.png,,w,right,61525181e018e4f7c9d94299,2021-10-27_09h15.49.547,arrow_simon_punish,2021.1.2,Win32,60.0528465,,,,,,,,,,,,,,p,0,1.4874,1.840317588,1,1,1,3,7,3,1,,,,,,,,,,,,,,
,,,,,,,,,,,right.png,,p,left,61525181e018e4f7c9d94299,2021-10-27_09h15.49.547,arrow_simon_punish,2021.1.2,Win32,60.0528465,,,,,,,,,,,,,,w,0,1.582,2.265538348,1,1,2,0,8,0,1,,,,,,,,,,,,,,
,,,,,,,,,,,right.png,,p,right,61525181e018e4f7c9d94299,2021-10-27_09h15.49.547,arrow_simon_punish,2021.1.2,Win32,60.0528465,,,,,,,,,,,,,,p,1,1.6085,1.831333056,1,1,2,1,9,1,1,,,,,,,,,,,,,,
,,,,,,,,,,,left.png,,w,right,61525181e018e4f7c9d94299,2021-10-27_09h15.49.547,arrow_simon_punish,2021.1.2,Win32,60.0528465,,,,,,,,,,,,,,w,1,1.5097,2.321286543,0,1,2,2,10,3,1,,,,,,,,,,,,,,
,,,,,,,,,,,right.png,,p,right,61525181e018e4f7c9d94299,2021-10-27_09h15.49.547,arrow_simon_punish,2021.1.2,Win32,60.0528465,,,,,,,,,,,,,,p,1,1.5324,1.596303248,0,1,2,3,11,1,1,,,,,,,,,,,,,,
,,,,,,,,,,,right.png,,p,left,61525181e018e4f7c9d94299,2021-10-27_09h15.49.547,arrow_simon_punish,2021.1.2,Win32,60.0528465,,,,,,,,,,,,,,p,1,1.4073,1.754415702,0,1,3,0,12,0,1,,,,,,,,,,,,,,
,,,,,,,,,,,right.png,,p,right,61525181e018e4f7c9d94299,2021-10-27_09h15.49.547,arrow_simon_punish,2021.1.2,Win32,60.0528465,,,,,,,,,,,,,,p,1,1.5733,2.147727418,0,1,3,1,13,1,1,,,,,,,,,,,,,,
,,,,,,,,,,,right.png,,p,right,61525181e018e4f7c9d94299,2021-10-27_09h15.49.547,arrow_simon_punish,2021.1.2,Win32,60.0528465,,,,,,,,,,,,,,p,1,1.6485,2.404759193,1,1,3,2,14,1,1,,,,,,,,,,,,,,
,,,,,,,,,,,left.png,,w,right,61525181e018e4f7c9d94299,2021-10-27_09h15.49.547,arrow_simon_punish,2021.1.2,Win32,60.0528465,,,,,,,,,,,,,,w,1,1.3679,1.754932409,1,1,3,3,15,3,1,,,,,,,,,,,,,,
,,,,,,,,,,,right.png,,p,left,61525181e018e4f7c9d94299,2021-10-27_09h15.49.547,arrow_simon_punish,2021.1.2,Win32,60.0528465,,,,,,,,,,,,,,p,1,1.1437,1.659908591,1,1,4,0,16,0,1,,,,,,,,,,,,,,
,,,,,,,,,,,right.png,,p,right,61525181e018e4f7c9d94299,2021-10-27_09h15.49.547,arrow_simon_punish,2021.1.2,Win32,60.0528465,,,,,,,,,,,,,,p,1,1.5045,2.056848474,0,1,4,1,17,1,1,,,,,,,,,,,,,,
,,,,,,,,,,,right.png,,p,right,61525181e018e4f7c9d94299,2021-10-27_09h15.49.547,arrow_simon_punish,2021.1.2,Win32,60.0528465,,,,,,,,,,,,,,p,1,1.7285,2.394175599,1,1,4,2,18,1,1,,,,,,,,,,,,,,
,,,,,,,,,,,right.png,,p,right,61525181e018e4f7c9d94299,2021-10-27_09h15.49.547,arrow_simon_punish,2021.1.2,Win32,60.0528465,,,,,,,,,,,,,,p,1,1.5719,2.292184172,0,1,4,3,19,1,1,,,,,,,,,,,,,,
,,,,,,,,,,,left.png,,w,right,61525181e018e4f7c9d94299,2021-10-27_09h15.49.547,arrow_simon_punish,2021.1.2,Win32,60.0528465,,,,,,,,,,,,,,p,0,1.5074,2.223475858,1,1,5,0,20,3,1,,,,,,,,,,,,,,
,,,,,,,,,,,left.png,,w,right,61525181e018e4f7c9d94299,2021-10-27_09h15.49.547,arrow_simon_punish,2021.1.2,Win32,60.0528465,,,,,,,,,,,,,,w,1,1.8235,2.38712834,1,1,5,1,21,3,1,,,,,,,,,,,,,,
,,,,,,,,,,,right.png,,p,left,61525181e018e4f7c9d94299,2021-10-27_09h15.49.547,arrow_simon_punish,2021.1.2,Win32,60.0528465,,,,,,,,,,,,,,p,1,1.2559,1.594498767,1,1,5,2,22,0,1,,,,,,,,,,,,,,
,,,,,,,,,,,left.png,,w,left,61525181e018e4f7c9d94299,2021-10-27_09h15.49.547,arrow_simon_punish,2021.1.2,Win32,60.0528465,,,,,,,,,,,,,,w,1,1.665,2.348579688,1,1,5,3,23,2,1,,,,,,,,,,,,,,
,,,,,,,,,,,right.png,,p,left,61525181e018e4f7c9d94299,2021-10-27_09h15.49.547,arrow_simon_punish,2021.1.2,Win32,60.0528465,,,,,,,,,,,,,,w,0,1.1719,1.795629303,1,1,6,0,24,0,1,,,,,,,,,,,,,,
,,,,,,,,,,,right.png,,p,left,61525181e018e4f7c9d94299,2021-10-27_09h15.49.547,arrow_simon_punish,2021.1.2,Win32,60.0528465,,,,,,,,,,,,,,p,1,1.6014,1.795150421,1,1,6,1,25,0,1,,,,,,,,,,,,,,
,,,,,,,,,,,left.png,,w,left,61525181e018e4f7c9d94299,2021-10-27_09h15.49.547,arrow_simon_punish,2021.1.2,Win32,60.0528465,,,,,,,,,,,,,,w,1,1.4243,2.026122685,0,1,6,2,26,2,1,,,,,,,,,,,,,,
,,,,,,,,,,,left.png,,w,right,61525181e018e4f7c9d94299,2021-10-27_09h15.49.547,arrow_simon_punish,2021.1.2,Win32,60.0528465,,,,,,,,,,,,,,w,1,1.6057,1.930063251,1,1,6,3,27,3,1,,,,,,,,,,,,,,
,,,,,,,,,,,right.png,,p,right,61525181e018e4f7c9d94299,2021-10-27_09h15.49.547,arrow_simon_punish,2021.1.2,Win32,60.0528465,,,,,,,,,,,,,,p,1,1.5522,1.654262412,0,1,7,0,28,1,1,,,,,,,,,,,,,,
,,,,,,,,,,,left.png,,w,left,61525181e018e4f7c9d94299,2021-10-27_09h15.49.547,arrow_simon_punish,2021.1.2,Win32,60.0528465,,,,,,,,,,,,,,w,1,1.5712,2.050397628,0,1,7,1,29,2,1,,,,,,,,,,,,,,
,,,,,,,,,,,left.png,,w,right,61525181e018e4f7c9d94299,2021-10-27_09h15.49.547,arrow_simon_punish,2021.1.2,Win32,60.0528465,,,,,,,,,,,,,,w,1,1.5578,2.085441825,0,1,7,2,30,3,1,,,,,,,,,,,,,,
,,,,,,,,,,,left.png,,w,right,61525181e018e4f7c9d94299,2021-10-27_09h15.49.547,arrow_simon_punish,2021.1.2,Win32,60.0528465,,,,,,,,,,,,,,w,1,1.4594,1.557221156,0,1,7,3,31,3,1,,,,,,,,,,,,,,
,,,,,,,,,,,right.png,,p,left,61525181e018e4f7c9d94299,2021-10-27_09h15.49.547,arrow_simon_punish,2021.1.2,Win32,60.0528465,,,,,,,,,,,,,,w,0,1.4336,2.335865945,1,1,8,0,32,0,1,,,,,,,,,,,,,,
,,,,,,,,,,,left.png,,w,left,61525181e018e4f7c9d94299,2021-10-27_09h15.49.547,arrow_simon_punish,2021.1.2,Win32,60.0528465,,,,,,,,,,,,,,w,1,1.6328,1.973825765,1,1,8,1,33,2,1,,,,,,,,,,,,,,
,,,,,,,,,,,right.png,,p,right,61525181e018e4f7c9d94299,2021-10-27_09h15.49.547,arrow_simon_punish,2021.1.2,Win32,60.0528465,,,,,,,,,,,,,,w,0,1.5007,2.110860466,1,1,8,2,34,1,1,,,,,,,,,,,,,,
,,,,,,,,,,,right.png,,p,right,61525181e018e4f7c9d94299,2021-10-27_09h15.49.547,arrow_simon_punish,2021.1.2,Win32,60.0528465,,,,,,,,,,,,,,w,0,1.1968,2.283279671,1,1,8,3,35,1,1,,,,,,,,,,,,,,
,,,,,,,,,,,left.png,,w,right,61525181e018e4f7c9d94299,2021-10-27_09h15.49.547,arrow_simon_punish,2021.1.2,Win32,60.0528465,,,,,,,,,,,,,,w,1,1.4656,1.743684495,0,1,9,0,36,3,1,,,,,,,,,,,,,,
,,,,,,,,,,,left.png,,w,right,61525181e018e4f7c9d94299,2021-10-27_09h15.49.547,arrow_simon_punish,2021.1.2,Win32,60.0528465,,,,,,,,,,,,,,w,1,1.5224,2.284181884,0,1,9,1,37,3,1,,,,,,,,,,,,,,
,,,,,,,,,,,right.png,,p,left,61525181e018e4f7c9d94299,2021-10-27_09h15.49.547,arrow_simon_punish,2021.1.2,Win32,60.0528465,,,,,,,,,,,,,,p,1,1.5379,1.858291385,0,1,9,2,38,0,1,,,,,,,,,,,,,,
,,,,,,,,,,,right.png,,p,left,61525181e018e4f7c9d94299,2021-10-27_09h15.49.547,arrow_simon_punish,2021.1.2,Win32,60.0528465,,,,,,,,,,,,,,p,1,1.665,2.37506155,1,1,9,3,39,0,1,,,,,,,,,,,,,,
,,,,,,,,,,,left.png,,w,right,61525181e018e4f7c9d94299,2021-10-27_09h15.49.547,arrow_simon_punish,2021.1.2,Win32,60.0528465,,,,,,,,,,,,,,p,0,1.506,2.240111081,1,1,10,0,40,3,1,,,,,,,,,,,,,,
,,,,,,,,,,,right.png,,p,left,61525181e018e4f7c9d94299,2021-10-27_09h15.49.547,arrow_simon_punish,2021.1.2,Win32,60.0528465,,,,,,,,,,,,,,w,0,1.569,2.236326378,1,1,10,1,41,0,1,,,,,,,,,,,,,,
,,,,,,,,,,,right.png,,p,left,61525181e018e4f7c9d94299,2021-10-27_09h15.49.547,arrow_simon_punish,2021.1.2,Win32,60.0528465,,,,,,,,,,,,,,w,0,1.4727,2.388021399,1,1,10,2,42,0,1,,,,,,,,,,,,,,
,,,,,,,,,,,right.png,,p,right,61525181e018e4f7c9d94299,2021-10-27_09h15.49.547,arrow_simon_punish,2021.1.2,Win32,60.0528465,,,,,,,,,,,,,,p,1,1.4904,1.769771024,0,1,10,3,43,1,1,,,,,,,,,,,,,,
,,,,,,,,,,,left.png,,w,left,61525181e018e4f7c9d94299,2021-10-27_09h15.49.547,arrow_simon_punish,2021.1.2,Win32,60.0528465,,,,,,,,,,,,,,w,1,1.4412,1.503723361,0,1,11,0,44,2,1,,,,,,,,,,,,,,
,,,,,,,,,,,left.png,,w,right,61525181e018e4f7c9d94299,2021-10-27_09h15.49.547,arrow_simon_punish,2021.1.2,Win32,60.0528465,,,,,,,,,,,,,,w,1,1.5895,2.335271063,0,1,11,1,45,3,1,,,,,,,,,,,,,,
,,,,,,,,,,,left.png,,w,left,61525181e018e4f7c9d94299,2021-10-27_09h15.49.547,arrow_simon_punish,2021.1.2,Win32,60.0528465,,,,,,,,,,,,,,w,1,1.1212,2.405030666,1,1,11,2,46,2,1,,,,,,,,,,,,,,
,,,,,,,,,,,right.png,,p,right,61525181e018e4f7c9d94299,2021-10-27_09h15.49.547,arrow_simon_punish,2021.1.2,Win32,60.0528465,,,,,,,,,,,,,,p,1,1.5694,1.511271591,0,1,11,3,47,1,1,,,,,,,,,,,,,,
,,,,,,,,,,,right.png,,p,right,61525181e018e4f7c9d94299,2021-10-27_09h15.49.547,arrow_simon_punish,2021.1.2,Win32,60.0528465,,,,,,,,,,,,,,w,0,1.6636,2.40600111,1,1,12,0,48,1,1,,,,,,,,,,,,,,
,,,,,,,,,,,left.png,,w,left,61525181e018e4f7c9d94299,2021-10-27_09h15.49.547,arrow_simon_punish,2021.1.2,Win32,60.0528465,,,,,,,,,,,,,,w,1,1.6585,2.247955634,1,1,12,1,49,2,1,,,,,,,,,,,,,,
,,,,,,,,,,,left.png,,w,left,61525181e018e4f7c9d94299,2021-10-27_09h15.49.547,arrow_simon_punish,2021.1.2,Win32,60.0528465,,,,,,,,,,,,,,w,1,1.544,1.721959511,0,1,12,2,50,2,1,,,,,,,,,,,,,,
,,,,,,,,,,,left.png,,w,left,61525181e018e4f7c9d94299,2021-10-27_09h15.49.547,arrow_simon_punish,2021.1.2,Win32,60.0528465,,,,,,,,,,,,,,w,1,1.4211,2.185888721,0,1,12,3,51,2,1,,,,,,,,,,,,,,
,,,,,,,,,,,right.png,,p,left,61525181e018e4f7c9d94299,2021-10-27_09h15.49.547,arrow_simon_punish,2021.1.2,Win32,60.0528465,,,,,,,,,,,,,,w,0,1.4145,1.693811549,1,1,13,0,52,0,1,,,,,,,,,,,,,,
,,,,,,,,,,,left.png,,w,right,61525181e018e4f7c9d94299,2021-10-27_09h15.49.547,arrow_simon_punish,2021.1.2,Win32,60.0528465,,,,,,,,,,,,,,w,1,1.4579,2.202257634,0,1,13,1,53,3,1,,,,,,,,,,,,,,
,,,,,,,,,,,left.png,,w,left,61525181e018e4f7c9d94299,2021-10-27_09h15.49.547,arrow_simon_punish,2021.1.2,Win32,60.0528465,,,,,,,,,,,,,,w,1,1.5735,1.614702221,0,1,13,2,54,2,1,,,,,,,,,,,,,,
,,,,,,,,,,,left.png,,w,right,61525181e018e4f7c9d94299,2021-10-27_09h15.49.547,arrow_simon_punish,2021.1.2,Win32,60.0528465,,,,,,,,,,,,,,w,1,1.5118,1.993500831,0,1,13,3,55,3,1,,,,,,,,,,,,,,
,,,,,,,,,,,right.png,,p,right,61525181e018e4f7c9d94299,2021-10-27_09h15.49.547,arrow_simon_punish,2021.1.2,Win32,60.0528465,,,,,,,,,,,,,,p,1,1.6058,1.854826174,1,1,14,0,56,1,1,,,,,,,,,,,,,,
,,,,,,,,,,,left.png,,w,left,61525181e018e4f7c9d94299,2021-10-27_09h15.49.547,arrow_simon_punish,2021.1.2,Win32,60.0528465,,,,,,,,,,,,,,w,1,1.3832,2.052171387,1,1,14,1,57,2,1,,,,,,,,,,,,,,
,,,,,,,,,,,left.png,,w,left,61525181e018e4f7c9d94299,2021-10-27_09h15.49.547,arrow_simon_punish,2021.1.2,Win32,60.0528465,,,,,,,,,,,,,,w,1,1.5722,1.662931725,0,1,14,2,58,2,1,,,,,,,,,,,,,,
,,,,,,,,,,,right.png,,p,left,61525181e018e4f7c9d94299,2021-10-27_09h15.49.547,arrow_simon_punish,2021.1.2,Win32,60.0528465,,,,,,,,,,,,,,p,1,1.5346,1.62741201,0,1,14,3,59,0,1,,,,,,,,,,,,,,
,,,,,,,,,,,,,,,61525181e018e4f7c9d94299,2021-10-27_09h15.49.547,arrow_simon_punish,2021.1.2,Win32,60.0528465,,,,,,,,,,,,,,,,,,,,,,,,,space,77.2225,4,1,0,2,0,1,1,,,,,
,,,,,,,,,,,left.png,,w,left,61525181e018e4f7c9d94299,2021-10-27_09h15.49.547,arrow_simon_punish,2021.1.2,Win32,60.0528465,,,,,,,,,,,,,,p,0,1.5759,2.155972666,1,5,0,0,0,2,1,,,,,,,,,,,,,,
,,,,,,,,,,,right.png,,p,left,61525181e018e4f7c9d94299,2021-10-27_09h15.49.547,arrow_simon_punish,2021.1.2,Win32,60.0528465,,,,,,,,,,,,,,p,1,1.3902,2.03879274,1,5,0,1,1,0,1,,,,,,,,,,,,,,
,,,,,,,,,,,left.png,,w,left,61525181e018e4f7c9d94299,2021-10-27_09h15.49.547,arrow_simon_punish,2021.1.2,Win32,60.0528465,,,,,,,,,,,,,,p,0,1.029,1.978107213,1,5,0,2,2,2,1,,,,,,,,,,,,,,
,,,,,,,,,,,left.png,,w,left,61525181e018e4f7c9d94299,2021-10-27_09h15.49.547,arrow_simon_punish,2021.1.2,Win32,60.0528465,,,,,,,,,,,,,,w,1,1.5648,2.484082762,0,5,0,3,3,2,1,,,,,,,,,,,,,,
,,,,,,,,,,,right.png,,p,left,61525181e018e4f7c9d94299,2021-10-27_09h15.49.547,arrow_simon_punish,2021.1.2,Win32,60.0528465,,,,,,,,,,,,,,w,0,1.4796,2.213604624,1,5,1,0,4,0,1,,,,,,,,,,,,,,
,,,,,,,,,,,right.png,,p,left,61525181e018e4f7c9d94299,2021-10-27_09h15.49.547,arrow_simon_punish,2021.1.2,Win32,60.0528465,,,,,,,,,,,,,,w,0,1.4766,2.161747734,1,5,1,1,5,0,1,,,,,,,,,,,,,,
,,,,,,,,,,,right.png,,p,left,61525181e018e4f7c9d94299,2021-10-27_09h15.49.547,arrow_simon_punish,2021.1.2,Win32,60.0528465,,,,,,,,,,,,,,p,1,1.4761,2.287673192,0,5,1,2,6,0,1,,,,,,,,,,,,,,
,,,,,,,,,,,left.png,,w,right,61525181e018e4f7c9d94299,2021-10-27_09h15.49.547,arrow_simon_punish,2021.1.2,Win32,60.0528465,,,,,,,,,,,,,,w,1,1.5716,2.372392336,0,5,1,3,7,3,1,,,,,,,,,,,,,,
,,,,,,,,,,,right.png,,p,right,61525181e018e4f7c9d94299,2021-10-27_09h15.49.547,arrow_simon_punish,2021.1.2,Win32,60.0528465,,,,,,,,,,,,,,p,1,1.5196,1.808041215,0,5,2,0,8,1,1,,,,,,,,,,,,,,
,,,,,,,,,,,left.png,,w,right,61525181e018e4f7c9d94299,2021-10-27_09h15.49.547,arrow_simon_punish,2021.1.2,Win32,60.0528465,,,,,,,,,,,,,,p,0,1.4863,2.451566123,1,5,2,1,9,3,1,,,,,,,,,,,,,,
,,,,,,,,,,,left.png,,w,left,61525181e018e4f7c9d94299,2021-10-27_09h15.49.547,arrow_simon_punish,2021.1.2,Win32,60.0528465,,,,,,,,,,,,,,w,1,1.4133,2.143856342,0,5,2,2,10,2,1,,,,,,,,,,,,,,
,,,,,,,,,,,left.png,,w,right,61525181e018e4f7c9d94299,2021-10-27_09h15.49.547,arrow_simon_punish,2021.1.2,Win32,60.0528465,,,,,,,,,,,,,,p,0,1.6865,2.34097869,1,5,2,3,11,3,1,,,,,,,,,,,,,,
,,,,,,,,,,,left.png,,w,right,61525181e018e4f7c9d94299,2021-10-27_09h15.49.547,arrow_simon_punish,2021.1.2,Win32,60.0528465,,,,,,,,,,,,,,w,1,1.5137,2.279147132,0,5,3,0,12,3,1,,,,,,,,,,,,,,
,,,,,,,,,,,left.png,,w,left,61525181e018e4f7c9d94299,2021-10-27_09h15.49.547,arrow_simon_punish,2021.1.2,Win32,60.0528465,,,,,,,,,,,,,,w,1,1.4937,1.761473387,0,5,3,1,13,2,1,,,,,,,,,,,,,,
,,,,,,,,,,,right.png,,p,left,61525181e018e4f7c9d94299,2021-10-27_09h15.49.547,arrow_simon_punish,2021.1.2,Win32,60.0528465,,,,,,,,,,,,,,w,0,1.5518,2.404103816,1,5,3,2,14,0,1,,,,,,,,,,,,,,
,,,,,,,,,,,right.png,,p,left,61525181e018e4f7c9d94299,2021-10-27_09h15.49.547,arrow_simon_punish,2021.1.2,Win32,60.0528465,,,,,,,,,,,,,,w,0,1.5554,2.353891311,1,5,3,3,15,0,1,,,,,,,,,,,,,,
,,,,,,,,,,,right.png,,p,right,61525181e018e4f7c9d94299,2021-10-27_09h15.49.547,arrow_simon_punish,2021.1.2,Win32,60.0528465,,,,,,,,,,,,,,p,1,1.604,2.373916227,1,5,4,0,16,1,1,,,,,,,,,,,,,,
,,,,,,,,,,,right.png,,p,right,61525181e018e4f7c9d94299,2021-10-27_09h15.49.547,arrow_simon_punish,2021.1.2,Win32,60.0528465,,,,,,,,,,,,,,p,1,1.3571,1.985215889,1,5,4,1,17,1,1,,,,,,,,,,,,,,
,,,,,,,,,,,left.png,,w,left,61525181e018e4f7c9d94299,2021-10-27_09h15.49.547,arrow_simon_punish,2021.1.2,Win32,60.0528465,,,,,,,,,,,,,,p,0,1.6337,2.428360924,1,5,4,2,18,2,1,,,,,,,,,,,,,,
,,,,,,,,,,,right.png,,p,right,61525181e018e4f7c9d94299,2021-10-27_09h15.49.547,arrow_simon_punish,2021.1.2,Win32,60.0528465,,,,,,,,,,,,,,p,1,1.6383,1.965480141,1,5,4,3,19,1,1,,,,,,,,,,,,,,
,,,,,,,,,,,left.png,,w,right,61525181e018e4f7c9d94299,2021-10-27_09h15.49.547,arrow_simon_punish,2021.1.2,Win32,60.0528465,,,,,,,,,,,,,,w,1,1.4589,1.724930714,0,5,5,0,20,3,1,,,,,,,,,,,,,,
,,,,,,,,,,,right.png,,p,right,61525181e018e4f7c9d94299,2021-10-27_09h15.49.547,arrow_simon_punish,2021.1.2,Win32,60.0528465,,,,,,,,,,,,,,p,1,1.4637,1.525491734,0,5,5,1,21,1,1,,,,,,,,,,,,,,
,,,,,,,,,,,right.png,,p,right,61525181e018e4f7c9d94299,2021-10-27_09h15.49.547,arrow_simon_punish,2021.1.2,Win32,60.0528465,,,,,,,,,,,,,,p,1,1.5749,2.334037475,0,5,5,2,22,1,1,,,,,,,,,,,,,,
,,,,,,,,,,,right.png,,p,left,61525181e018e4f7c9d94299,2021-10-27_09h15.49.547,arrow_simon_punish,2021.1.2,Win32,60.0528465,,,,,,,,,,,,,,p,1,1.5796,1.720707079,0,5,5,3,23,0,1,,,,,,,,,,,,,,
,,,,,,,,,,,left.png,,w,left,61525181e018e4f7c9d94299,2021-10-27_09h15.49.547,arrow_simon_punish,2021.1.2,Win32,60.0528465,,,,,,,,,,,,,,p,0,1.5109,2.452421727,1,5,6,0,24,2,1,,,,,,,,,,,,,,
,,,,,,,,,,,right.png,,p,right,61525181e018e4f7c9d94299,2021-10-27_09h15.49.547,arrow_simon_punish,2021.1.2,Win32,60.0528465,,,,,,,,,,,,,,p,1,1.4713,1.570185872,0,5,6,1,25,1,1,,,,,,,,,,,,,,
,,,,,,,,,,,left.png,,w,right,61525181e018e4f7c9d94299,2021-10-27_09h15.49.547,arrow_simon_punish,2021.1.2,Win32,60.0528465,,,,,,,,,,,,,,w,1,1.5651,1.933634538,0,5,6,2,26,3,1,,,,,,,,,,,,,,
,,,,,,,,,,,left.png,,w,left,61525181e018e4f7c9d94299,2021-10-27_09h15.49.547,arrow_simon_punish,2021.1.2,Win32,60.0528465,,,,,,,,,,,,,,w,1,1.5023,2.154732624,0,5,6,3,27,2,1,,,,,,,,,,,,,,
,,,,,,,,,,,right.png,,p,right,61525181e018e4f7c9d94299,2021-10-27_09h15.49.547,arrow_simon_punish,2021.1.2,Win32,60.0528465,,,,,,,,,,,,,,p,1,1.588,2.024507811,0,5,7,0,28,1,1,,,,,,,,,,,,,,
,,,,,,,,,,,right.png,,p,right,61525181e018e4f7c9d94299,2021-10-27_09h15.49.547,arrow_simon_punish,2021.1.2,Win32,60.0528465,,,,,,,,,,,,,,p,1,1.4602,2.222670944,0,5,7,1,29,1,1,,,,,,,,,,,,,,
,,,,,,,,,,,left.png,,w,right,61525181e018e4f7c9d94299,2021-10-27_09h15.49.547,arrow_simon_punish,2021.1.2,Win32,60.0528465,,,,,,,,,,,,,,w,1,1.4777,2.20970358,0,5,7,2,30,3,1,,,,,,,,,,,,,,
,,,,,,,,,,,right.png,,p,left,61525181e018e4f7c9d94299,2021-10-27_09h15.49.547,arrow_simon_punish,2021.1.2,Win32,60.0528465,,,,,,,,,,,,,,p,1,1.5573,1.653541844,0,5,7,3,31,0,1,,,,,,,,,,,,,,
,,,,,,,,,,,left.png,,w,right,61525181e018e4f7c9d94299,2021-10-27_09h15.49.547,arrow_simon_punish,2021.1.2,Win32,60.0528465,,,,,,,,,,,,,,w,1,1.4958,1.509525354,0,5,8,0,32,3,1,,,,,,,,,,,,,,
,,,,,,,,,,,left.png,,w,left,61525181e018e4f7c9d94299,2021-10-27_09h15.49.547,arrow_simon_punish,2021.1.2,Win32,60.0528465,,,,,,,,,,,,,,w,1,1.4935,1.648956928,0,5,8,1,33,2,1,,,,,,,,,,,,,,
,,,,,,,,,,,left.png,,w,left,61525181e018e4f7c9d94299,2021-10-27_09h15.49.547,arrow_simon_punish,2021.1.2,Win32,60.0528465,,,,,,,,,,,,,,w,1,1.4332,2.211899387,0,5,8,2,34,2,1,,,,,,,,,,,,,,
,,,,,,,,,,,right.png,,p,left,61525181e018e4f7c9d94299,2021-10-27_09h15.49.547,arrow_simon_punish,2021.1.2,Win32,60.0528465,,,,,,,,,,,,,,w,0,1.4828,2.235249388,1,5,8,3,35,0,1,,,,,,,,,,,,,,
,,,,,,,,,,,left.png,,w,right,61525181e018e4f7c9d94299,2021-10-27_09h15.49.547,arrow_simon_punish,2021.1.2,Win32,60.0528465,,,,,,,,,,,,,,w,1,1.4834,2.29434978,0,5,9,0,36,3,1,,,,,,,,,,,,,,
,,,,,,,,,,,right.png,,p,right,61525181e018e4f7c9d94299,2021-10-27_09h15.49.547,arrow_simon_punish,2021.1.2,Win32,60.0528465,,,,,,,,,,,,,,p,1,1.367,1.51079391,1,5,9,1,37,1,1,,,,,,,,,,,,,,
,,,,,,,,,,,left.png,,w,left,61525181e018e4f7c9d94299,2021-10-27_09h15.49.547,arrow_simon_punish,2021.1.2,Win32,60.0528465,,,,,,,,,,,,,,w,1,0.9517,1.566092808,1,5,9,2,38,2,1,,,,,,,,,,,,,,
,,,,,,,,,,,left.png,,w,left,61525181e018e4f7c9d94299,2021-10-27_09h15.49.547,arrow_simon_punish,2021.1.2,Win32,60.0528465,,,,,,,,,,,,,,w,1,1.4395,2.188746168,0,5,9,3,39,2,1,,,,,,,,,,,,,,
,,,,,,,,,,,right.png,,p,left,61525181e018e4f7c9d94299,2021-10-27_09h15.49.547,arrow_simon_punish,2021.1.2,Win32,60.0528465,,,,,,,,,,,,,,p,1,1.5903,2.035151022,0,5,10,0,40,0,1,,,,,,,,,,,,,,
,,,,,,,,,,,left.png,,w,right,61525181e018e4f7c9d94299,2021-10-27_09h15.49.547,arrow_simon_punish,2021.1.2,Win32,60.0528465,,,,,,,,,,,,,,w,1,1.5661,2.109475859,0,5,10,1,41,3,1,,,,,,,,,,,,,,
,,,,,,,,,,,right.png,,p,left,61525181e018e4f7c9d94299,2021-10-27_09h15.49.547,arrow_simon_punish,2021.1.2,Win32,60.0528465,,,,,,,,,,,,,,w,0,0.9786,2.108033278,1,5,10,2,42,0,1,,,,,,,,,,,,,,
,,,,,,,,,,,right.png,,p,left,61525181e018e4f7c9d94299,2021-10-27_09h15.49.547,arrow_simon_punish,2021.1.2,Win32,60.0528465,,,,,,,,,,,,,,w,0,1.5393,2.17212523,1,5,10,3,43,0,1,,,,,,,,,,,,,,
,,,,,,,,,,,left.png,,w,left,61525181e018e4f7c9d94299,2021-10-27_09h15.49.547,arrow_simon_punish,2021.1.2,Win32,60.0528465,,,,,,,,,,,,,,w,1,1.5983,2.072325318,0,5,11,0,44,2,1,,,,,,,,,,,,,,
,,,,,,,,,,,right.png,,p,right,61525181e018e4f7c9d94299,2021-10-27_09h15.49.547,arrow_simon_punish,2021.1.2,Win32,60.0528465,,,,,,,,,,,,,,p,1,1.5038,2.182301043,0,5,11,1,45,1,1,,,,,,,,,,,,,,
,,,,,,,,,,,left.png,,w,left,61525181e018e4f7c9d94299,2021-10-27_09h15.49.547,arrow_simon_punish,2021.1.2,Win32,60.0528465,,,,,,,,,,,,,,w,1,1.5756,1.909919585,0,5,11,2,46,2,1,,,,,,,,,,,,,,
,,,,,,,,,,,right.png,,p,left,61525181e018e4f7c9d94299,2021-10-27_09h15.49.547,arrow_simon_punish,2021.1.2,Win32,60.0528465,,,,,,,,,,,,,,w,0,1.5067,2.227906134,1,5,11,3,47,0,1,,,,,,,,,,,,,,
,,,,,,,,,,,left.png,,w,left,61525181e018e4f7c9d94299,2021-10-27_09h15.49.547,arrow_simon_punish,2021.1.2,Win32,60.0528465,,,,,,,,,,,,,,w,1,1.45,1.505147268,0,5,12,0,48,2,1,,,,,,,,,,,,,,
,,,,,,,,,,,left.png,,w,right,61525181e018e4f7c9d94299,2021-10-27_09h15.49.547,arrow_simon_punish,2021.1.2,Win32,60.0528465,,,,,,,,,,,,,,w,1,1.5387,1.568710866,0,5,12,1,49,3,1,,,,,,,,,,,,,,
,,,,,,,,,,,left.png,,w,right,61525181e018e4f7c9d94299,2021-10-27_09h15.49.547,arrow_simon_punish,2021.1.2,Win32,60.0528465,,,,,,,,,,,,,,p,0,1.5175,2.280870411,1,5,12,2,50,3,1,,,,,,,,,,,,,,
,,,,,,,,,,,left.png,,w,right,61525181e018e4f7c9d94299,2021-10-27_09h15.49.547,arrow_simon_punish,2021.1.2,Win32,60.0528465,,,,,,,,,,,,,,w,1,1.5625,1.752357932,0,5,12,3,51,3,1,,,,,,,,,,,,,,
,,,,,,,,,,,right.png,,p,right,61525181e018e4f7c9d94299,2021-10-27_09h15.49.547,arrow_simon_punish,2021.1.2,Win32,60.0528465,,,,,,,,,,,,,,w,0,1.551,2.17892292,1,5,13,0,52,1,1,,,,,,,,,,,,,,
,,,,,,,,,,,right.png,,p,left,61525181e018e4f7c9d94299,2021-10-27_09h15.49.547,arrow_simon_punish,2021.1.2,Win32,60.0528465,,,,,,,,,,,,,,w,0,1.4995,2.148611649,1,5,13,1,53,0,1,,,,,,,,,,,,,,
,,,,,,,,,,,right.png,,p,right,61525181e018e4f7c9d94299,2021-10-27_09h15.49.547,arrow_simon_punish,2021.1.2,Win32,60.0528465,,,,,,,,,,,,,,p,1,1.3955,1.97887656,1,5,13,2,54,1,1,,,,,,,,,,,,,,
,,,,,,,,,,,right.png,,p,left,61525181e018e4f7c9d94299,2021-10-27_09h15.49.547,arrow_simon_punish,2021.1.2,Win32,60.0528465,,,,,,,,,,,,,,p,1,1.5983,1.987265329,0,5,13,3,55,0,1,,,,,,,,,,,,,,
,,,,,,,,,,,left.png,,w,right,61525181e018e4f7c9d94299,2021-10-27_09h15.49.547,arrow_simon_punish,2021.1.2,Win32,60.0528465,,,,,,,,,,,,,,w,1,1.3088,1.857202994,1,5,14,0,56,3,1,,,,,,,,,,,,,,
,,,,,,,,,,,right.png,,p,right,61525181e018e4f7c9d94299,2021-10-27_09h15.49.547,arrow_simon_punish,2021.1.2,Win32,60.0528465,,,,,,,,,,,,,,p,1,1.5902,1.806600918,0,5,14,1,57,1,1,,,,,,,,,,,,,,
,,,,,,,,,,,right.png,,p,right,61525181e018e4f7c9d94299,2021-10-27_09h15.49.547,arrow_simon_punish,2021.1.2,Win32,60.0528465,,,,,,,,,,,,,,p,1,1.6444,1.844614363,1,5,14,2,58,1,1,,,,,,,,,,,,,,
,,,,,,,,,,,left.png,,w,right,61525181e018e4f7c9d94299,2021-10-27_09h15.49.547,arrow_simon_punish,2021.1.2,Win32,60.0528465,,,,,,,,,,,,,,w,1,1.6342,2.063121811,1,5,14,3,59,3,1,,,,,,,,,,,,,,
,,,,,,,,,,,,,,,61525181e018e4f7c9d94299,2021-10-27_09h15.49.547,arrow_simon_punish,2021.1.2,Win32,60.0528465,,,,,,,,,,,,,,,,,,,,,,,,,space,1.5321,5,1,1,3,1,1,5,,,,,
,,,,,,,,,,,left.png,,w,left,61525181e018e4f7c9d94299,2021-10-27_09h15.49.547,arrow_simon_punish,2021.1.2,Win32,60.0528465,,,,,,,,,,,,,,w,1,1.6092,1.977414139,1,1,0,0,0,2,1,,,,,,,,,,,,,,
,,,,,,,,,,,right.png,,p,right,61525181e018e4f7c9d94299,2021-10-27_09h15.49.547,arrow_simon_punish,2021.1.2,Win32,60.0528465,,,,,,,,,,,,,,p,1,1.5123,1.718555891,0,1,0,1,1,1,1,,,,,,,,,,,,,,
,,,,,,,,,,,right.png,,p,left,61525181e018e4f7c9d94299,2021-10-27_09h15.49.547,arrow_simon_punish,2021.1.2,Win32,60.0528465,,,,,,,,,,,,,,w,0,1.5677,2.461086109,1,1,0,2,2,0,1,,,,,,,,,,,,,,
,,,,,,,,,,,right.png,,p,right,61525181e018e4f7c9d94299,2021-10-27_09h15.49.547,arrow_simon_punish,2021.1.2,Win32,60.0528465,,,,,,,,,,,,,,p,1,1.4565,1.75653808,0,1,0,3,3,1,1,,,,,,,,,,,,,,
,,,,,,,,,,,left.png,,w,left,61525181e018e4f7c9d94299,2021-10-27_09h15.49.547,arrow_simon_punish,2021.1.2,Win32,60.0528465,,,,,,,,,,,,,,w,1,1.6443,2.11431294,1,1,1,0,4,2,1,,,,,,,,,,,,,,
,,,,,,,,,,,left.png,,w,right,61525181e018e4f7c9d94299,2021-10-27_09h15.49.547,arrow_simon_punish,2021.1.2,Win32,60.0528465,,,,,,,,,,,,,,w,1,1.5567,1.705032561,0,1,1,1,5,3,1,,,,,,,,,,,,,,
,,,,,,,,,,,right.png,,p,right,61525181e018e4f7c9d94299,2021-10-27_09h15.49.547,arrow_simon_punish,2021.1.2,Win32,60.0528465,,,,,,,,,,,,,,p,1,1.4765,1.74689491,0,1,1,2,6,1,1,,,,,,,,,,,,,,
,,,,,,,,,,,left.png,,w,left,61525181e018e4f7c9d94299,2021-10-27_09h15.49.547,arrow_simon_punish,2021.1.2,Win32,60.0528465,,,,,,,,,,,,,,w,1,1.6163,2.357939949,1,1,1,3,7,2,1,,,,,,,,,,,,,,
,,,,,,,,,,,right.png,,p,right,61525181e018e4f7c9d94299,2021-10-27_09h15.49.547,arrow_simon_punish,2021.1.2,Win32,60.0528465,,,,,,,,,,,,,,p,1,1.4693,2.143073286,0,1,2,0,8,1,1,,,,,,,,,,,,,,
,,,,,,,,,,,left.png,,w,left,61525181e018e4f7c9d94299,2021-10-27_09h15.49.547,arrow_simon_punish,2021.1.2,Win32,60.0528465,,,,,,,,,,,,,,w,1,1.4413,1.516380806,0,1,2,1,9,2,1,,,,,,,,,,,,,,
,,,,,,,,,,,right.png,,p,right,61525181e018e4f7c9d94299,2021-10-27_09h15.49.547,arrow_simon_punish,2021.1.2,Win32,60.0528465,,,,,,,,,,,,,,p,1,1.4691,1.724912479,0,1,2,2,10,1,1,,,,,,,,,,,,,,
,,,,,,,,,,,left.png,,w,left,61525181e018e4f7c9d94299,2021-10-27_09h15.49.547,arrow_simon_punish,2021.1.2,Win32,60.0528465,,,,,,,,,,,,,,w,1,1.6577,2.369799026,1,1,2,3,11,2,1,,,,,,,,,,,,,,
,,,,,,,,,,,left.png,,w,left,61525181e018e4f7c9d94299,2021-10-27_09h15.49.547,arrow_simon_punish,2021.1.2,Win32,60.0528465,,,,,,,,,,,,,,w,1,1.4728,2.188310283,0,1,3,0,12,2,1,,,,,,,,,,,,,,
,,,,,,,,,,,right.png,,p,left,61525181e018e4f7c9d94299,2021-10-27_09h15.49.547,arrow_simon_punish,2021.1.2,Win32,60.0528465,,,,,,,,,,,,,,w,0,1.3884,2.075064636,1,1,3,1,13,0,1,,,,,,,,,,,,,,
,,,,,,,,,,,right.png,,p,left,61525181e018e4f7c9d94299,2021-10-27_09h15.49.547,arrow_simon_punish,2021.1.2,Win32,60.0528465,,,,,,,,,,,,,,p,1,1.6289,2.072986436,1,1,3,2,14,0,1,,,,,,,,,,,,,,
,,,,,,,,,,,left.png,,w,left,61525181e018e4f7c9d94299,2021-10-27_09h15.49.547,arrow_simon_punish,2021.1.2,Win32,60.0528465,,,,,,,,,,,,,,w,1,1.4846,1.944626944,0,1,3,3,15,2,1,,,,,,,,,,,,,,
,,,,,,,,,,,left.png,,w,left,61525181e018e4f7c9d94299,2021-10-27_09h15.49.547,arrow_simon_punish,2021.1.2,Win32,60.0528465,,,,,,,,,,,,,,w,1,1.4249,2.411943707,0,1,4,0,16,2,1,,,,,,,,,,,,,,
,,,,,,,,,,,left.png,,w,right,61525181e018e4f7c9d94299,2021-10-27_09h15.49.547,arrow_simon_punish,2021.1.2,Win32,60.0528465,,,,,,,,,,,,,,w,1,1.5664,1.946672459,0,1,4,1,17,3,1,,,,,,,,,,,,,,
,,,,,,,,,,,right.png,,p,left,61525181e018e4f7c9d94299,2021-10-27_09h15.49.547,arrow_simon_punish,2021.1.2,Win32,60.0528465,,,,,,,,,,,,,,p,1,1.3734,1.702067294,1,1,4,2,18,0,1,,,,,,,,,,,,,,
,,,,,,,,,,,left.png,,w,left,61525181e018e4f7c9d94299,2021-10-27_09h15.49.547,arrow_simon_punish,2021.1.2,Win32,60.0528465,,,,,,,,,,,,,,w,1,1.4088,1.798753539,0,1,4,3,19,2,1,,,,,,,,,,,,,,
,,,,,,,,,,,right.png,,p,right,61525181e018e4f7c9d94299,2021-10-27_09h15.49.547,arrow_simon_punish,2021.1.2,Win32,60.0528465,,,,,,,,,,,,,,w,0,1.5409,2.131083721,1,1,5,0,20,1,1,,,,,,,,,,,,,,
,,,,,,,,,,,right.png,,p,right,61525181e018e4f7c9d94299,2021-10-27_09h15.49.547,arrow_simon_punish,2021.1.2,Win32,60.0528465,,,,,,,,,,,,,,p,1,1.4705,1.518411121,0,1,5,1,21,1,1,,,,,,,,,,,,,,
,,,,,,,,,,,left.png,,w,right,61525181e018e4f7c9d94299,2021-10-27_09h15.49.547,arrow_simon_punish,2021.1.2,Win32,60.0528465,,,,,,,,,,,,,,w,1,1.594,1.985516321,0,1,5,2,22,3,1,,,,,,,,,,,,,,
,,,,,,,,,,,left.png,,w,right,61525181e018e4f7c9d94299,2021-10-27_09h15.49.547,arrow_simon_punish,2021.1.2,Win32,60.0528465,,,,,,,,,,,,,,w,1,1.5554,2.398778511,0,1,5,3,23,3,1,,,,,,,,,,,,,,
,,,,,,,,,,,right.png,,p,left,61525181e018e4f7c9d94299,2021-10-27_09h15.49.547,arrow_simon_punish,2021.1.2,Win32,60.0528465,,,,,,,,,,,,,,w,0,1.4657,2.212295968,1,1,6,0,24,0,1,,,,,,,,,,,,,,
,,,,,,,,,,,right.png,,p,right,61525181e018e4f7c9d94299,2021-10-27_09h15.49.547,arrow_simon_punish,2021.1.2,Win32,60.0528465,,,,,,,,,,,,,,p,1,1.5358,1.595135404,0,1,6,1,25,1,1,,,,,,,,,,,,,,
,,,,,,,,,,,left.png,,w,right,61525181e018e4f7c9d94299,2021-10-27_09h15.49.547,arrow_simon_punish,2021.1.2,Win32,60.0528465,,,,,,,,,,,,,,w,1,1.5647,1.765061902,0,1,6,2,26,3,1,,,,,,,,,,,,,,
,,,,,,,,,,,right.png,,p,right,61525181e018e4f7c9d94299,2021-10-27_09h15.49.547,arrow_simon_punish,2021.1.2,Win32,60.0528465,,,,,,,,,,,,,,w,0,1.4804,2.271422947,1,1,6,3,27,1,1,,,,,,,,,,,,,,
,,,,,,,,,,,right.png,,p,left,61525181e018e4f7c9d94299,2021-10-27_09h15.49.547,arrow_simon_punish,2021.1.2,Win32,60.0528465,,,,,,,,,,,,,,w,0,1.4571,2.453190721,1,1,7,0,28,0,1,,,,,,,,,,,,,,
,,,,,,,,,,,left.png,,w,left,61525181e018e4f7c9d94299,2021-10-27_09h15.49.547,arrow_simon_punish,2021.1.2,Win32,60.0528465,,,,,,,,,,,,,,w,1,1.6177,1.651399482,1,1,7,1,29,2,1,,,,,,,,,,,,,,
,,,,,,,,,,,left.png,,w,right,61525181e018e4f7c9d94299,2021-10-27_09h15.49.547,arrow_simon_punish,2021.1.2,Win32,60.0528465,,,,,,,,,,,,,,p,0,1.6106,2.110619728,1,1,7,2,30,3,1,,,,,,,,,,,,,,
,,,,,,,,,,,left.png,,w,right,61525181e018e4f7c9d94299,2021-10-27_09h15.49.547,arrow_simon_punish,2021.1.2,Win32,60.0528465,,,,,,,,,,,,,,p,0,1.5406,2.321232605,1,1,7,3,31,3,1,,,,,,,,,,,,,,
,,,,,,,,,,,left.png,,w,right,61525181e018e4f7c9d94299,2021-10-27_09h15.49.547,arrow_simon_punish,2021.1.2,Win32,60.0528465,,,,,,,,,,,,,,w,1,1.6128,1.622941328,1,1,8,0,32,3,1,,,,,,,,,,,,,,
,,,,,,,,,,,right.png,,p,left,61525181e018e4f7c9d94299,2021-10-27_09h15.49.547,arrow_simon_punish,2021.1.2,Win32,60.0528465,,,,,,,,,,,,,,p,1,1.4233,1.664283689,0,1,8,1,33,0,1,,,,,,,,,,,,,,
,,,,,,,,,,,right.png,,p,left,61525181e018e4f7c9d94299,2021-10-27_09h15.49.547,arrow_simon_punish,2021.1.2,Win32,60.0528465,,,,,,,,,,,,,,p,1,1.597,2.184440568,0,1,8,2,34,0,1,,,,,,,,,,,,,,
,,,,,,,,,,,right.png,,p,right,61525181e018e4f7c9d94299,2021-10-27_09h15.49.547,arrow_simon_punish,2021.1.2,Win32,60.0528465,,,,,,,,,,,,,,p,1,1.5787,2.008163332,0,1,8,3,35,1,1,,,,,,,,,,,,,,
,,,,,,,,,,,left.png,,w,left,61525181e018e4f7c9d94299,2021-10-27_09h15.49.547,arrow_simon_punish,2021.1.2,Win32,60.0528465,,,,,,,,,,,,,,p,0,1.5388,2.411861196,1,1,9,0,36,2,1,,,,,,,,,,,,,,
,,,,,,,,,,,right.png,,p,left,61525181e018e4f7c9d94299,2021-10-27_09h15.49.547,arrow_simon_punish,2021.1.2,Win32,60.0528465,,,,,,,,,,,,,,p,1,1.5979,1.702043501,0,1,9,1,37,0,1,,,,,,,,,,,,,,
,,,,,,,,,,,left.png,,w,left,61525181e018e4f7c9d94299,2021-10-27_09h15.49.547,arrow_simon_punish,2021.1.2,Win32,60.0528465,,,,,,,,,,,,,,w,1,1.4998,1.653438377,0,1,9,2,38,2,1,,,,,,,,,,,,,,
,,,,,,,,,,,right.png,,p,right,61525181e018e4f7c9d94299,2021-10-27_09h15.49.547,arrow_simon_punish,2021.1.2,Win32,60.0528465,,,,,,,,,,,,,,p,1,1.5721,2.159700576,0,1,9,3,39,1,1,,,,,,,,,,,,,,
,,,,,,,,,,,left.png,,w,right,61525181e018e4f7c9d94299,2021-10-27_09h15.49.547,arrow_simon_punish,2021.1.2,Win32,60.0528465,,,,,,,,,,,,,,w,1,1.5405,1.823555199,0,1,10,0,40,3,1,,,,,,,,,,,,,,
,,,,,,,,,,,left.png,,w,left,61525181e018e4f7c9d94299,2021-10-27_09h15.49.547,arrow_simon_punish,2021.1.2,Win32,60.0528465,,,,,,,,,,,,,,w,1,1.5265,2.437839609,0,1,10,1,41,2,1,,,,,,,,,,,,,,
,,,,,,,,,,,left.png,,w,right,61525181e018e4f7c9d94299,2021-10-27_09h15.49.547,arrow_simon_punish,2021.1.2,Win32,60.0528465,,,,,,,,,,,,,,w,1,1.4918,2.390826835,0,1,10,2,42,3,1,,,,,,,,,,,,,,
,,,,,,,,,,,right.png,,p,right,61525181e018e4f7c9d94299,2021-10-27_09h15.49.547,arrow_simon_punish,2021.1.2,Win32,60.0528465,,,,,,,,,,,,,,p,1,1.5627,1.961423827,0,1,10,3,43,1,1,,,,,,,,,,,,,,
,,,,,,,,,,,right.png,,p,left,61525181e018e4f7c9d94299,2021-10-27_09h15.49.547,arrow_simon_punish,2021.1.2,Win32,60.0528465,,,,,,,,,,,,,,p,1,1.6002,2.046127795,1,1,11,0,44,0,1,,,,,,,,,,,,,,
,,,,,,,,,,,left.png,,w,left,61525181e018e4f7c9d94299,2021-10-27_09h15.49.547,arrow_simon_punish,2021.1.2,Win32,60.0528465,,,,,,,,,,,,,,w,1,1.6094,1.998283921,1,1,11,1,45,2,1,,,,,,,,,,,,,,
,,,,,,,,,,,right.png,,p,left,61525181e018e4f7c9d94299,2021-10-27_09h15.49.547,arrow_simon_punish,2021.1.2,Win32,60.0528465,,,,,,,,,,,,,,p,1,1.654,2.145908311,1,1,11,2,46,0,1,,,,,,,,,,,,,,
,,,,,,,,,,,left.png,,w,right,61525181e018e4f7c9d94299,2021-10-27_09h15.49.547,arrow_simon_punish,2021.1.2,Win32,60.0528465,,,,,,,,,,,,,,w,1,1.5149,1.903707941,0,1,11,3,47,3,1,,,,,,,,,,,,,,
,,,,,,,,,,,right.png,,p,left,61525181e018e4f7c9d94299,2021-10-27_09h15.49.547,arrow_simon_punish,2021.1.2,Win32,60.0528465,,,,,,,,,,,,,,p,1,1.5063,1.837355902,0,1,12,0,48,0,1,,,,,,,,,,,,,,
,,,,,,,,,,,left.png,,w,left,61525181e018e4f7c9d94299,2021-10-27_09h15.49.547,arrow_simon_punish,2021.1.2,Win32,60.0528465,,,,,,,,,,,,,,p,0,1.5049,2.488453738,1,1,12,1,49,2,1,,,,,,,,,,,,,,
,,,,,,,,,,,right.png,,p,right,61525181e018e4f7c9d94299,2021-10-27_09h15.49.547,arrow_simon_punish,2021.1.2,Win32,60.0528465,,,,,,,,,,,,,,p,1,1.4624,2.367815358,0,1,12,2,50,1,1,,,,,,,,,,,,,,
,,,,,,,,,,,left.png,,w,right,61525181e018e4f7c9d94299,2021-10-27_09h15.49.547,arrow_simon_punish,2021.1.2,Win32,60.0528465,,,,,,,,,,,,,,w,1,1.6154,1.763262075,1,1,12,3,51,3,1,,,,,,,,,,,,,,
,,,,,,,,,,,right.png,,p,right,61525181e018e4f7c9d94299,2021-10-27_09h15.49.547,arrow_simon_punish,2021.1.2,Win32,60.0528465,,,,,,,,,,,,,,p,1,1.4355,2.005752479,0,1,13,0,52,1,1,,,,,,,,,,,,,,
,,,,,,,,,,,left.png,,w,right,61525181e018e4f7c9d94299,2021-10-27_09h15.49.547,arrow_simon_punish,2021.1.2,Win32,60.0528465,,,,,,,,,,,,,,w,1,1.5266,1.573462067,0,1,13,1,53,3,1,,,,,,,,,,,,,,
,,,,,,,,,,,left.png,,w,right,61525181e018e4f7c9d94299,2021-10-27_09h15.49.547,arrow_simon_punish,2021.1.2,Win32,60.0528465,,,,,,,,,,,,,,w,1,1.3893,1.835621442,1,1,13,2,54,3,1,,,,,,,,,,,,,,
,,,,,,,,,,,right.png,,p,right,61525181e018e4f7c9d94299,2021-10-27_09h15.49.547,arrow_simon_punish,2021.1.2,Win32,60.0528465,,,,,,,,,,,,,,w,0,1.3365,2.125254397,1,1,13,3,55,1,1,,,,,,,,,,,,,,
,,,,,,,,,,,right.png,,p,left,61525181e018e4f7c9d94299,2021-10-27_09h15.49.547,arrow_simon_punish,2021.1.2,Win32,60.0528465,,,,,,,,,,,,,,w,0,1.4384,2.339511158,1,1,14,0,56,0,1,,,,,,,,,,,,,,
,,,,,,,,,,,left.png,,w,right,61525181e018e4f7c9d94299,2021-10-27_09h15.49.547,arrow_simon_punish,2021.1.2,Win32,60.0528465,,,,,,,,,,,,,,w,1,1.5132,1.840599027,0,1,14,1,57,3,1,,,,,,,,,,,,,,
,,,,,,,,,,,right.png,,p,left,61525181e018e4f7c9d94299,2021-10-27_09h15.49.547,arrow_simon_punish,2021.1.2,Win32,60.0528465,,,,,,,,,,,,,,w,0,1.4807,2.33684029,1,1,14,2,58,0,1,,,,,,,,,,,,,,
,,,,,,,,,,,right.png,,p,left,61525181e018e4f7c9d94299,2021-10-27_09h15.49.547,arrow_simon_punish,2021.1.2,Win32,60.0528465,,,,,,,,,,,,,,p,1,1.5055,2.035034793,0,1,14,3,59,0,1,,,,,,,,,,,,,,
,,,,,,,,,,,,,,,61525181e018e4f7c9d94299,2021-10-27_09h15.49.547,arrow_simon_punish,2021.1.2,Win32,60.0528465,,,,,,,,,,,,,,,,,,,,,,,,,space,52.3802,6,2,0,4,0,1,1,,,,,
,,,,,,,,,,,right.png,,p,right,61525181e018e4f7c9d94299,2021-10-27_09h15.49.547,arrow_simon_punish,2021.1.2,Win32,60.0528465,,,,,,,,,,,,,,p,1,1.5287,1.717505494,0,5,0,0,0,1,1,,,,,,,,,,,,,,
,,,,,,,,,,,left.png,,w,left,61525181e018e4f7c9d94299,2021-10-27_09h15.49.547,arrow_simon_punish,2021.1.2,Win32,60.0528465,,,,,,,,,,,,,,w,1,1.6382,2.014840881,1,5,0,1,1,2,1,,,,,,,,,,,,,,
,,,,,,,,,,,right.png,,p,right,61525181e018e4f7c9d94299,2021-10-27_09h15.49.547,arrow_simon_punish,2021.1.2,Win32,60.0528465,,,,,,,,,,,,,,p,1,1.4755,2.040625675,0,5,0,2,2,1,1,,,,,,,,,,,,,,
,,,,,,,,,,,left.png,,w,right,61525181e018e4f7c9d94299,2021-10-27_09h15.49.547,arrow_simon_punish,2021.1.2,Win32,60.0528465,,,,,,,,,,,,,,w,1,1.5332,1.692343095,0,5,0,3,3,3,1,,,,,,,,,,,,,,
,,,,,,,,,,,left.png,,w,right,61525181e018e4f7c9d94299,2021-10-27_09h15.49.547,arrow_simon_punish,2021.1.2,Win32,60.0528465,,,,,,,,,,,,,,p,0,1.4787,2.37949196,1,5,1,0,4,3,1,,,,,,,,,,,,,,
,,,,,,,,,,,left.png,,w,left,61525181e018e4f7c9d94299,2021-10-27_09h15.49.547,arrow_simon_punish,2021.1.2,Win32,60.0528465,,,,,,,,,,,,,,p,0,1.5363,2.450989863,1,5,1,1,5,2,1,,,,,,,,,,,,,,
,,,,,,,,,,,right.png,,p,left,61525181e018e4f7c9d94299,2021-10-27_09h15.49.547,arrow_simon_punish,2021.1.2,Win32,60.0528465,,,,,,,,,,,,,,p,1,1.4008,1.633757675,0,5,1,2,6,0,1,,,,,,,,,,,,,,
,,,,,,,,,,,left.png,,w,right,61525181e018e4f7c9d94299,2021-10-27_09h15.49.547,arrow_simon_punish,2021.1.2,Win32,60.0528465,,,,,,,,,,,,,,p,0,1.4989,2.22295648,1,5,1,3,7,3,1,,,,,,,,,,,,,,
,,,,,,,,,,,left.png,,w,left,61525181e018e4f7c9d94299,2021-10-27_09h15.49.547,arrow_simon_punish,2021.1.2,Win32,60.0528465,,,,,,,,,,,,,,w,1,1.49,2.479596066,0,5,2,0,8,2,1,,,,,,,,,,,,,,
,,,,,,,,,,,left.png,,w,right,61525181e018e4f7c9d94299,2021-10-27_09h15.49.547,arrow_simon_punish,2021.1.2,Win32,60.0528465,,,,,,,,,,,,,,w,1,1.6235,2.438006262,1,5,2,1,9,3,1,,,,,,,,,,,,,,
,,,,,,,,,,,left.png,,w,right,61525181e018e4f7c9d94299,2021-10-27_09h15.49.547,arrow_simon_punish,2021.1.2,Win32,60.0528465,,,,,,,,,,,,,,w,1,1.539,2.429331133,0,5,2,2,10,3,1,,,,,,,,,,,,,,
,,,,,,,,,,,left.png,,w,left,61525181e018e4f7c9d94299,2021-10-27_09h15.49.547,arrow_simon_punish,2021.1.2,Win32,60.0528465,,,,,,,,,,,,,,w,1,1.2942,1.850554227,1,5,2,3,11,2,1,,,,,,,,,,,,,,
,,,,,,,,,,,left.png,,w,right,61525181e018e4f7c9d94299,2021-10-27_09h15.49.547,arrow_simon_punish,2021.1.2,Win32,60.0528465,,,,,,,,,,,,,,w,1,1.5671,2.055688652,0,5,3,0,12,3,1,,,,,,,,,,,,,,
,,,,,,,,,,,left.png,,w,left,61525181e018e4f7c9d94299,2021-10-27_09h15.49.547,arrow_simon_punish,2021.1.2,Win32,60.0528465,,,,,,,,,,,,,,w,1,1.4652,1.69139354,0,5,3,1,13,2,1,,,,,,,,,,,,,,
,,,,,,,,,,,right.png,,p,right,61525181e018e4f7c9d94299,2021-10-27_09h15.49.547,arrow_simon_punish,2021.1.2,Win32,60.0528465,,,,,,,,,,,,,,p,1,1.445,1.847993125,0,5,3,2,14,1,1,,,,,,,,,,,,,,
,,,,,,,,,,,right.png,,p,right,61525181e018e4f7c9d94299,2021-10-27_09h15.49.547,arrow_simon_punish,2021.1.2,Win32,60.0528465,,,,,,,,,,,,,,p,1,1.4666,2.009330327,0,5,3,3,15,1,1,,,,,,,,,,,,,,
,,,,,,,,,,,left.png,,w,left,61525181e018e4f7c9d94299,2021-10-27_09h15.49.547,arrow_simon_punish,2021.1.2,Win32,60.0528465,,,,,,,,,,,,,,w,1,1.5848,2.201856911,0,5,4,0,16,2,1,,,,,,,,,,,,,,
,,,,,,,,,,,left.png,,w,left,61525181e018e4f7c9d94299,2021-10-27_09h15.49.547,arrow_simon_punish,2021.1.2,Win32,60.0528465,,,,,,,,,,,,,,w,1,1.5405,2.441579378,0,5,4,1,17,2,1,,,,,,,,,,,,,,
,,,,,,,,,,,right.png,,p,left,61525181e018e4f7c9d94299,2021-10-27_09h15.49.547,arrow_simon_punish,2021.1.2,Win32,60.0528465,,,,,,,,,,,,,,w,0,1.5519,2.373830028,1,5,4,2,18,0,1,,,,,,,,,,,,,,
,,,,,,,,,,,right.png,,p,left,61525181e018e4f7c9d94299,2021-10-27_09h15.49.547,arrow_simon_punish,2021.1.2,Win32,60.0528465,,,,,,,,,,,,,,p,1,1.6235,2.403683203,1,5,4,3,19,0,1,,,,,,,,,,,,,,
,,,,,,,,,,,left.png,,w,left,61525181e018e4f7c9d94299,2021-10-27_09h15.49.547,arrow_simon_punish,2021.1.2,Win32,60.0528465,,,,,,,,,,,,,,w,1,1.4856,2.175961444,0,5,5,0,20,2,1,,,,,,,,,,,,,,
,,,,,,,,,,,right.png,,p,right,61525181e018e4f7c9d94299,2021-10-27_09h15.49.547,arrow_simon_punish,2021.1.2,Win32,60.0528465,,,,,,,,,,,,,,w,0,1.746,2.433057041,1,5,5,1,21,1,1,,,,,,,,,,,,,,
,,,,,,,,,,,left.png,,w,right,61525181e018e4f7c9d94299,2021-10-27_09h15.49.547,arrow_simon_punish,2021.1.2,Win32,60.0528465,,,,,,,,,,,,,,p,0,1.6695,2.315415777,1,5,5,2,22,3,1,,,,,,,,,,,,,,
,,,,,,,,,,,left.png,,w,right,61525181e018e4f7c9d94299,2021-10-27_09h15.49.547,arrow_simon_punish,2021.1.2,Win32,60.0528465,,,,,,,,,,,,,,w,1,1.4389,2.028588531,0,5,5,3,23,3,1,,,,,,,,,,,,,,
,,,,,,,,,,,right.png,,p,left,61525181e018e4f7c9d94299,2021-10-27_09h15.49.547,arrow_simon_punish,2021.1.2,Win32,60.0528465,,,,,,,,,,,,,,p,1,1.5139,2.031549136,0,5,6,0,24,0,1,,,,,,,,,,,,,,
,,,,,,,,,,,right.png,,p,right,61525181e018e4f7c9d94299,2021-10-27_09h15.49.547,arrow_simon_punish,2021.1.2,Win32,60.0528465,,,,,,,,,,,,,,p,1,1.4925,2.080405838,0,5,6,1,25,1,1,,,,,,,,,,,,,,
,,,,,,,,,,,right.png,,p,left,61525181e018e4f7c9d94299,2021-10-27_09h15.49.547,arrow_simon_punish,2021.1.2,Win32,60.0528465,,,,,,,,,,,,,,w,0,1.5573,2.219051474,1,5,6,2,26,0,1,,,,,,,,,,,,,,
,,,,,,,,,,,left.png,,w,left,61525181e018e4f7c9d94299,2021-10-27_09h15.49.547,arrow_simon_punish,2021.1.2,Win32,60.0528465,,,,,,,,,,,,,,w,1,1.0867,2.064307353,1,5,6,3,27,2,1,,,,,,,,,,,,,,
,,,,,,,,,,,right.png,,p,right,61525181e018e4f7c9d94299,2021-10-27_09h15.49.547,arrow_simon_punish,2021.1.2,Win32,60.0528465,,,,,,,,,,,,,,p,1,1.4907,1.538417826,0,5,7,0,28,1,1,,,,,,,,,,,,,,
,,,,,,,,,,,left.png,,w,right,61525181e018e4f7c9d94299,2021-10-27_09h15.49.547,arrow_simon_punish,2021.1.2,Win32,60.0528465,,,,,,,,,,,,,,p,0,1.5083,2.208499257,1,5,7,1,29,3,1,,,,,,,,,,,,,,
,,,,,,,,,,,left.png,,w,left,61525181e018e4f7c9d94299,2021-10-27_09h15.49.547,arrow_simon_punish,2021.1.2,Win32,60.0528465,,,,,,,,,,,,,,w,1,1.5365,2.061072772,0,5,7,2,30,2,1,,,,,,,,,,,,,,
,,,,,,,,,,,right.png,,p,right,61525181e018e4f7c9d94299,2021-10-27_09h15.49.547,arrow_simon_punish,2021.1.2,Win32,60.0528465,,,,,,,,,,,,,,p,1,1.5696,1.913800495,0,5,7,3,31,1,1,,,,,,,,,,,,,,
,,,,,,,,,,,left.png,,w,left,61525181e018e4f7c9d94299,2021-10-27_09h15.49.547,arrow_simon_punish,2021.1.2,Win32,60.0528465,,,,,,,,,,,,,,w,1,1.4213,2.061053013,0,5,8,0,32,2,1,,,,,,,,,,,,,,
,,,,,,,,,,,right.png,,p,right,61525181e018e4f7c9d94299,2021-10-27_09h15.49.547,arrow_simon_punish,2021.1.2,Win32,60.0528465,,,,,,,,,,,,,,w,0,1.7889,2.466651568,1,5,8,1,33,1,1,,,,,,,,,,,,,,
,,,,,,,,,,,right.png,,p,right,61525181e018e4f7c9d94299,2021-10-27_09h15.49.547,arrow_simon_punish,2021.1.2,Win32,60.0528465,,,,,,,,,,,,,,p,1,1.6079,2.281720555,1,5,8,2,34,1,1,,,,,,,,,,,,,,
,,,,,,,,,,,right.png,,p,left,61525181e018e4f7c9d94299,2021-10-27_09h15.49.547,arrow_simon_punish,2021.1.2,Win32,60.0528465,,,,,,,,,,,,,,w,0,1.5875,2.421681121,1,5,8,3,35,0,1,,,,,,,,,,,,,,
,,,,,,,,,,,left.png,,w,right,61525181e018e4f7c9d94299,2021-10-27_09h15.49.547,arrow_simon_punish,2021.1.2,Win32,60.0528465,,,,,,,,,,,,,,p,0,1.1306,1.904551369,1,5,9,0,36,3,1,,,,,,,,,,,,,,
,,,,,,,,,,,left.png,,w,left,61525181e018e4f7c9d94299,2021-10-27_09h15.49.547,arrow_simon_punish,2021.1.2,Win32,60.0528465,,,,,,,,,,,,,,w,1,1.5831,1.850688813,0,5,9,1,37,2,1,,,,,,,,,,,,,,
,,,,,,,,,,,right.png,,p,left,61525181e018e4f7c9d94299,2021-10-27_09h15.49.547,arrow_simon_punish,2021.1.2,Win32,60.0528465,,,,,,,,,,,,,,p,1,1.6031,1.936141797,1,5,9,2,38,0,1,,,,,,,,,,,,,,
,,,,,,,,,,,right.png,,p,right,61525181e018e4f7c9d94299,2021-10-27_09h15.49.547,arrow_simon_punish,2021.1.2,Win32,60.0528465,,,,,,,,,,,,,,p,1,1.6321,2.038738575,1,5,9,3,39,1,1,,,,,,,,,,,,,,
,,,,,,,,,,,left.png,,w,left,61525181e018e4f7c9d94299,2021-10-27_09h15.49.547,arrow_simon_punish,2021.1.2,Win32,60.0528465,,,,,,,,,,,,,,w,1,1.5706,1.549844127,0,5,10,0,40,2,1,,,,,,,,,,,,,,
,,,,,,,,,,,right.png,,p,right,61525181e018e4f7c9d94299,2021-10-27_09h15.49.547,arrow_simon_punish,2021.1.2,Win32,60.0528465,,,,,,,,,,,,,,p,1,1.5148,1.637804121,0,5,10,1,41,1,1,,,,,,,,,,,,,,
,,,,,,,,,,,right.png,,p,left,61525181e018e4f7c9d94299,2021-10-27_09h15.49.547,arrow_simon_punish,2021.1.2,Win32,60.0528465,,,,,,,,,,,,,,p,1,1.4521,1.511272351,0,5,10,2,42,0,1,,,,,,,,,,,,,,
,,,,,,,,,,,right.png,,p,left,61525181e018e4f7c9d94299,2021-10-27_09h15.49.547,arrow_simon_punish,2021.1.2,Win32,60.0528465,,,,,,,,,,,,,,w,0,1.5685,2.40532248,1,5,10,3,43,0,1,,,,,,,,,,,,,,
,,,,,,,,,,,right.png,,p,right,61525181e018e4f7c9d94299,2021-10-27_09h15.49.547,arrow_simon_punish,2021.1.2,Win32,60.0528465,,,,,,,,,,,,,,p,1,1.6164,1.986232045,1,5,11,0,44,1,1,,,,,,,,,,,,,,
,,,,,,,,,,,left.png,,w,left,61525181e018e4f7c9d94299,2021-10-27_09h15.49.547,arrow_simon_punish,2021.1.2,Win32,60.0528465,,,,,,,,,,,,,,p,0,1.4754,2.327824474,1,5,11,1,45,2,1,,,,,,,,,,,,,,
,,,,,,,,,,,left.png,,w,right,61525181e018e4f7c9d94299,2021-10-27_09h15.49.547,arrow_simon_punish,2021.1.2,Win32,60.0528465,,,,,,,,,,,,,,w,1,1.4565,1.885116982,0,5,11,2,46,3,1,,,,,,,,,,,,,,
,,,,,,,,,,,right.png,,p,left,61525181e018e4f7c9d94299,2021-10-27_09h15.49.547,arrow_simon_punish,2021.1.2,Win32,60.0528465,,,,,,,,,,,,,,p,1,1.6317,2.151512507,1,5,11,3,47,0,1,,,,,,,,,,,,,,
,,,,,,,,,,,left.png,,w,right,61525181e018e4f7c9d94299,2021-10-27_09h15.49.547,arrow_simon_punish,2021.1.2,Win32,60.0528465,,,,,,,,,,,,,,w,1,1.5226,2.036368134,0,5,12,0,48,3,1,,,,,,,,,,,,,,
,,,,,,,,,,,right.png,,p,left,61525181e018e4f7c9d94299,2021-10-27_09h15.49.547,arrow_simon_punish,2021.1.2,Win32,60.0528465,,,,,,,,,,,,,,p,1,1.4369,1.877123638,0,5,12,1,49,0,1,,,,,,,,,,,,,,
,,,,,,,,,,,left.png,,w,left,61525181e018e4f7c9d94299,2021-10-27_09h15.49.547,arrow_simon_punish,2021.1.2,Win32,60.0528465,,,,,,,,,,,,,,w,1,1.5362,1.95287517,0,5,12,2,50,2,1,,,,,,,,,,,,,,
,,,,,,,,,,,right.png,,p,right,61525181e018e4f7c9d94299,2021-10-27_09h15.49.547,arrow_simon_punish,2021.1.2,Win32,60.0528465,,,,,,,,,,,,,,p,1,1.4268,1.814580318,0,5,12,3,51,1,1,,,,,,,,,,,,,,
,,,,,,,,,,,right.png,,p,left,61525181e018e4f7c9d94299,2021-10-27_09h15.49.547,arrow_simon_punish,2021.1.2,Win32,60.0528465,,,,,,,,,,,,,,p,1,1.4751,2.233586944,0,5,13,0,52,0,1,,,,,,,,,,,,,,
,,,,,,,,,,,right.png,,p,left,61525181e018e4f7c9d94299,2021-10-27_09h15.49.547,arrow_simon_punish,2021.1.2,Win32,60.0528465,,,,,,,,,,,,,,w,0,1.6219,2.419696313,1,5,13,1,53,0,1,,,,,,,,,,,,,,
,,,,,,,,,,,right.png,,p,left,61525181e018e4f7c9d94299,2021-10-27_09h15.49.547,arrow_simon_punish,2021.1.2,Win32,60.0528465,,,,,,,,,,,,,,p,1,1.4639,1.80433195,0,5,13,2,54,0,1,,,,,,,,,,,,,,
,,,,,,,,,,,left.png,,w,right,61525181e018e4f7c9d94299,2021-10-27_09h15.49.547,arrow_simon_punish,2021.1.2,Win32,60.0528465,,,,,,,,,,,,,,w,1,1.4253,1.750305629,0,5,13,3,55,3,1,,,,,,,,,,,,,,
,,,,,,,,,,,right.png,,p,left,61525181e018e4f7c9d94299,2021-10-27_09h15.49.547,arrow_simon_punish,2021.1.2,Win32,60.0528465,,,,,,,,,,,,,,p,1,1.4448,1.952566514,0,5,14,0,56,0,1,,,,,,,,,,,,,,
,,,,,,,,,,,right.png,,p,right,61525181e018e4f7c9d94299,2021-10-27_09h15.49.547,arrow_simon_punish,2021.1.2,Win32,60.0528465,,,,,,,,,,,,,,p,1,1.3591,1.511052789,1,5,14,1,57,1,1,,,,,,,,,,,,,,
,,,,,,,,,,,left.png,,w,right,61525181e018e4f7c9d94299,2021-10-27_09h15.49.547,arrow_simon_punish,2021.1.2,Win32,60.0528465,,,,,,,,,,,,,,w,1,1.5025,2.234922417,0,5,14,2,58,3,1,,,,,,,,,,,,,,
,,,,,,,,,,,left.png,,w,right,61525181e018e4f7c9d94299,2021-10-27_09h15.49.547,arrow_simon_punish,2021.1.2,Win32,60.0528465,,,,,,,,,,,,,,w,1,1.5445,1.672035004,0,5,14,3,59,3,1,,,,,,,,,,,,,,
,,,,,,,,,,,,,,,61525181e018e4f7c9d94299,2021-10-27_09h15.49.547,arrow_simon_punish,2021.1.2,Win32,60.0528465,,,,,,,,,,,,,,,,,,,,,,,,,space,10.0509,7,2,1,5,1,1,5,,,,,
,,,,,,,,,,,left.png,,w,left,61525181e018e4f7c9d94299,2021-10-27_09h15.49.547,arrow_simon_punish,2021.1.2,Win32,60.0528465,,,,,,,,,,,,,,w,1,1.6446,2.333123723,1,1,0,0,0,2,1,,,,,,,,,,,,,,
,,,,,,,,,,,left.png,,w,right,61525181e018e4f7c9d94299,2021-10-27_09h15.49.547,arrow_simon_punish,2021.1.2,Win32,60.0528465,,,,,,,,,,,,,,p,0,1.6384,2.25915562,1,1,0,1,1,3,1,,,,,,,,,,,,,,
,,,,,,,,,,,left.png,,w,left,61525181e018e4f7c9d94299,2021-10-27_09h15.49.547,arrow_simon_punish,2021.1.2,Win32,60.0528465,,,,,,,,,,,,,,w,1,1.57,1.933324974,0,1,0,2,2,2,1,,,,,,,,,,,,,,
,,,,,,,,,,,right.png,,p,left,61525181e018e4f7c9d94299,2021-10-27_09h15.49.547,arrow_simon_punish,2021.1.2,Win32,60.0528465,,,,,,,,,,,,,,p,1,1.4231,1.775486956,0,1,0,3,3,0,1,,,,,,,,,,,,,,
,,,,,,,,,,,right.png,,p,right,61525181e018e4f7c9d94299,2021-10-27_09h15.49.547,arrow_simon_punish,2021.1.2,Win32,60.0528465,,,,,,,,,,,,,,p,1,1.5791,2.076613266,0,1,1,0,4,1,1,,,,,,,,,,,,,,
,,,,,,,,,,,right.png,,p,right,61525181e018e4f7c9d94299,2021-10-27_09h15.49.547,arrow_simon_punish,2021.1.2,Win32,60.0528465,,,,,,,,,,,,,,p,1,1.6379,1.513820414,1,1,1,1,5,1,1,,,,,,,,,,,,,,
,,,,,,,,,,,right.png,,p,left,61525181e018e4f7c9d94299,2021-10-27_09h15.49.547,arrow_simon_punish,2021.1.2,Win32,60.0528465,,,,,,,,,,,,,,p,1,1.4449,1.708640551,0,1,1,2,6,0,1,,,,,,,,,,,,,,
,,,,,,,,,,,right.png,,p,left,61525181e018e4f7c9d94299,2021-10-27_09h15.49.547,arrow_simon_punish,2021.1.2,Win32,60.0528465,,,,,,,,,,,,,,p,1,1.5683,2.448006582,0,1,1,3,7,0,1,,,,,,,,,,,,,,
,,,,,,,,,,,left.png,,w,right,61525181e018e4f7c9d94299,2021-10-27_09h15.49.547,arrow_simon_punish,2021.1.2,Win32,60.0528465,,,,,,,,,,,,,,w,1,1.4875,1.958480498,0,1,2,0,8,3,1,,,,,,,,,,,,,,
,,,,,,,,,,,right.png,,p,right,61525181e018e4f7c9d94299,2021-10-27_09h15.49.547,arrow_simon_punish,2021.1.2,Win32,60.0528465,,,,,,,,,,,,,,p,1,1.4302,1.571908781,0,1,2,1,9,1,1,,,,,,,,,,,,,,
,,,,,,,,,,,right.png,,p,left,61525181e018e4f7c9d94299,2021-10-27_09h15.49.547,arrow_simon_punish,2021.1.2,Win32,60.0528465,,,,,,,,,,,,,,p,1,1.4061,1.524918054,0,1,2,2,10,0,1,,,,,,,,,,,,,,
,,,,,,,,,,,left.png,,w,left,61525181e018e4f7c9d94299,2021-10-27_09h15.49.547,arrow_simon_punish,2021.1.2,Win32,60.0528465,,,,,,,,,,,,,,w,1,1.4737,1.869563271,0,1,2,3,11,2,1,,,,,,,,,,,,,,
,,,,,,,,,,,left.png,,w,left,61525181e018e4f7c9d94299,2021-10-27_09h15.49.547,arrow_simon_punish,2021.1.2,Win32,60.0528465,,,,,,,,,,,,,,w,1,1.4103,1.508642693,0,1,3,0,12,2,1,,,,,,,,,,,,,,
,,,,,,,,,,,left.png,,w,right,61525181e018e4f7c9d94299,2021-10-27_09h15.49.547,arrow_simon_punish,2021.1.2,Win32,60.0528465,,,,,,,,,,,,,,w,1,1.5832,2.058405609,0,1,3,1,13,3,1,,,,,,,,,,,,,,
,,,,,,,,,,,right.png,,p,right,61525181e018e4f7c9d94299,2021-10-27_09h15.49.547,arrow_simon_punish,2021.1.2,Win32,60.0528465,,,,,,,,,,,,,,p,1,1.5199,1.891239123,0,1,3,2,14,1,1,,,,,,,,,,,,,,
,,,,,,,,,,,right.png,,p,right,61525181e018e4f7c9d94299,2021-10-27_09h15.49.547,arrow_simon_punish,2021.1.2,Win32,60.0528465,,,,,,,,,,,,,,p,1,1.6045,1.977023214,1,1,3,3,15,1,1,,,,,,,,,,,,,,
,,,,,,,,,,,left.png,,w,right,61525181e018e4f7c9d94299,2021-10-27_09h15.49.547,arrow_simon_punish,2021.1.2,Win32,60.0528465,,,,,,,,,,,,,,p,0,1.6174,2.362397314,1,1,4,0,16,3,1,,,,,,,,,,,,,,
,,,,,,,,,,,right.png,,p,right,61525181e018e4f7c9d94299,2021-10-27_09h15.49.547,arrow_simon_punish,2021.1.2,Win32,60.0528465,,,,,,,,,,,,,,p,1,1.4382,1.522809272,0,1,4,1,17,1,1,,,,,,,,,,,,,,
,,,,,,,,,,,right.png,,p,left,61525181e018e4f7c9d94299,2021-10-27_09h15.49.547,arrow_simon_punish,2021.1.2,Win32,60.0528465,,,,,,,,,,,,,,w,0,1.5039,2.26672262,1,1,4,2,18,0,1,,,,,,,,,,,,,,
,,,,,,,,,,,left.png,,w,left,61525181e018e4f7c9d94299,2021-10-27_09h15.49.547,arrow_simon_punish,2021.1.2,Win32,60.0528465,,,,,,,,,,,,,,w,1,1.4557,2.498589583,0,1,4,3,19,2,1,,,,,,,,,,,,,,
,,,,,,,,,,,right.png,,p,right,61525181e018e4f7c9d94299,2021-10-27_09h15.49.547,arrow_simon_punish,2021.1.2,Win32,60.0528465,,,,,,,,,,,,,,p,1,1.4365,1.590442194,0,1,5,0,20,1,1,,,,,,,,,,,,,,
,,,,,,,,,,,left.png,,w,left,61525181e018e4f7c9d94299,2021-10-27_09h15.49.547,arrow_simon_punish,2021.1.2,Win32,60.0528465,,,,,,,,,,,,,,w,1,1.4166,2.494354608,0,1,5,1,21,2,1,,,,,,,,,,,,,,
,,,,,,,,,,,left.png,,w,left,61525181e018e4f7c9d94299,2021-10-27_09h15.49.547,arrow_simon_punish,2021.1.2,Win32,60.0528465,,,,,,,,,,,,,,w,1,1.5026,1.833319012,0,1,5,2,22,2,1,,,,,,,,,,,,,,
,,,,,,,,,,,right.png,,p,right,61525181e018e4f7c9d94299,2021-10-27_09h15.49.547,arrow_simon_punish,2021.1.2,Win32,60.0528465,,,,,,,,,,,,,,p,1,1.5813,1.786882335,0,1,5,3,23,1,1,,,,,,,,,,,,,,
,,,,,,,,,,,left.png,,w,left,61525181e018e4f7c9d94299,2021-10-27_09h15.49.547,arrow_simon_punish,2021.1.2,Win32,60.0528465,,,,,,,,,,,,,,w,1,1.5982,2.417182131,0,1,6,0,24,2,1,,,,,,,,,,,,,,
,,,,,,,,,,,left.png,,w,left,61525181e018e4f7c9d94299,2021-10-27_09h15.49.547,arrow_simon_punish,2021.1.2,Win32,60.0528465,,,,,,,,,,,,,,w,1,1.4355,2.155566729,0,1,6,1,25,2,1,,,,,,,,,,,,,,
,,,,,,,,,,,right.png,,p,left,61525181e018e4f7c9d94299,2021-10-27_09h15.49.547,arrow_simon_punish,2021.1.2,Win32,60.0528465,,,,,,,,,,,,,,p,1,1.621,1.778013247,1,1,6,2,26,0,1,,,,,,,,,,,,,,
,,,,,,,,,,,left.png,,w,left,61525181e018e4f7c9d94299,2021-10-27_09h15.49.547,arrow_simon_punish,2021.1.2,Win32,60.0528465,,,,,,,,,,,,,,w,1,1.5893,1.861070255,0,1,6,3,27,2,1,,,,,,,,,,,,,,
,,,,,,,,,,,right.png,,p,left,61525181e018e4f7c9d94299,2021-10-27_09h15.49.547,arrow_simon_punish,2021.1.2,Win32,60.0528465,,,,,,,,,,,,,,p,1,1.5333,1.520331452,0,1,7,0,28,0,1,,,,,,,,,,,,,,
,,,,,,,,,,,right.png,,p,right,61525181e018e4f7c9d94299,2021-10-27_09h15.49.547,arrow_simon_punish,2021.1.2,Win32,60.0528465,,,,,,,,,,,,,,p,1,1.6012,2.167284278,1,1,7,1,29,1,1,,,,,,,,,,,,,,
,,,,,,,,,,,left.png,,w,left,61525181e018e4f7c9d94299,2021-10-27_09h15.49.547,arrow_simon_punish,2021.1.2,Win32,60.0528465,,,,,,,,,,,,,,w,1,1.4686,1.907584701,0,1,7,2,30,2,1,,,,,,,,,,,,,,
,,,,,,,,,,,left.png,,w,right,61525181e018e4f7c9d94299,2021-10-27_09h15.49.547,arrow_simon_punish,2021.1.2,Win32,60.0528465,,,,,,,,,,,,,,w,1,1.0066,2.440174779,1,1,7,3,31,3,1,,,,,,,,,,,,,,
,,,,,,,,,,,left.png,,w,right,61525181e018e4f7c9d94299,2021-10-27_09h15.49.547,arrow_simon_punish,2021.1.2,Win32,60.0528465,,,,,,,,,,,,,,w,1,1.3751,1.660251033,1,1,8,0,32,3,1,,,,,,,,,,,,,,
,,,,,,,,,,,right.png,,p,left,61525181e018e4f7c9d94299,2021-10-27_09h15.49.547,arrow_simon_punish,2021.1.2,Win32,60.0528465,,,,,,,,,,,,,,p,1,1.5597,1.961917326,0,1,8,1,33,0,1,,,,,,,,,,,,,,
,,,,,,,,,,,right.png,,p,right,61525181e018e4f7c9d94299,2021-10-27_09h15.49.547,arrow_simon_punish,2021.1.2,Win32,60.0528465,,,,,,,,,,,,,,p,1,1.4647,1.777092877,0,1,8,2,34,1,1,,,,,,,,,,,,,,
,,,,,,,,,,,left.png,,w,right,61525181e018e4f7c9d94299,2021-10-27_09h15.49.547,arrow_simon_punish,2021.1.2,Win32,60.0528465,,,,,,,,,,,,,,p,0,1.5072,2.382552088,1,1,8,3,35,3,1,,,,,,,,,,,,,,
,,,,,,,,,,,right.png,,p,right,61525181e018e4f7c9d94299,2021-10-27_09h15.49.547,arrow_simon_punish,2021.1.2,Win32,60.0528465,,,,,,,,,,,,,,p,1,1.5236,1.881988742,0,1,9,0,36,1,1,,,,,,,,,,,,,,
,,,,,,,,,,,right.png,,p,right,61525181e018e4f7c9d94299,2021-10-27_09h15.49.547,arrow_simon_punish,2021.1.2,Win32,60.0528465,,,,,,,,,,,,,,p,1,1.5602,1.819968267,0,1,9,1,37,1,1,,,,,,,,,,,,,,
,,,,,,,,,,,right.png,,p,left,61525181e018e4f7c9d94299,2021-10-27_09h15.49.547,arrow_simon_punish,2021.1.2,Win32,60.0528465,,,,,,,,,,,,,,w,0,0.9383,1.5543031,1,1,9,2,38,0,1,,,,,,,,,,,,,,
,,,,,,,,,,,right.png,,p,right,61525181e018e4f7c9d94299,2021-10-27_09h15.49.547,arrow_simon_punish,2021.1.2,Win32,60.0528465,,,,,,,,,,,,,,p,1,1.5224,2.323854579,0,1,9,3,39,1,1,,,,,,,,,,,,,,
,,,,,,,,,,,right.png,,p,right,61525181e018e4f7c9d94299,2021-10-27_09h15.49.547,arrow_simon_punish,2021.1.2,Win32,60.0528465,,,,,,,,,,,,,,p,1,1.0002,1.796809446,1,1,10,0,40,1,1,,,,,,,,,,,,,,
,,,,,,,,,,,left.png,,w,right,61525181e018e4f7c9d94299,2021-10-27_09h15.49.547,arrow_simon_punish,2021.1.2,Win32,60.0528465,,,,,,,,,,,,,,p,0,1.6144,2.261997715,1,1,10,1,41,3,1,,,,,,,,,,,,,,
,,,,,,,,,,,right.png,,p,left,61525181e018e4f7c9d94299,2021-10-27_09h15.49.547,arrow_simon_punish,2021.1.2,Win32,60.0528465,,,,,,,,,,,,,,w,0,1.4281,2.056805639,1,1,10,2,42,0,1,,,,,,,,,,,,,,
,,,,,,,,,,,right.png,,p,left,61525181e018e4f7c9d94299,2021-10-27_09h15.49.547,arrow_simon_punish,2021.1.2,Win32,60.0528465,,,,,,,,,,,,,,p,1,1.6783,2.095312157,1,1,10,3,43,0,1,,,,,,,,,,,,,,
,,,,,,,,,,,left.png,,w,left,61525181e018e4f7c9d94299,2021-10-27_09h15.49.547,arrow_simon_punish,2021.1.2,Win32,60.0528465,,,,,,,,,,,,,,w,1,1.5185,1.816595996,0,1,11,0,44,2,1,,,,,,,,,,,,,,
,,,,,,,,,,,right.png,,p,right,61525181e018e4f7c9d94299,2021-10-27_09h15.49.547,arrow_simon_punish,2021.1.2,Win32,60.0528465,,,,,,,,,,,,,,p,1,1.0207,1.672090805,1,1,11,1,45,1,1,,,,,,,,,,,,,,
,,,,,,,,,,,left.png,,w,right,61525181e018e4f7c9d94299,2021-10-27_09h15.49.547,arrow_simon_punish,2021.1.2,Win32,60.0528465,,,,,,,,,,,,,,w,1,1.4253,1.983723444,0,1,11,2,46,3,1,,,,,,,,,,,,,,
,,,,,,,,,,,left.png,,w,left,61525181e018e4f7c9d94299,2021-10-27_09h15.49.547,arrow_simon_punish,2021.1.2,Win32,60.0528465,,,,,,,,,,,,,,w,1,1.5583,1.746162327,0,1,11,3,47,2,1,,,,,,,,,,,,,,
,,,,,,,,,,,right.png,,p,left,61525181e018e4f7c9d94299,2021-10-27_09h15.49.547,arrow_simon_punish,2021.1.2,Win32,60.0528465,,,,,,,,,,,,,,p,1,1.4671,1.728070153,0,1,12,0,48,0,1,,,,,,,,,,,,,,
,,,,,,,,,,,left.png,,w,right,61525181e018e4f7c9d94299,2021-10-27_09h15.49.547,arrow_simon_punish,2021.1.2,Win32,60.0528465,,,,,,,,,,,,,,p,0,1.5512,2.259565578,1,1,12,1,49,3,1,,,,,,,,,,,,,,
,,,,,,,,,,,left.png,,w,right,61525181e018e4f7c9d94299,2021-10-27_09h15.49.547,arrow_simon_punish,2021.1.2,Win32,60.0528465,,,,,,,,,,,,,,w,1,1.5031,1.650942473,0,1,12,2,50,3,1,,,,,,,,,,,,,,
,,,,,,,,,,,left.png,,w,left,61525181e018e4f7c9d94299,2021-10-27_09h15.49.547,arrow_simon_punish,2021.1.2,Win32,60.0528465,,,,,,,,,,,,,,w,1,1.5323,1.890955145,0,1,12,3,51,2,1,,,,,,,,,,,,,,
,,,,,,,,,,,right.png,,p,left,61525181e018e4f7c9d94299,2021-10-27_09h15.49.547,arrow_simon_punish,2021.1.2,Win32,60.0528465,,,,,,,,,,,,,,w,0,1.5075,2.359032381,1,1,13,0,52,0,1,,,,,,,,,,,,,,
,,,,,,,,,,,left.png,,w,right,61525181e018e4f7c9d94299,2021-10-27_09h15.49.547,arrow_simon_punish,2021.1.2,Win32,60.0528465,,,,,,,,,,,,,,p,0,1.5974,2.221029241,1,1,13,1,53,3,1,,,,,,,,,,,,,,
,,,,,,,,,,,right.png,,p,left,61525181e018e4f7c9d94299,2021-10-27_09h15.49.547,arrow_simon_punish,2021.1.2,Win32,60.0528465,,,,,,,,,,,,,,w,0,1.5881,2.374354962,1,1,13,2,54,0,1,,,,,,,,,,,,,,
,,,,,,,,,,,left.png,,w,left,61525181e018e4f7c9d94299,2021-10-27_09h15.49.547,arrow_simon_punish,2021.1.2,Win32,60.0528465,,,,,,,,,,,,,,w,1,1.5975,2.227422333,0,1,13,3,55,2,1,,,,,,,,,,,,,,
,,,,,,,,,,,left.png,,w,right,61525181e018e4f7c9d94299,2021-10-27_09h15.49.547,arrow_simon_punish,2021.1.2,Win32,60.0528465,,,,,,,,,,,,,,p,0,1.5964,2.232361925,1,1,14,0,56,3,1,,,,,,,,,,,,,,
,,,,,,,,,,,right.png,,p,left,61525181e018e4f7c9d94299,2021-10-27_09h15.49.547,arrow_simon_punish,2021.1.2,Win32,60.0528465,,,,,,,,,,,,,,p,1,1.4961,2.051069712,0,1,14,1,57,0,1,,,,,,,,,,,,,,
,,,,,,,,,,,left.png,,w,right,61525181e018e4f7c9d94299,2021-10-27_09h15.49.547,arrow_simon_punish,2021.1.2,Win32,60.0528465,,,,,,,,,,,,,,w,1,1.5604,1.887074173,0,1,14,2,58,3,1,,,,,,,,,,,,,,
,,,,,,,,,,,left.png,,w,right,61525181e018e4f7c9d94299,2021-10-27_09h15.49.547,arrow_simon_punish,2021.1.2,Win32,60.0528465,,,,,,,,,,,,,,w,1,1.7249,2.435581717,1,1,14,3,59,3,1,,,,,,,,,,,,,,
,,,,,,,,,,,,,,,61525181e018e4f7c9d94299,2021-10-27_09h15.49.547,arrow_simon_punish,2021.1.2,Win32,60.0528465,,,,,,,,,,,,,,,,,,,,,,,,,space,60.6789,8,3,0,6,0,1,1,,,,,
,,,,,,,,,,,right.png,,p,right,61525181e018e4f7c9d94299,2021-10-27_09h15.49.547,arrow_simon_punish,2021.1.2,Win32,60.0528465,,,,,,,,,,,,,,p,1,1.5059,1.776119188,0,5,0,0,0,1,1,,,,,,,,,,,,,,
,,,,,,,,,,,left.png,,w,right,61525181e018e4f7c9d94299,2021-10-27_09h15.49.547,arrow_simon_punish,2021.1.2,Win32,60.0528465,,,,,,,,,,,,,,p,0,1.4655,2.131965909,1,5,0,1,1,3,1,,,,,,,,,,,,,,
,,,,,,,,,,,right.png,,p,left,61525181e018e4f7c9d94299,2021-10-27_09h15.49.547,arrow_simon_punish,2021.1.2,Win32,60.0528465,,,,,,,,,,,,,,p,1,1.4253,1.631169908,0,5,0,2,2,0,1,,,,,,,,,,,,,,
,,,,,,,,,,,left.png,,w,left,61525181e018e4f7c9d94299,2021-10-27_09h15.49.547,arrow_simon_punish,2021.1.2,Win32,60.0528465,,,,,,,,,,,,,,w,1,1.4982,1.895595506,0,5,0,3,3,2,1,,,,,,,,,,,,,,
,,,,,,,,,,,left.png,,w,right,61525181e018e4f7c9d94299,2021-10-27_09h15.49.547,arrow_simon_punish,2021.1.2,Win32,60.0528465,,,,,,,,,,,,,,w,1,1.3497,1.640818419,1,5,1,0,4,3,1,,,,,,,,,,,,,,
,,,,,,,,,,,left.png,,w,left,61525181e018e4f7c9d94299,2021-10-27_09h15.49.547,arrow_simon_punish,2021.1.2,Win32,60.0528465,,,,,,,,,,,,,,w,1,1.5032,2.147149379,0,5,1,1,5,2,1,,,,,,,,,,,,,,
,,,,,,,,,,,left.png,,w,left,61525181e018e4f7c9d94299,2021-10-27_09h15.49.547,arrow_simon_punish,2021.1.2,Win32,60.0528465,,,,,,,,,,,,,,w,1,1.5371,2.451663054,0,5,1,2,6,2,1,,,,,,,,,,,,,,
,,,,,,,,,,,right.png,,p,right,61525181e018e4f7c9d94299,2021-10-27_09h15.49.547,arrow_simon_punish,2021.1.2,Win32,60.0528465,,,,,,,,,,,,,,w,0,1.5713,2.493810501,1,5,1,3,7,1,1,,,,,,,,,,,,,,
,,,,,,,,,,,right.png,,p,right,61525181e018e4f7c9d94299,2021-10-27_09h15.49.547,arrow_simon_punish,2021.1.2,Win32,60.0528465,,,,,,,,,,,,,,p,1,1.5556,1.614355728,0,5,2,0,8,1,1,,,,,,,,,,,,,,
,,,,,,,,,,,right.png,,p,right,61525181e018e4f7c9d94299,2021-10-27_09h15.49.547,arrow_simon_punish,2021.1.2,Win32,60.0528465,,,,,,,,,,,,,,p,1,1.4382,1.586540637,0,5,2,1,9,1,1,,,,,,,,,,,,,,
,,,,,,,,,,,right.png,,p,left,61525181e018e4f7c9d94299,2021-10-27_09h15.49.547,arrow_simon_punish,2021.1.2,Win32,60.0528465,,,,,,,,,,,,,,p,1,1.5185,2.418998213,0,5,2,2,10,0,1,,,,,,,,,,,,,,
