instruct_resp_simon.keys,instruct_resp_simon.corr,instruct_resp_simon.rt,trial_resp_simon.keys,trial_resp_simon.corr,trial_resp_simon.rt,trials_train_simon.thisRepN,trials_train_simon.thisTrialN,trials_train_simon.thisN,trials_train_simon.thisIndex,trials_train_simon.ran,target_file,target_pos,target_resp,target_side,participant,date,expName,psychopyVersion,OS,frameRate,instruct_resp_timing.keys,instruct_resp_timing.corr,instruct_resp_timing.rt,trial_resp_timing.keys,trial_resp_timing.rt,trials_train_timing.thisRepN,trials_train_timing.thisTrialN,trials_train_timing.thisN,trials_train_timing.thisIndex,trials_train_timing.ran,instruct_resp.keys,instruct_resp.corr,instruct_resp.rt,trial_resp.keys,trial_resp.corr,trial_resp.rt,target_onset,err,pun,trials.thisRepN,trials.thisTrialN,trials.thisN,trials.thisIndex,trials.ran,block_note_resp.keys,block_note_resp.rt,block_num,blocks.thisRepN,blocks.thisTrialN,blocks.thisN,blocks.thisIndex,blocks.ran,punish,complete_resp.keys,complete_resp.rt,raffle_trial,raffle_err,raffle_rew
space,0,30.499,w,0,2.7642,0,0,0,0,1,right.png,,p,left,6152b8943ef5c73934ed350a,2021-10-22_16h04.03.316,arrow_simon_punish,2021.1.2,Win32,59.63029219,,,,,,,,,,,,,,,,,,,,,,,,,,,,,,,,,,,,,,
,,,w,1,1.8696,0,1,1,2,1,left.png,,w,left,6152b8943ef5c73934ed350a,2021-10-22_16h04.03.316,arrow_simon_punish,2021.1.2,Win32,59.63029219,,,,,,,,,,,,,,,,,,,,,,,,,,,,,,,,,,,,,,
,,,p,1,1.5099,0,2,2,1,1,right.png,,p,right,6152b8943ef5c73934ed350a,2021-10-22_16h04.03.316,arrow_simon_punish,2021.1.2,Win32,59.63029219,,,,,,,,,,,,,,,,,,,,,,,,,,,,,,,,,,,,,,
,,,w,1,1.2998,0,3,3,3,1,left.png,,w,right,6152b8943ef5c73934ed350a,2021-10-22_16h04.03.316,arrow_simon_punish,2021.1.2,Win32,59.63029219,,,,,,,,,,,,,,,,,,,,,,,,,,,,,,,,,,,,,,
,,,p,1,0.9736,1,0,4,1,1,right.png,,p,right,6152b8943ef5c73934ed350a,2021-10-22_16h04.03.316,arrow_simon_punish,2021.1.2,Win32,59.63029219,,,,,,,,,,,,,,,,,,,,,,,,,,,,,,,,,,,,,,
,,,w,1,1.6443,1,1,5,2,1,left.png,,w,left,6152b8943ef5c73934ed350a,2021-10-22_16h04.03.316,arrow_simon_punish,2021.1.2,Win32,59.63029219,,,,,,,,,,,,,,,,,,,,,,,,,,,,,,,,,,,,,,
,,,w,1,1.334,1,2,6,3,1,left.png,,w,right,6152b8943ef5c73934ed350a,2021-10-22_16h04.03.316,arrow_simon_punish,2021.1.2,Win32,59.63029219,,,,,,,,,,,,,,,,,,,,,,,,,,,,,,,,,,,,,,
,,,p,1,1.5492,1,3,7,0,1,right.png,,p,left,6152b8943ef5c73934ed350a,2021-10-22_16h04.03.316,arrow_simon_punish,2021.1.2,Win32,59.63029219,,,,,,,,,,,,,,,,,,,,,,,,,,,,,,,,,,,,,,
,,,w,1,1.3088,2,0,8,3,1,left.png,,w,right,6152b8943ef5c73934ed350a,2021-10-22_16h04.03.316,arrow_simon_punish,2021.1.2,Win32,59.63029219,,,,,,,,,,,,,,,,,,,,,,,,,,,,,,,,,,,,,,
,,,p,1,2.3987,2,1,9,1,1,right.png,,p,right,6152b8943ef5c73934ed350a,2021-10-22_16h04.03.316,arrow_simon_punish,2021.1.2,Win32,59.63029219,,,,,,,,,,,,,,,,,,,,,,,,,,,,,,,,,,,,,,
,,,w,1,1.4007,2,2,10,2,1,left.png,,w,left,6152b8943ef5c73934ed350a,2021-10-22_16h04.03.316,arrow_simon_punish,2021.1.2,Win32,59.63029219,,,,,,,,,,,,,,,,,,,,,,,,,,,,,,,,,,,,,,
,,,p,1,1.6131,2,3,11,0,1,right.png,,p,left,6152b8943ef5c73934ed350a,2021-10-22_16h04.03.316,arrow_simon_punish,2021.1.2,Win32,59.63029219,,,,,,,,,,,,,,,,,,,,,,,,,,,,,,,,,,,,,,
,,,p,1,0.9901,3,0,12,0,1,right.png,,p,left,6152b8943ef5c73934ed350a,2021-10-22_16h04.03.316,arrow_simon_punish,2021.1.2,Win32,59.63029219,,,,,,,,,,,,,,,,,,,,,,,,,,,,,,,,,,,,,,
,,,w,1,1.661,3,1,13,2,1,left.png,,w,left,6152b8943ef5c73934ed350a,2021-10-22_16h04.03.316,arrow_simon_punish,2021.1.2,Win32,59.63029219,,,,,,,,,,,,,,,,,,,,,,,,,,,,,,,,,,,,,,
,,,w,1,1.124,3,2,14,3,1,left.png,,w,right,6152b8943ef5c73934ed350a,2021-10-22_16h04.03.316,arrow_simon_punish,2021.1.2,Win32,59.63029219,,,,,,,,,,,,,,,,,,,,,,,,,,,,,,,,,,,,,,
,,,p,1,1.2085,3,3,15,1,1,right.png,,p,right,6152b8943ef5c73934ed350a,2021-10-22_16h04.03.316,arrow_simon_punish,2021.1.2,Win32,59.63029219,,,,,,,,,,,,,,,,,,,,,,,,,,,,,,,,,,,,,,
,,,w,1,1.2129,4,0,16,2,1,left.png,,w,left,6152b8943ef5c73934ed350a,2021-10-22_16h04.03.316,arrow_simon_punish,2021.1.2,Win32,59.63029219,,,,,,,,,,,,,,,,,,,,,,,,,,,,,,,,,,,,,,
,,,p,1,1.4422,4,1,17,0,1,right.png,,p,left,6152b8943ef5c73934ed350a,2021-10-22_16h04.03.316,arrow_simon_punish,2021.1.2,Win32,59.63029219,,,,,,,,,,,,,,,,,,,,,,,,,,,,,,,,,,,,,,
,,,p,1,1.5808,4,2,18,1,1,right.png,,p,right,6152b8943ef5c73934ed350a,2021-10-22_16h04.03.316,arrow_simon_punish,2021.1.2,Win32,59.63029219,,,,,,,,,,,,,,,,,,,,,,,,,,,,,,,,,,,,,,
,,,w,1,1.2164,4,3,19,3,1,left.png,,w,right,6152b8943ef5c73934ed350a,2021-10-22_16h04.03.316,arrow_simon_punish,2021.1.2,Win32,59.63029219,,,,,,,,,,,,,,,,,,,,,,,,,,,,,,,,,,,,,,
,,,p,1,1.0068,5,0,20,1,1,right.png,,p,right,6152b8943ef5c73934ed350a,2021-10-22_16h04.03.316,arrow_simon_punish,2021.1.2,Win32,59.63029219,,,,,,,,,,,,,,,,,,,,,,,,,,,,,,,,,,,,,,
,,,w,1,2.2807,5,1,21,2,1,left.png,,w,left,6152b8943ef5c73934ed350a,2021-10-22_16h04.03.316,arrow_simon_punish,2021.1.2,Win32,59.63029219,,,,,,,,,,,,,,,,,,,,,,,,,,,,,,,,,,,,,,
,,,w,1,1.6787,5,2,22,3,1,left.png,,w,right,6152b8943ef5c73934ed350a,2021-10-22_16h04.03.316,arrow_simon_punish,2021.1.2,Win32,59.63029219,,,,,,,,,,,,,,,,,,,,,,,,,,,,,,,,,,,,,,
,,,p,1,1.7945,5,3,23,0,1,right.png,,p,left,6152b8943ef5c73934ed350a,2021-10-22_16h04.03.316,arrow_simon_punish,2021.1.2,Win32,59.63029219,,,,,,,,,,,,,,,,,,,,,,,,,,,,,,,,,,,,,,
,,,p,1,1.7104,6,0,24,0,1,right.png,,p,left,6152b8943ef5c73934ed350a,2021-10-22_16h04.03.316,arrow_simon_punish,2021.1.2,Win32,59.63029219,,,,,,,,,,,,,,,,,,,,,,,,,,,,,,,,,,,,,,
,,,w,1,1.3589,6,1,25,3,1,left.png,,w,right,6152b8943ef5c73934ed350a,2021-10-22_16h04.03.316,arrow_simon_punish,2021.1.2,Win32,59.63029219,,,,,,,,,,,,,,,,,,,,,,,,,,,,,,,,,,,,,,
,,,w,1,1.9796,6,2,26,2,1,left.png,,w,left,6152b8943ef5c73934ed350a,2021-10-22_16h04.03.316,arrow_simon_punish,2021.1.2,Win32,59.63029219,,,,,,,,,,,,,,,,,,,,,,,,,,,,,,,,,,,,,,
,,,p,1,0.8729,6,3,27,1,1,right.png,,p,right,6152b8943ef5c73934ed350a,2021-10-22_16h04.03.316,arrow_simon_punish,2021.1.2,Win32,59.63029219,,,,,,,,,,,,,,,,,,,,,,,,,,,,,,,,,,,,,,
,,,w,1,1.1149,7,0,28,3,1,left.png,,w,right,6152b8943ef5c73934ed350a,2021-10-22_16h04.03.316,arrow_simon_punish,2021.1.2,Win32,59.63029219,,,,,,,,,,,,,,,,,,,,,,,,,,,,,,,,,,,,,,
,,,w,1,1.26,7,1,29,2,1,left.png,,w,left,6152b8943ef5c73934ed350a,2021-10-22_16h04.03.316,arrow_simon_punish,2021.1.2,Win32,59.63029219,,,,,,,,,,,,,,,,,,,,,,,,,,,,,,,,,,,,,,
,,,p,1,0.9667,7,2,30,0,1,right.png,,p,left,6152b8943ef5c73934ed350a,2021-10-22_16h04.03.316,arrow_simon_punish,2021.1.2,Win32,59.63029219,,,,,,,,,,,,,,,,,,,,,,,,,,,,,,,,,,,,,,
,,,p,1,2.2806,7,3,31,1,1,right.png,,p,right,6152b8943ef5c73934ed350a,2021-10-22_16h04.03.316,arrow_simon_punish,2021.1.2,Win32,59.63029219,,,,,,,,,,,,,,,,,,,,,,,,,,,,,,,,,,,,,,
,,,p,1,0.7385,8,0,32,1,1,right.png,,p,right,6152b8943ef5c73934ed350a,2021-10-22_16h04.03.316,arrow_simon_punish,2021.1.2,Win32,59.63029219,,,,,,,,,,,,,,,,,,,,,,,,,,,,,,,,,,,,,,
,,,w,1,1.6609,8,1,33,3,1,left.png,,w,right,6152b8943ef5c73934ed350a,2021-10-22_16h04.03.316,arrow_simon_punish,2021.1.2,Win32,59.63029219,,,,,,,,,,,,,,,,,,,,,,,,,,,,,,,,,,,,,,
,,,w,1,0.9061,8,2,34,2,1,left.png,,w,left,6152b8943ef5c73934ed350a,2021-10-22_16h04.03.316,arrow_simon_punish,2021.1.2,Win32,59.63029219,,,,,,,,,,,,,,,,,,,,,,,,,,,,,,,,,,,,,,
,,,p,1,1.0644,8,3,35,0,1,right.png,,p,left,6152b8943ef5c73934ed350a,2021-10-22_16h04.03.316,arrow_simon_punish,2021.1.2,Win32,59.63029219,,,,,,,,,,,,,,,,,,,,,,,,,,,,,,,,,,,,,,
,,,p,1,1.532,9,0,36,0,1,right.png,,p,left,6152b8943ef5c73934ed350a,2021-10-22_16h04.03.316,arrow_simon_punish,2021.1.2,Win32,59.63029219,,,,,,,,,,,,,,,,,,,,,,,,,,,,,,,,,,,,,,
,,,w,1,1.1235,9,1,37,2,1,left.png,,w,left,6152b8943ef5c73934ed350a,2021-10-22_16h04.03.316,arrow_simon_punish,2021.1.2,Win32,59.63029219,,,,,,,,,,,,,,,,,,,,,,,,,,,,,,,,,,,,,,
,,,w,1,1.3924,9,2,38,3,1,left.png,,w,right,6152b8943ef5c73934ed350a,2021-10-22_16h04.03.316,arrow_simon_punish,2021.1.2,Win32,59.63029219,,,,,,,,,,,,,,,,,,,,,,,,,,,,,,,,,,,,,,
,,,p,1,1.292,9,3,39,1,1,right.png,,p,right,6152b8943ef5c73934ed350a,2021-10-22_16h04.03.316,arrow_simon_punish,2021.1.2,Win32,59.63029219,,,,,,,,,,,,,,,,,,,,,,,,,,,,,,,,,,,,,,
,,,,,,,,,,,,,,,6152b8943ef5c73934ed350a,2021-10-22_16h04.03.316,arrow_simon_punish,2021.1.2,Win32,59.63029219,space,0,84.6212,p,2.8929,0,0,0,0,1,,,,,,,,,,,,,,,,,,,,,,,,,,,,
,,,,,,,,,,,,,,,6152b8943ef5c73934ed350a,2021-10-22_16h04.03.316,arrow_simon_punish,2021.1.2,Win32,59.63029219,,,,p,2.2502,1,0,1,0,1,,,,,,,,,,,,,,,,,,,,,,,,,,,,
,,,,,,,,,,,,,,,6152b8943ef5c73934ed350a,2021-10-22_16h04.03.316,arrow_simon_punish,2021.1.2,Win32,59.63029219,,,,p,2.583,2,0,2,0,1,,,,,,,,,,,,,,,,,,,,,,,,,,,,
,,,,,,,,,,,,,,,6152b8943ef5c73934ed350a,2021-10-22_16h04.03.316,arrow_simon_punish,2021.1.2,Win32,59.63029219,,,,p,2.4319,3,0,3,0,1,,,,,,,,,,,,,,,,,,,,,,,,,,,,
,,,,,,,,,,,,,,,6152b8943ef5c73934ed350a,2021-10-22_16h04.03.316,arrow_simon_punish,2021.1.2,Win32,59.63029219,,,,p,2.1135,4,0,4,0,1,,,,,,,,,,,,,,,,,,,,,,,,,,,,
,,,,,,,,,,,,,,,6152b8943ef5c73934ed350a,2021-10-22_16h04.03.316,arrow_simon_punish,2021.1.2,Win32,59.63029219,,,,p,2.818,5,0,5,0,1,,,,,,,,,,,,,,,,,,,,,,,,,,,,
,,,,,,,,,,,,,,,6152b8943ef5c73934ed350a,2021-10-22_16h04.03.316,arrow_simon_punish,2021.1.2,Win32,59.63029219,,,,p,2.4407,6,0,6,0,1,,,,,,,,,,,,,,,,,,,,,,,,,,,,
,,,,,,,,,,,,,,,6152b8943ef5c73934ed350a,2021-10-22_16h04.03.316,arrow_simon_punish,2021.1.2,Win32,59.63029219,,,,p,2.4578,7,0,7,0,1,,,,,,,,,,,,,,,,,,,,,,,,,,,,
,,,,,,,,,,,,,,,6152b8943ef5c73934ed350a,2021-10-22_16h04.03.316,arrow_simon_punish,2021.1.2,Win32,59.63029219,,,,p,2.2644,8,0,8,0,1,,,,,,,,,,,,,,,,,,,,,,,,,,,,
,,,,,,,,,,,,,,,6152b8943ef5c73934ed350a,2021-10-22_16h04.03.316,arrow_simon_punish,2021.1.2,Win32,59.63029219,,,,p,2.2814,9,0,9,0,1,,,,,,,,,,,,,,,,,,,,,,,,,,,,
,,,,,,,,,,,,,,,6152b8943ef5c73934ed350a,2021-10-22_16h04.03.316,arrow_simon_punish,2021.1.2,Win32,59.63029219,,,,p,2.8045,10,0,10,0,1,,,,,,,,,,,,,,,,,,,,,,,,,,,,
,,,,,,,,,,,,,,,6152b8943ef5c73934ed350a,2021-10-22_16h04.03.316,arrow_simon_punish,2021.1.2,Win32,59.63029219,,,,p,2.285,11,0,11,0,1,,,,,,,,,,,,,,,,,,,,,,,,,,,,
,,,,,,,,,,,,,,,6152b8943ef5c73934ed350a,2021-10-22_16h04.03.316,arrow_simon_punish,2021.1.2,Win32,59.63029219,,,,p,2.2813,12,0,12,0,1,,,,,,,,,,,,,,,,,,,,,,,,,,,,
,,,,,,,,,,,,,,,6152b8943ef5c73934ed350a,2021-10-22_16h04.03.316,arrow_simon_punish,2021.1.2,Win32,59.63029219,,,,p,2.1658,13,0,13,0,1,,,,,,,,,,,,,,,,,,,,,,,,,,,,
,,,,,,,,,,,,,,,6152b8943ef5c73934ed350a,2021-10-22_16h04.03.316,arrow_simon_punish,2021.1.2,Win32,59.63029219,,,,p,2.8346,14,0,14,0,1,,,,,,,,,,,,,,,,,,,,,,,,,,,,
,,,,,,,,,,,,,,,6152b8943ef5c73934ed350a,2021-10-22_16h04.03.316,arrow_simon_punish,2021.1.2,Win32,59.63029219,,,,p,1.9793,15,0,15,0,1,,,,,,,,,,,,,,,,,,,,,,,,,,,,
,,,,,,,,,,,,,,,6152b8943ef5c73934ed350a,2021-10-22_16h04.03.316,arrow_simon_punish,2021.1.2,Win32,59.63029219,,,,p,2.0129,16,0,16,0,1,,,,,,,,,,,,,,,,,,,,,,,,,,,,
,,,,,,,,,,,,,,,6152b8943ef5c73934ed350a,2021-10-22_16h04.03.316,arrow_simon_punish,2021.1.2,Win32,59.63029219,,,,p,2.2536,17,0,17,0,1,,,,,,,,,,,,,,,,,,,,,,,,,,,,
,,,,,,,,,,,,,,,6152b8943ef5c73934ed350a,2021-10-22_16h04.03.316,arrow_simon_punish,2021.1.2,Win32,59.63029219,,,,p,2.7842,18,0,18,0,1,,,,,,,,,,,,,,,,,,,,,,,,,,,,
,,,,,,,,,,,,,,,6152b8943ef5c73934ed350a,2021-10-22_16h04.03.316,arrow_simon_punish,2021.1.2,Win32,59.63029219,,,,w,2.4992,19,0,19,0,1,,,,,,,,,,,,,,,,,,,,,,,,,,,,
,,,,,,,,,,,,,,,6152b8943ef5c73934ed350a,2021-10-22_16h04.03.316,arrow_simon_punish,2021.1.2,Win32,59.63029219,,,,p,2.549,20,0,20,0,1,,,,,,,,,,,,,,,,,,,,,,,,,,,,
,,,,,,,,,,,,,,,6152b8943ef5c73934ed350a,2021-10-22_16h04.03.316,arrow_simon_punish,2021.1.2,Win32,59.63029219,,,,w,2.7232,21,0,21,0,1,,,,,,,,,,,,,,,,,,,,,,,,,,,,
,,,,,,,,,,,,,,,6152b8943ef5c73934ed350a,2021-10-22_16h04.03.316,arrow_simon_punish,2021.1.2,Win32,59.63029219,,,,p,2.552,22,0,22,0,1,,,,,,,,,,,,,,,,,,,,,,,,,,,,
,,,,,,,,,,,,,,,6152b8943ef5c73934ed350a,2021-10-22_16h04.03.316,arrow_simon_punish,2021.1.2,Win32,59.63029219,,,,p,2.6165,23,0,23,0,1,,,,,,,,,,,,,,,,,,,,,,,,,,,,
,,,,,,,,,,,,,,,6152b8943ef5c73934ed350a,2021-10-22_16h04.03.316,arrow_simon_punish,2021.1.2,Win32,59.63029219,,,,p,2.6166,24,0,24,0,1,,,,,,,,,,,,,,,,,,,,,,,,,,,,
,,,,,,,,,,,,,,,6152b8943ef5c73934ed350a,2021-10-22_16h04.03.316,arrow_simon_punish,2021.1.2,Win32,59.63029219,,,,w,2.1638,25,0,25,0,1,,,,,,,,,,,,,,,,,,,,,,,,,,,,
,,,,,,,,,,,,,,,6152b8943ef5c73934ed350a,2021-10-22_16h04.03.316,arrow_simon_punish,2021.1.2,Win32,59.63029219,,,,p,1.8953,26,0,26,0,1,,,,,,,,,,,,,,,,,,,,,,,,,,,,
,,,,,,,,,,,,,,,6152b8943ef5c73934ed350a,2021-10-22_16h04.03.316,arrow_simon_punish,2021.1.2,Win32,59.63029219,,,,p,1.8854,27,0,27,0,1,,,,,,,,,,,,,,,,,,,,,,,,,,,,
,,,,,,,,,,,,,,,6152b8943ef5c73934ed350a,2021-10-22_16h04.03.316,arrow_simon_punish,2021.1.2,Win32,59.63029219,,,,p,2.4328,28,0,28,0,1,,,,,,,,,,,,,,,,,,,,,,,,,,,,
,,,,,,,,,,,,,,,6152b8943ef5c73934ed350a,2021-10-22_16h04.03.316,arrow_simon_punish,2021.1.2,Win32,59.63029219,,,,p,2.516,29,0,29,0,1,,,,,,,,,,,,,,,,,,,,,,,,,,,,
,,,,,,,,,,,,,,,6152b8943ef5c73934ed350a,2021-10-22_16h04.03.316,arrow_simon_punish,2021.1.2,Win32,59.63029219,,,,p,2.5833,30,0,30,0,1,,,,,,,,,,,,,,,,,,,,,,,,,,,,
,,,,,,,,,,,,,,,6152b8943ef5c73934ed350a,2021-10-22_16h04.03.316,arrow_simon_punish,2021.1.2,Win32,59.63029219,,,,p,2.3148,31,0,31,0,1,,,,,,,,,,,,,,,,,,,,,,,,,,,,
,,,,,,,,,,,,,,,6152b8943ef5c73934ed350a,2021-10-22_16h04.03.316,arrow_simon_punish,2021.1.2,Win32,59.63029219,,,,p,1.7295,32,0,32,0,1,,,,,,,,,,,,,,,,,,,,,,,,,,,,
,,,,,,,,,,,,,,,6152b8943ef5c73934ed350a,2021-10-22_16h04.03.316,arrow_simon_punish,2021.1.2,Win32,59.63029219,,,,p,2.6165,33,0,33,0,1,,,,,,,,,,,,,,,,,,,,,,,,,,,,
,,,,,,,,,,,,,,,6152b8943ef5c73934ed350a,2021-10-22_16h04.03.316,arrow_simon_punish,2021.1.2,Win32,59.63029219,,,,p,2.214,34,0,34,0,1,,,,,,,,,,,,,,,,,,,,,,,,,,,,
,,,,,,,,,,,,,,,6152b8943ef5c73934ed350a,2021-10-22_16h04.03.316,arrow_simon_punish,2021.1.2,Win32,59.63029219,,,,p,2.369,35,0,35,0,1,,,,,,,,,,,,,,,,,,,,,,,,,,,,
,,,,,,,,,,,,,,,6152b8943ef5c73934ed350a,2021-10-22_16h04.03.316,arrow_simon_punish,2021.1.2,Win32,59.63029219,,,,p,2.4656,36,0,36,0,1,,,,,,,,,,,,,,,,,,,,,,,,,,,,
,,,,,,,,,,,,,,,6152b8943ef5c73934ed350a,2021-10-22_16h04.03.316,arrow_simon_punish,2021.1.2,Win32,59.63029219,,,,p,2.7171,37,0,37,0,1,,,,,,,,,,,,,,,,,,,,,,,,,,,,
,,,,,,,,,,,,,,,6152b8943ef5c73934ed350a,2021-10-22_16h04.03.316,arrow_simon_punish,2021.1.2,Win32,59.63029219,,,,p,2.5998,38,0,38,0,1,,,,,,,,,,,,,,,,,,,,,,,,,,,,
,,,,,,,,,,,,,,,6152b8943ef5c73934ed350a,2021-10-22_16h04.03.316,arrow_simon_punish,2021.1.2,Win32,59.63029219,,,,p,2.7871,39,0,39,0,1,,,,,,,,,,,,,,,,,,,,,,,,,,,,
,,,,,,,,,,,,,,,6152b8943ef5c73934ed350a,2021-10-22_16h04.03.316,arrow_simon_punish,2021.1.2,Win32,59.63029219,,,,p,2.5328,40,0,40,0,1,,,,,,,,,,,,,,,,,,,,,,,,,,,,
,,,,,,,,,,,,,,,6152b8943ef5c73934ed350a,2021-10-22_16h04.03.316,arrow_simon_punish,2021.1.2,Win32,59.63029219,,,,p,2.298,41,0,41,0,1,,,,,,,,,,,,,,,,,,,,,,,,,,,,
,,,,,,,,,,,,,,,6152b8943ef5c73934ed350a,2021-10-22_16h04.03.316,arrow_simon_punish,2021.1.2,Win32,59.63029219,,,,p,2.2811,42,0,42,0,1,,,,,,,,,,,,,,,,,,,,,,,,,,,,
,,,,,,,,,,,,,,,6152b8943ef5c73934ed350a,2021-10-22_16h04.03.316,arrow_simon_punish,2021.1.2,Win32,59.63029219,,,,p,2.4418,43,0,43,0,1,,,,,,,,,,,,,,,,,,,,,,,,,,,,
,,,,,,,,,,,,,,,6152b8943ef5c73934ed350a,2021-10-22_16h04.03.316,arrow_simon_punish,2021.1.2,Win32,59.63029219,,,,p,2.3392,44,0,44,0,1,,,,,,,,,,,,,,,,,,,,,,,,,,,,
,,,,,,,,,,,,,,,6152b8943ef5c73934ed350a,2021-10-22_16h04.03.316,arrow_simon_punish,2021.1.2,Win32,59.63029219,,,,p,2.7847,45,0,45,0,1,,,,,,,,,,,,,,,,,,,,,,,,,,,,
,,,,,,,,,,,,,,,6152b8943ef5c73934ed350a,2021-10-22_16h04.03.316,arrow_simon_punish,2021.1.2,Win32,59.63029219,,,,p,2.6258,46,0,46,0,1,,,,,,,,,,,,,,,,,,,,,,,,,,,,
,,,,,,,,,,,,,,,6152b8943ef5c73934ed350a,2021-10-22_16h04.03.316,arrow_simon_punish,2021.1.2,Win32,59.63029219,,,,p,2.2644,47,0,47,0,1,,,,,,,,,,,,,,,,,,,,,,,,,,,,
,,,,,,,,,,,,,,,6152b8943ef5c73934ed350a,2021-10-22_16h04.03.316,arrow_simon_punish,2021.1.2,Win32,59.63029219,,,,p,2.1473,48,0,48,0,1,,,,,,,,,,,,,,,,,,,,,,,,,,,,
,,,,,,,,,,,,,,,6152b8943ef5c73934ed350a,2021-10-22_16h04.03.316,arrow_simon_punish,2021.1.2,Win32,59.63029219,,,,p,1.996,49,0,49,0,1,,,,,,,,,,,,,,,,,,,,,,,,,,,,
,,,,,,,,,,,,,,,6152b8943ef5c73934ed350a,2021-10-22_16h04.03.316,arrow_simon_punish,2021.1.2,Win32,59.63029219,,,,p,2.1842,50,0,50,0,1,,,,,,,,,,,,,,,,,,,,,,,,,,,,
,,,,,,,,,,,,,,,6152b8943ef5c73934ed350a,2021-10-22_16h04.03.316,arrow_simon_punish,2021.1.2,Win32,59.63029219,,,,p,2.6332,51,0,51,0,1,,,,,,,,,,,,,,,,,,,,,,,,,,,,
,,,,,,,,,,,,,,,6152b8943ef5c73934ed350a,2021-10-22_16h04.03.316,arrow_simon_punish,2021.1.2,Win32,59.63029219,,,,p,2.6668,52,0,52,0,1,,,,,,,,,,,,,,,,,,,,,,,,,,,,
,,,,,,,,,,,,,,,6152b8943ef5c73934ed350a,2021-10-22_16h04.03.316,arrow_simon_punish,2021.1.2,Win32,59.63029219,,,,p,2.2682,53,0,53,0,1,,,,,,,,,,,,,,,,,,,,,,,,,,,,
,,,,,,,,,,,,,,,6152b8943ef5c73934ed350a,2021-10-22_16h04.03.316,arrow_simon_punish,2021.1.2,Win32,59.63029219,,,,p,2.1978,54,0,54,0,1,,,,,,,,,,,,,,,,,,,,,,,,,,,,
,,,,,,,,,,,,,,,6152b8943ef5c73934ed350a,2021-10-22_16h04.03.316,arrow_simon_punish,2021.1.2,Win32,59.63029219,,,,p,2.3482,55,0,55,0,1,,,,,,,,,,,,,,,,,,,,,,,,,,,,
,,,,,,,,,,,,,,,6152b8943ef5c73934ed350a,2021-10-22_16h04.03.316,arrow_simon_punish,2021.1.2,Win32,59.63029219,,,,w,2.4549,56,0,56,0,1,,,,,,,,,,,,,,,,,,,,,,,,,,,,
,,,,,,,,,,,,,,,6152b8943ef5c73934ed350a,2021-10-22_16h04.03.316,arrow_simon_punish,2021.1.2,Win32,59.63029219,,,,w,2.4244,57,0,57,0,1,,,,,,,,,,,,,,,,,,,,,,,,,,,,
,,,,,,,,,,,,,,,6152b8943ef5c73934ed350a,2021-10-22_16h04.03.316,arrow_simon_punish,2021.1.2,Win32,59.63029219,,,,w,2.5496,58,0,58,0,1,,,,,,,,,,,,,,,,,,,,,,,,,,,,
,,,,,,,,,,,,,,,6152b8943ef5c73934ed350a,2021-10-22_16h04.03.316,arrow_simon_punish,2021.1.2,Win32,59.63029219,,,,w,2.4491,59,0,59,0,1,,,,,,,,,,,,,,,,,,,,,,,,,,,,
,,,,,,,,,,,right.png,,p,left,6152b8943ef5c73934ed350a,2021-10-22_16h04.03.316,arrow_simon_punish,2021.1.2,Win32,59.63029219,,,,,,,,,,,space,0,58.921,w,0,1.3877,2.099796154,1,1,0,0,0,0,1,,,,,,,,,,,,,,
,,,,,,,,,,,left.png,,w,left,6152b8943ef5c73934ed350a,2021-10-22_16h04.03.316,arrow_simon_punish,2021.1.2,Win32,59.63029219,,,,,,,,,,,,,,w,1,1.4093,1.727691724,0,1,0,1,1,2,1,,,,,,,,,,,,,,
,,,,,,,,,,,left.png,,w,left,6152b8943ef5c73934ed350a,2021-10-22_16h04.03.316,arrow_simon_punish,2021.1.2,Win32,59.63029219,,,,,,,,,,,,,,w,1,1.292,1.643958539,1,1,0,2,2,2,1,,,,,,,,,,,,,,
,,,,,,,,,,,left.png,,w,left,6152b8943ef5c73934ed350a,2021-10-22_16h04.03.316,arrow_simon_punish,2021.1.2,Win32,59.63029219,,,,,,,,,,,,,,w,1,1.8193,2.246916131,1,1,0,3,3,2,1,,,,,,,,,,,,,,
,,,,,,,,,,,right.png,,p,left,6152b8943ef5c73934ed350a,2021-10-22_16h04.03.316,arrow_simon_punish,2021.1.2,Win32,59.63029219,,,,,,,,,,,,,,w,0,1.4332,1.846180664,1,1,1,0,4,0,1,,,,,,,,,,,,,,
,,,,,,,,,,,right.png,,p,left,6152b8943ef5c73934ed350a,2021-10-22_16h04.03.316,arrow_simon_punish,2021.1.2,Win32,59.63029219,,,,,,,,,,,,,,p,1,1.1076,1.590744287,1,1,1,1,5,0,1,,,,,,,,,,,,,,
,,,,,,,,,,,left.png,,w,right,6152b8943ef5c73934ed350a,2021-10-22_16h04.03.316,arrow_simon_punish,2021.1.2,Win32,59.63029219,,,,,,,,,,,,,,p,0,1.1665,1.713855098,1,1,1,2,6,3,1,,,,,,,,,,,,,,
,,,,,,,,,,,right.png,,p,right,6152b8943ef5c73934ed350a,2021-10-22_16h04.03.316,arrow_simon_punish,2021.1.2,Win32,59.63029219,,,,,,,,,,,,,,p,1,1.1074,1.563661055,1,1,1,3,7,1,1,,,,,,,,,,,,,,
,,,,,,,,,,,left.png,,w,left,6152b8943ef5c73934ed350a,2021-10-22_16h04.03.316,arrow_simon_punish,2021.1.2,Win32,59.63029219,,,,,,,,,,,,,,w,1,2.0107,1.641660651,1,1,2,0,8,2,1,,,,,,,,,,,,,,
,,,,,,,,,,,right.png,,p,right,6152b8943ef5c73934ed350a,2021-10-22_16h04.03.316,arrow_simon_punish,2021.1.2,Win32,59.63029219,,,,,,,,,,,,,,p,1,1.8688,2.01760314,1,1,2,1,9,1,1,,,,,,,,,,,,,,
,,,,,,,,,,,right.png,,p,left,6152b8943ef5c73934ed350a,2021-10-22_16h04.03.316,arrow_simon_punish,2021.1.2,Win32,59.63029219,,,,,,,,,,,,,,w,0,1.8446,2.26840062,1,1,2,2,10,0,1,,,,,,,,,,,,,,
,,,,,,,,,,,right.png,,p,left,6152b8943ef5c73934ed350a,2021-10-22_16h04.03.316,arrow_simon_punish,2021.1.2,Win32,59.63029219,,,,,,,,,,,,,,p,1,1.9963,2.32190479,1,1,2,3,11,0,1,,,,,,,,,,,,,,
,,,,,,,,,,,right.png,,p,right,6152b8943ef5c73934ed350a,2021-10-22_16h04.03.316,arrow_simon_punish,2021.1.2,Win32,59.63029219,,,,,,,,,,,,,,p,1,2.0297,2.348935931,1,1,3,0,12,1,1,,,,,,,,,,,,,,
,,,,,,,,,,,left.png,,w,right,6152b8943ef5c73934ed350a,2021-10-22_16h04.03.316,arrow_simon_punish,2021.1.2,Win32,59.63029219,,,,,,,,,,,,,,w,1,1.7338,2.209657716,1,1,3,1,13,3,1,,,,,,,,,,,,,,
,,,,,,,,,,,left.png,,w,left,6152b8943ef5c73934ed350a,2021-10-22_16h04.03.316,arrow_simon_punish,2021.1.2,Win32,59.63029219,,,,,,,,,,,,,,w,1,1.4341,1.523886356,0,1,3,2,14,2,1,,,,,,,,,,,,,,
,,,,,,,,,,,right.png,,p,right,6152b8943ef5c73934ed350a,2021-10-22_16h04.03.316,arrow_simon_punish,2021.1.2,Win32,59.63029219,,,,,,,,,,,,,,p,1,1.3736,1.747872977,1,1,3,3,15,1,1,,,,,,,,,,,,,,
,,,,,,,,,,,right.png,,p,right,6152b8943ef5c73934ed350a,2021-10-22_16h04.03.316,arrow_simon_punish,2021.1.2,Win32,59.63029219,,,,,,,,,,,,,,p,1,1.9628,2.252923695,1,1,4,0,16,1,1,,,,,,,,,,,,,,
,,,,,,,,,,,left.png,,w,left,6152b8943ef5c73934ed350a,2021-10-22_16h04.03.316,arrow_simon_punish,2021.1.2,Win32,59.63029219,,,,,,,,,,,,,,w,1,1.6936,1.57623883,1,1,4,1,17,2,1,,,,,,,,,,,,,,
,,,,,,,,,,,right.png,,p,left,6152b8943ef5c73934ed350a,2021-10-22_16h04.03.316,arrow_simon_punish,2021.1.2,Win32,59.63029219,,,,,,,,,,,,,,p,1,1.7439,1.841040666,1,1,4,2,18,0,1,,,,,,,,,,,,,,
,,,,,,,,,,,right.png,,p,left,6152b8943ef5c73934ed350a,2021-10-22_16h04.03.316,arrow_simon_punish,2021.1.2,Win32,59.63029219,,,,,,,,,,,,,,w,0,1.4483,1.525740334,1,1,4,3,19,0,1,,,,,,,,,,,,,,
,,,,,,,,,,,left.png,,w,right,6152b8943ef5c73934ed350a,2021-10-22_16h04.03.316,arrow_simon_punish,2021.1.2,Win32,59.63029219,,,,,,,,,,,,,,w,1,1.8616,1.734389074,1,1,5,0,20,3,1,,,,,,,,,,,,,,
,,,,,,,,,,,right.png,,p,left,6152b8943ef5c73934ed350a,2021-10-22_16h04.03.316,arrow_simon_punish,2021.1.2,Win32,59.63029219,,,,,,,,,,,,,,p,1,1.8286,1.892149045,1,1,5,1,21,0,1,,,,,,,,,,,,,,
,,,,,,,,,,,left.png,,w,right,6152b8943ef5c73934ed350a,2021-10-22_16h04.03.316,arrow_simon_punish,2021.1.2,Win32,59.63029219,,,,,,,,,,,,,,p,0,1.7425,2.20242107,1,1,5,2,22,3,1,,,,,,,,,,,,,,
,,,,,,,,,,,left.png,,w,right,6152b8943ef5c73934ed350a,2021-10-22_16h04.03.316,arrow_simon_punish,2021.1.2,Win32,59.63029219,,,,,,,,,,,,,,w,1,1.6273,1.685788036,1,1,5,3,23,3,1,,,,,,,,,,,,,,
,,,,,,,,,,,right.png,,p,left,6152b8943ef5c73934ed350a,2021-10-22_16h04.03.316,arrow_simon_punish,2021.1.2,Win32,59.63029219,,,,,,,,,,,,,,p,1,1.6298,2.238771853,1,1,6,0,24,0,1,,,,,,,,,,,,,,
,,,,,,,,,,,left.png,,w,right,6152b8943ef5c73934ed350a,2021-10-22_16h04.03.316,arrow_simon_punish,2021.1.2,Win32,59.63029219,,,,,,,,,,,,,,w,1,1.9439,2.151355565,1,1,6,1,25,3,1,,,,,,,,,,,,,,
,,,,,,,,,,,right.png,,p,left,6152b8943ef5c73934ed350a,2021-10-22_16h04.03.316,arrow_simon_punish,2021.1.2,Win32,59.63029219,,,,,,,,,,,,,,p,1,1.3087,1.544972156,1,1,6,2,26,0,1,,,,,,,,,,,,,,
,,,,,,,,,,,right.png,,p,right,6152b8943ef5c73934ed350a,2021-10-22_16h04.03.316,arrow_simon_punish,2021.1.2,Win32,59.63029219,,,,,,,,,,,,,,p,1,1.2805,1.680079238,1,1,6,3,27,1,1,,,,,,,,,,,,,,
,,,,,,,,,,,right.png,,p,left,6152b8943ef5c73934ed350a,2021-10-22_16h04.03.316,arrow_simon_punish,2021.1.2,Win32,59.63029219,,,,,,,,,,,,,,w,0,1.399,1.572541782,1,1,7,0,28,0,1,,,,,,,,,,,,,,
,,,,,,,,,,,left.png,,w,left,6152b8943ef5c73934ed350a,2021-10-22_16h04.03.316,arrow_simon_punish,2021.1.2,Win32,59.63029219,,,,,,,,,,,,,,w,1,2.1168,1.963880897,1,1,7,1,29,2,1,,,,,,,,,,,,,,
,,,,,,,,,,,right.png,,p,right,6152b8943ef5c73934ed350a,2021-10-22_16h04.03.316,arrow_simon_punish,2021.1.2,Win32,59.63029219,,,,,,,,,,,,,,p,1,1.6154,1.512868657,1,1,7,2,30,1,1,,,,,,,,,,,,,,
,,,,,,,,,,,right.png,,p,right,6152b8943ef5c73934ed350a,2021-10-22_16h04.03.316,arrow_simon_punish,2021.1.2,Win32,59.63029219,,,,,,,,,,,,,,p,1,1.1243,1.608355761,1,1,7,3,31,1,1,,,,,,,,,,,,,,
,,,,,,,,,,,right.png,,p,right,6152b8943ef5c73934ed350a,2021-10-22_16h04.03.316,arrow_simon_punish,2021.1.2,Win32,59.63029219,,,,,,,,,,,,,,p,1,1.7983,1.588923357,1,1,8,0,32,1,1,,,,,,,,,,,,,,
,,,,,,,,,,,left.png,,w,right,6152b8943ef5c73934ed350a,2021-10-22_16h04.03.316,arrow_simon_punish,2021.1.2,Win32,59.63029219,,,,,,,,,,,,,,w,1,1.9293,2.209321796,1,1,8,1,33,3,1,,,,,,,,,,,,,,
,,,,,,,,,,,right.png,,p,right,6152b8943ef5c73934ed350a,2021-10-22_16h04.03.316,arrow_simon_punish,2021.1.2,Win32,59.63029219,,,,,,,,,,,,,,p,1,1.882,1.84067404,1,1,8,2,34,1,1,,,,,,,,,,,,,,
,,,,,,,,,,,left.png,,w,right,6152b8943ef5c73934ed350a,2021-10-22_16h04.03.316,arrow_simon_punish,2021.1.2,Win32,59.63029219,,,,,,,,,,,,,,w,1,2.0291,2.186920669,1,1,8,3,35,3,1,,,,,,,,,,,,,,
,,,,,,,,,,,right.png,,p,right,6152b8943ef5c73934ed350a,2021-10-22_16h04.03.316,arrow_simon_punish,2021.1.2,Win32,59.63029219,,,,,,,,,,,,,,p,1,1.8287,1.685794091,1,1,9,0,36,1,1,,,,,,,,,,,,,,
,,,,,,,,,,,right.png,,p,right,6152b8943ef5c73934ed350a,2021-10-22_16h04.03.316,arrow_simon_punish,2021.1.2,Win32,59.63029219,,,,,,,,,,,,,,p,1,1.6129,2.03935605,1,1,9,1,37,1,1,,,,,,,,,,,,,,
,,,,,,,,,,,left.png,,w,right,6152b8943ef5c73934ed350a,2021-10-22_16h04.03.316,arrow_simon_punish,2021.1.2,Win32,59.63029219,,,,,,,,,,,,,,w,1,2.0461,2.372858283,1,1,9,2,38,3,1,,,,,,,,,,,,,,
,,,,,,,,,,,left.png,,w,right,6152b8943ef5c73934ed350a,2021-10-22_16h04.03.316,arrow_simon_punish,2021.1.2,Win32,59.63029219,,,,,,,,,,,,,,w,1,1.9291,1.606570212,1,1,9,3,39,3,1,,,,,,,,,,,,,,
,,,,,,,,,,,left.png,,w,left,6152b8943ef5c73934ed350a,2021-10-22_16h04.03.316,arrow_simon_punish,2021.1.2,Win32,59.63029219,,,,,,,,,,,,,,p,0,1.6606,2.155658818,1,1,10,0,40,2,1,,,,,,,,,,,,,,
,,,,,,,,,,,left.png,,w,left,6152b8943ef5c73934ed350a,2021-10-22_16h04.03.316,arrow_simon_punish,2021.1.2,Win32,59.63029219,,,,,,,,,,,,,,w,1,1.7279,2.222401713,1,1,10,1,41,2,1,,,,,,,,,,,,,,
,,,,,,,,,,,right.png,,p,left,6152b8943ef5c73934ed350a,2021-10-22_16h04.03.316,arrow_simon_punish,2021.1.2,Win32,59.63029219,,,,,,,,,,,,,,p,1,1.795,1.69568655,1,1,10,2,42,0,1,,,,,,,,,,,,,,
,,,,,,,,,,,right.png,,p,left,6152b8943ef5c73934ed350a,2021-10-22_16h04.03.316,arrow_simon_punish,2021.1.2,Win32,59.63029219,,,,,,,,,,,,,,w,0,1.8118,2.429191434,1,1,10,3,43,0,1,,,,,,,,,,,,,,
,,,,,,,,,,,left.png,,w,right,6152b8943ef5c73934ed350a,2021-10-22_16h04.03.316,arrow_simon_punish,2021.1.2,Win32,59.63029219,,,,,,,,,,,,,,w,1,1.9795,1.817476624,1,1,11,0,44,3,1,,,,,,,,,,,,,,
,,,,,,,,,,,left.png,,w,left,6152b8943ef5c73934ed350a,2021-10-22_16h04.03.316,arrow_simon_punish,2021.1.2,Win32,59.63029219,,,,,,,,,,,,,,w,1,2.0531,2.342939074,1,1,11,1,45,2,1,,,,,,,,,,,,,,
,,,,,,,,,,,right.png,,p,right,6152b8943ef5c73934ed350a,2021-10-22_16h04.03.316,arrow_simon_punish,2021.1.2,Win32,59.63029219,,,,,,,,,,,,,,p,1,1.3782,1.522382987,1,1,11,2,46,1,1,,,,,,,,,,,,,,
,,,,,,,,,,,left.png,,w,left,6152b8943ef5c73934ed350a,2021-10-22_16h04.03.316,arrow_simon_punish,2021.1.2,Win32,59.63029219,,,,,,,,,,,,,,w,1,2.0279,2.416397829,1,1,11,3,47,2,1,,,,,,,,,,,,,,
,,,,,,,,,,,right.png,,p,right,6152b8943ef5c73934ed350a,2021-10-22_16h04.03.316,arrow_simon_punish,2021.1.2,Win32,59.63029219,,,,,,,,,,,,,,p,1,1.8934,2.343860835,1,1,12,0,48,1,1,,,,,,,,,,,,,,
,,,,,,,,,,,left.png,,w,left,6152b8943ef5c73934ed350a,2021-10-22_16h04.03.316,arrow_simon_punish,2021.1.2,Win32,59.63029219,,,,,,,,,,,,,,w,1,1.6943,2.322285121,1,1,12,1,49,2,1,,,,,,,,,,,,,,
,,,,,,,,,,,left.png,,w,right,6152b8943ef5c73934ed350a,2021-10-22_16h04.03.316,arrow_simon_punish,2021.1.2,Win32,59.63029219,,,,,,,,,,,,,,w,1,1.8624,1.701151005,1,1,12,2,50,3,1,,,,,,,,,,,,,,
,,,,,,,,,,,right.png,,p,right,6152b8943ef5c73934ed350a,2021-10-22_16h04.03.316,arrow_simon_punish,2021.1.2,Win32,59.63029219,,,,,,,,,,,,,,p,1,1.677,1.821057522,1,1,12,3,51,1,1,,,,,,,,,,,,,,
,,,,,,,,,,,left.png,,w,left,6152b8943ef5c73934ed350a,2021-10-22_16h04.03.316,arrow_simon_punish,2021.1.2,Win32,59.63029219,,,,,,,,,,,,,,w,1,1.5096,2.025449459,0,1,13,0,52,2,1,,,,,,,,,,,,,,
,,,,,,,,,,,left.png,,w,right,6152b8943ef5c73934ed350a,2021-10-22_16h04.03.316,arrow_simon_punish,2021.1.2,Win32,59.63029219,,,,,,,,,,,,,,p,0,0.8728,1.541729047,1,1,13,1,53,3,1,,,,,,,,,,,,,,
,,,,,,,,,,,left.png,,w,left,6152b8943ef5c73934ed350a,2021-10-22_16h04.03.316,arrow_simon_punish,2021.1.2,Win32,59.63029219,,,,,,,,,,,,,,w,1,1.6776,1.728115792,1,1,13,2,54,2,1,,,,,,,,,,,,,,
,,,,,,,,,,,right.png,,p,left,6152b8943ef5c73934ed350a,2021-10-22_16h04.03.316,arrow_simon_punish,2021.1.2,Win32,59.63029219,,,,,,,,,,,,,,w,0,1.5595,2.05468015,1,1,13,3,55,0,1,,,,,,,,,,,,,,
,,,,,,,,,,,left.png,,w,right,6152b8943ef5c73934ed350a,2021-10-22_16h04.03.316,arrow_simon_punish,2021.1.2,Win32,59.63029219,,,,,,,,,,,,,,w,1,2.1474,2.103300928,1,1,14,0,56,3,1,,,,,,,,,,,,,,
,,,,,,,,,,,right.png,,p,left,6152b8943ef5c73934ed350a,2021-10-22_16h04.03.316,arrow_simon_punish,2021.1.2,Win32,59.63029219,,,,,,,,,,,,,,p,1,1.8285,1.85624991,1,1,14,1,57,0,1,,,,,,,,,,,,,,
,,,,,,,,,,,left.png,,w,left,6152b8943ef5c73934ed350a,2021-10-22_16h04.03.316,arrow_simon_punish,2021.1.2,Win32,59.63029219,,,,,,,,,,,,,,w,1,1.6438,2.162740107,1,1,14,2,58,2,1,,,,,,,,,,,,,,
,,,,,,,,,,,left.png,,w,right,6152b8943ef5c73934ed350a,2021-10-22_16h04.03.316,arrow_simon_punish,2021.1.2,Win32,59.63029219,,,,,,,,,,,,,,w,1,1.927,1.635297018,1,1,14,3,59,3,1,,,,,,,,,,,,,,
,,,,,,,,,,,,,,,6152b8943ef5c73934ed350a,2021-10-22_16h04.03.316,arrow_simon_punish,2021.1.2,Win32,59.63029219,,,,,,,,,,,,,,,,,,,,,,,,,space,22.6889,2,0,0,0,0,1,1,,,,,
,,,,,,,,,,,left.png,,w,right,6152b8943ef5c73934ed350a,2021-10-22_16h04.03.316,arrow_simon_punish,2021.1.2,Win32,59.63029219,,,,,,,,,,,,,,p,0,1.8455,2.044243284,1,5,0,0,0,3,1,,,,,,,,,,,,,,
,,,,,,,,,,,right.png,,p,left,6152b8943ef5c73934ed350a,2021-10-22_16h04.03.316,arrow_simon_punish,2021.1.2,Win32,59.63029219,,,,,,,,,,,,,,w,0,2.2311,2.153395219,1,5,0,1,1,0,1,,,,,,,,,,,,,,
,,,,,,,,,,,left.png,,w,right,6152b8943ef5c73934ed350a,2021-10-22_16h04.03.316,arrow_simon_punish,2021.1.2,Win32,59.63029219,,,,,,,,,,,,,,w,1,2.1976,2.440280985,1,5,0,2,2,3,1,,,,,,,,,,,,,,
,,,,,,,,,,,right.png,,p,right,6152b8943ef5c73934ed350a,2021-10-22_16h04.03.316,arrow_simon_punish,2021.1.2,Win32,59.63029219,,,,,,,,,,,,,,p,1,1.2919,1.880061859,1,5,0,3,3,1,1,,,,,,,,,,,,,,
,,,,,,,,,,,right.png,,p,right,6152b8943ef5c73934ed350a,2021-10-22_16h04.03.316,arrow_simon_punish,2021.1.2,Win32,59.63029219,,,,,,,,,,,,,,p,1,1.6811,2.238701043,1,5,1,0,4,1,1,,,,,,,,,,,,,,
,,,,,,,,,,,left.png,,w,right,6152b8943ef5c73934ed350a,2021-10-22_16h04.03.316,arrow_simon_punish,2021.1.2,Win32,59.63029219,,,,,,,,,,,,,,w,1,1.929,2.288408098,1,5,1,1,5,3,1,,,,,,,,,,,,,,
,,,,,,,,,,,right.png,,p,right,6152b8943ef5c73934ed350a,2021-10-22_16h04.03.316,arrow_simon_punish,2021.1.2,Win32,59.63029219,,,,,,,,,,,,,,p,1,1.7786,2.238381532,1,5,1,2,6,1,1,,,,,,,,,,,,,,
,,,,,,,,,,,right.png,,p,right,6152b8943ef5c73934ed350a,2021-10-22_16h04.03.316,arrow_simon_punish,2021.1.2,Win32,59.63029219,,,,,,,,,,,,,,w,0,1.9292,2.446260592,1,5,1,3,7,1,1,,,,,,,,,,,,,,
,,,,,,,,,,,left.png,,w,right,6152b8943ef5c73934ed350a,2021-10-22_16h04.03.316,arrow_simon_punish,2021.1.2,Win32,59.63029219,,,,,,,,,,,,,,w,1,1.8285,1.822664558,1,5,2,0,8,3,1,,,,,,,,,,,,,,
,,,,,,,,,,,left.png,,w,left,6152b8943ef5c73934ed350a,2021-10-22_16h04.03.316,arrow_simon_punish,2021.1.2,Win32,59.63029219,,,,,,,,,,,,,,p,0,1.2073,1.690669643,1,5,2,1,9,2,1,,,,,,,,,,,,,,
,,,,,,,,,,,right.png,,p,right,6152b8943ef5c73934ed350a,2021-10-22_16h04.03.316,arrow_simon_punish,2021.1.2,Win32,59.63029219,,,,,,,,,,,,,,w,0,1.9146,2.299188395,1,5,2,2,10,1,1,,,,,,,,,,,,,,
,,,,,,,,,,,right.png,,p,left,6152b8943ef5c73934ed350a,2021-10-22_16h04.03.316,arrow_simon_punish,2021.1.2,Win32,59.63029219,,,,,,,,,,,,,,p,1,2.134,2.404319388,1,5,2,3,11,0,1,,,,,,,,,,,,,,
,,,,,,,,,,,right.png,,p,left,6152b8943ef5c73934ed350a,2021-10-22_16h04.03.316,arrow_simon_punish,2021.1.2,Win32,59.63029219,,,,,,,,,,,,,,p,1,1.8286,2.126583045,1,5,3,0,12,0,1,,,,,,,,,,,,,,
,,,,,,,,,,,right.png,,p,left,6152b8943ef5c73934ed350a,2021-10-22_16h04.03.316,arrow_simon_punish,2021.1.2,Win32,59.63029219,,,,,,,,,,,,,,p,1,1.5941,1.865435159,0,5,3,1,13,0,1,,,,,,,,,,,,,,
,,,,,,,,,,,right.png,,p,left,6152b8943ef5c73934ed350a,2021-10-22_16h04.03.316,arrow_simon_punish,2021.1.2,Win32,59.63029219,,,,,,,,,,,,,,p,1,1.7677,2.085827841,1,5,3,2,14,0,1,,,,,,,,,,,,,,
,,,,,,,,,,,right.png,,p,right,6152b8943ef5c73934ed350a,2021-10-22_16h04.03.316,arrow_simon_punish,2021.1.2,Win32,59.63029219,,,,,,,,,,,,,,p,1,1.9879,2.090896952,1,5,3,3,15,1,1,,,,,,,,,,,,,,
,,,,,,,,,,,left.png,,w,left,6152b8943ef5c73934ed350a,2021-10-22_16h04.03.316,arrow_simon_punish,2021.1.2,Win32,59.63029219,,,,,,,,,,,,,,w,1,1.7489,1.959629332,1,5,4,0,16,2,1,,,,,,,,,,,,,,
,,,,,,,,,,,left.png,,w,left,6152b8943ef5c73934ed350a,2021-10-22_16h04.03.316,arrow_simon_punish,2021.1.2,Win32,59.63029219,,,,,,,,,,,,,,w,1,1.3255,1.647092249,1,5,4,1,17,2,1,,,,,,,,,,,,,,
,,,,,,,,,,,left.png,,w,left,6152b8943ef5c73934ed350a,2021-10-22_16h04.03.316,arrow_simon_punish,2021.1.2,Win32,59.63029219,,,,,,,,,,,,,,w,1,1.5804,1.791336984,0,5,4,2,18,2,1,,,,,,,,,,,,,,
,,,,,,,,,,,left.png,,w,right,6152b8943ef5c73934ed350a,2021-10-22_16h04.03.316,arrow_simon_punish,2021.1.2,Win32,59.63029219,,,,,,,,,,,,,,w,1,1.9796,2.167323833,1,5,4,3,19,3,1,,,,,,,,,,,,,,
,,,,,,,,,,,left.png,,w,right,6152b8943ef5c73934ed350a,2021-10-22_16h04.03.316,arrow_simon_punish,2021.1.2,Win32,59.63029219,,,,,,,,,,,,,,w,1,1.745,2.237441443,1,5,5,0,20,3,1,,,,,,,,,,,,,,
,,,,,,,,,,,right.png,,p,right,6152b8943ef5c73934ed350a,2021-10-22_16h04.03.316,arrow_simon_punish,2021.1.2,Win32,59.63029219,,,,,,,,,,,,,,p,1,1.0237,1.575433178,1,5,5,1,21,1,1,,,,,,,,,,,,,,
,,,,,,,,,,,left.png,,w,left,6152b8943ef5c73934ed350a,2021-10-22_16h04.03.316,arrow_simon_punish,2021.1.2,Win32,59.63029219,,,,,,,,,,,,,,w,1,1.6776,2.315353476,1,5,5,2,22,2,1,,,,,,,,,,,,,,
,,,,,,,,,,,left.png,,w,left,6152b8943ef5c73934ed350a,2021-10-22_16h04.03.316,arrow_simon_punish,2021.1.2,Win32,59.63029219,,,,,,,,,,,,,,w,1,1.6441,2.139030603,1,5,5,3,23,2,1,,,,,,,,,,,,,,
,,,,,,,,,,,right.png,,p,right,6152b8943ef5c73934ed350a,2021-10-22_16h04.03.316,arrow_simon_punish,2021.1.2,Win32,59.63029219,,,,,,,,,,,,,,p,1,1.1259,1.504322705,1,5,6,0,24,1,1,,,,,,,,,,,,,,
,,,,,,,,,,,left.png,,w,left,6152b8943ef5c73934ed350a,2021-10-22_16h04.03.316,arrow_simon_punish,2021.1.2,Win32,59.63029219,,,,,,,,,,,,,,w,1,1.8325,2.440749153,1,5,6,1,25,2,1,,,,,,,,,,,,,,
,,,,,,,,,,,left.png,,w,left,6152b8943ef5c73934ed350a,2021-10-22_16h04.03.316,arrow_simon_punish,2021.1.2,Win32,59.63029219,,,,,,,,,,,,,,w,1,1.4932,1.572915562,0,5,6,2,26,2,1,,,,,,,,,,,,,,
,,,,,,,,,,,right.png,,p,right,6152b8943ef5c73934ed350a,2021-10-22_16h04.03.316,arrow_simon_punish,2021.1.2,Win32,59.63029219,,,,,,,,,,,,,,p,1,1.5338,2.17261621,0,5,6,3,27,1,1,,,,,,,,,,,,,,
,,,,,,,,,,,left.png,,w,right,6152b8943ef5c73934ed350a,2021-10-22_16h04.03.316,arrow_simon_punish,2021.1.2,Win32,59.63029219,,,,,,,,,,,,,,w,1,1.5077,1.866616039,0,5,7,0,28,3,1,,,,,,,,,,,,,,
,,,,,,,,,,,left.png,,w,left,6152b8943ef5c73934ed350a,2021-10-22_16h04.03.316,arrow_simon_punish,2021.1.2,Win32,59.63029219,,,,,,,,,,,,,,w,1,1.1746,1.684762784,1,5,7,1,29,2,1,,,,,,,,,,,,,,
,,,,,,,,,,,right.png,,p,left,6152b8943ef5c73934ed350a,2021-10-22_16h04.03.316,arrow_simon_punish,2021.1.2,Win32,59.63029219,,,,,,,,,,,,,,p,1,1.6274,1.675535189,1,5,7,2,30,0,1,,,,,,,,,,,,,,
,,,,,,,,,,,left.png,,w,right,6152b8943ef5c73934ed350a,2021-10-22_16h04.03.316,arrow_simon_punish,2021.1.2,Win32,59.63029219,,,,,,,,,,,,,,w,1,2.0124,1.995070108,1,5,7,3,31,3,1,,,,,,,,,,,,,,
,,,,,,,,,,,right.png,,p,left,6152b8943ef5c73934ed350a,2021-10-22_16h04.03.316,arrow_simon_punish,2021.1.2,Win32,59.63029219,,,,,,,,,,,,,,p,1,1.886,1.69406401,1,5,8,0,32,0,1,,,,,,,,,,,,,,
,,,,,,,,,,,left.png,,w,right,6152b8943ef5c73934ed350a,2021-10-22_16h04.03.316,arrow_simon_punish,2021.1.2,Win32,59.63029219,,,,,,,,,,,,,,w,1,1.931,1.670885163,1,5,8,1,33,3,1,,,,,,,,,,,,,,
,,,,,,,,,,,right.png,,p,left,6152b8943ef5c73934ed350a,2021-10-22_16h04.03.316,arrow_simon_punish,2021.1.2,Win32,59.63029219,,,,,,,,,,,,,,w,0,1.6252,2.180957138,1,5,8,2,34,0,1,,,,,,,,,,,,,,
,,,,,,,,,,,left.png,,w,right,6152b8943ef5c73934ed350a,2021-10-22_16h04.03.316,arrow_simon_punish,2021.1.2,Win32,59.63029219,,,,,,,,,,,,,,p,0,2.097,2.389344338,1,5,8,3,35,3,1,,,,,,,,,,,,,,
,,,,,,,,,,,left.png,,w,left,6152b8943ef5c73934ed350a,2021-10-22_16h04.03.316,arrow_simon_punish,2021.1.2,Win32,59.63029219,,,,,,,,,,,,,,w,1,2.1639,2.318062575,1,5,9,0,36,2,1,,,,,,,,,,,,,,
,,,,,,,,,,,left.png,,w,right,6152b8943ef5c73934ed350a,2021-10-22_16h04.03.316,arrow_simon_punish,2021.1.2,Win32,59.63029219,,,,,,,,,,,,,,w,1,1.7664,1.969248966,1,5,9,1,37,3,1,,,,,,,,,,,,,,
,,,,,,,,,,,right.png,,p,left,6152b8943ef5c73934ed350a,2021-10-22_16h04.03.316,arrow_simon_punish,2021.1.2,Win32,59.63029219,,,,,,,,,,,,,,w,0,1.9292,2.363175387,1,5,9,2,38,0,1,,,,,,,,,,,,,,
,,,,,,,,,,,left.png,,w,left,6152b8943ef5c73934ed350a,2021-10-22_16h04.03.316,arrow_simon_punish,2021.1.2,Win32,59.63029219,,,,,,,,,,,,,,w,1,2.0131,2.313455375,1,5,9,3,39,2,1,,,,,,,,,,,,,,
,,,,,,,,,,,right.png,,p,left,6152b8943ef5c73934ed350a,2021-10-22_16h04.03.316,arrow_simon_punish,2021.1.2,Win32,59.63029219,,,,,,,,,,,,,,p,1,1.862,1.890171054,1,5,10,0,40,0,1,,,,,,,,,,,,,,
,,,,,,,,,,,left.png,,w,right,6152b8943ef5c73934ed350a,2021-10-22_16h04.03.316,arrow_simon_punish,2021.1.2,Win32,59.63029219,,,,,,,,,,,,,,w,1,1.862,2.08836389,1,5,10,1,41,3,1,,,,,,,,,,,,,,
,,,,,,,,,,,left.png,,w,right,6152b8943ef5c73934ed350a,2021-10-22_16h04.03.316,arrow_simon_punish,2021.1.2,Win32,59.63029219,,,,,,,,,,,,,,p,0,1.8647,2.491911447,1,5,10,2,42,3,1,,,,,,,,,,,,,,
,,,,,,,,,,,right.png,,p,left,6152b8943ef5c73934ed350a,2021-10-22_16h04.03.316,arrow_simon_punish,2021.1.2,Win32,59.63029219,,,,,,,,,,,,,,w,0,1.6864,2.206979692,1,5,10,3,43,0,1,,,,,,,,,,,,,,
,,,,,,,,,,,right.png,,p,right,6152b8943ef5c73934ed350a,2021-10-22_16h04.03.316,arrow_simon_punish,2021.1.2,Win32,59.63029219,,,,,,,,,,,,,,p,1,1.8286,2.290726491,1,5,11,0,44,1,1,,,,,,,,,,,,,,
,,,,,,,,,,,left.png,,w,left,6152b8943ef5c73934ed350a,2021-10-22_16h04.03.316,arrow_simon_punish,2021.1.2,Win32,59.63029219,,,,,,,,,,,,,,w,1,1.8367,1.922850661,1,5,11,1,45,2,1,,,,,,,,,,,,,,
,,,,,,,,,,,right.png,,p,right,6152b8943ef5c73934ed350a,2021-10-22_16h04.03.316,arrow_simon_punish,2021.1.2,Win32,59.63029219,,,,,,,,,,,,,,p,1,1.7316,2.289377146,1,5,11,2,46,1,1,,,,,,,,,,,,,,
,,,,,,,,,,,left.png,,w,left,6152b8943ef5c73934ed350a,2021-10-22_16h04.03.316,arrow_simon_punish,2021.1.2,Win32,59.63029219,,,,,,,,,,,,,,w,1,1.6485,2.167865009,1,5,11,3,47,2,1,,,,,,,,,,,,,,
,,,,,,,,,,,right.png,,p,right,6152b8943ef5c73934ed350a,2021-10-22_16h04.03.316,arrow_simon_punish,2021.1.2,Win32,59.63029219,,,,,,,,,,,,,,p,1,1.1687,1.752384165,1,5,12,0,48,1,1,,,,,,,,,,,,,,
,,,,,,,,,,,right.png,,p,left,6152b8943ef5c73934ed350a,2021-10-22_16h04.03.316,arrow_simon_punish,2021.1.2,Win32,59.63029219,,,,,,,,,,,,,,p,1,1.6272,2.015074653,1,5,12,1,49,0,1,,,,,,,,,,,,,,
,,,,,,,,,,,left.png,,w,left,6152b8943ef5c73934ed350a,2021-10-22_16h04.03.316,arrow_simon_punish,2021.1.2,Win32,59.63029219,,,,,,,,,,,,,,w,1,1.3268,1.893475164,1,5,12,2,50,2,1,,,,,,,,,,,,,,
,,,,,,,,,,,right.png,,p,right,6152b8943ef5c73934ed350a,2021-10-22_16h04.03.316,arrow_simon_punish,2021.1.2,Win32,59.63029219,,,,,,,,,,,,,,p,1,0.9566,2.002240914,1,5,12,3,51,1,1,,,,,,,,,,,,,,
,,,,,,,,,,,left.png,,w,right,6152b8943ef5c73934ed350a,2021-10-22_16h04.03.316,arrow_simon_punish,2021.1.2,Win32,59.63029219,,,,,,,,,,,,,,p,0,1.8956,2.486211181,1,5,13,0,52,3,1,,,,,,,,,,,,,,
,,,,,,,,,,,right.png,,p,left,6152b8943ef5c73934ed350a,2021-10-22_16h04.03.316,arrow_simon_punish,2021.1.2,Win32,59.63029219,,,,,,,,,,,,,,w,0,1.831,2.339330152,1,5,13,1,53,0,1,,,,,,,,,,,,,,
,,,,,,,,,,,right.png,,p,left,6152b8943ef5c73934ed350a,2021-10-22_16h04.03.316,arrow_simon_punish,2021.1.2,Win32,59.63029219,,,,,,,,,,,,,,p,1,2.0302,1.869758225,1,5,13,2,54,0,1,,,,,,,,,,,,,,
,,,,,,,,,,,right.png,,p,right,6152b8943ef5c73934ed350a,2021-10-22_16h04.03.316,arrow_simon_punish,2021.1.2,Win32,59.63029219,,,,,,,,,,,,,,p,1,1.8832,1.790612424,1,5,13,3,55,1,1,,,,,,,,,,,,,,
,,,,,,,,,,,right.png,,p,right,6152b8943ef5c73934ed350a,2021-10-22_16h04.03.316,arrow_simon_punish,2021.1.2,Win32,59.63029219,,,,,,,,,,,,,,p,1,1.6777,1.901997708,1,5,14,0,56,1,1,,,,,,,,,,,,,,
,,,,,,,,,,,left.png,,w,right,6152b8943ef5c73934ed350a,2021-10-22_16h04.03.316,arrow_simon_punish,2021.1.2,Win32,59.63029219,,,,,,,,,,,,,,w,1,1.5659,1.588486552,0,5,14,1,57,3,1,,,,,,,,,,,,,,
,,,,,,,,,,,left.png,,w,left,6152b8943ef5c73934ed350a,2021-10-22_16h04.03.316,arrow_simon_punish,2021.1.2,Win32,59.63029219,,,,,,,,,,,,,,p,0,0.8571,2.154888587,1,5,14,2,58,2,1,,,,,,,,,,,,,,
,,,,,,,,,,,right.png,,p,left,6152b8943ef5c73934ed350a,2021-10-22_16h04.03.316,arrow_simon_punish,2021.1.2,Win32,59.63029219,,,,,,,,,,,,,,w,0,1.3757,1.756623466,1,5,14,3,59,0,1,,,,,,,,,,,,,,
,,,,,,,,,,,,,,,6152b8943ef5c73934ed350a,2021-10-22_16h04.03.316,arrow_simon_punish,2021.1.2,Win32,59.63029219,,,,,,,,,,,,,,,,,,,,,,,,,space,19.3104,3,0,1,1,1,1,5,,,,,
,,,,,,,,,,,left.png,,w,right,6152b8943ef5c73934ed350a,2021-10-22_16h04.03.316,arrow_simon_punish,2021.1.2,Win32,59.63029219,,,,,,,,,,,,,,p,0,1.8338,2.20503624,1,1,0,0,0,3,1,,,,,,,,,,,,,,
,,,,,,,,,,,right.png,,p,right,6152b8943ef5c73934ed350a,2021-10-22_16h04.03.316,arrow_simon_punish,2021.1.2,Win32,59.63029219,,,,,,,,,,,,,,p,1,1.1906,1.714176069,1,1,0,1,1,1,1,,,,,,,,,,,,,,
,,,,,,,,,,,left.png,,w,right,6152b8943ef5c73934ed350a,2021-10-22_16h04.03.316,arrow_simon_punish,2021.1.2,Win32,59.63029219,,,,,,,,,,,,,,w,1,2.1824,2.488879475,1,1,0,2,2,3,1,,,,,,,,,,,,,,
,,,,,,,,,,,right.png,,p,right,6152b8943ef5c73934ed350a,2021-10-22_16h04.03.316,arrow_simon_punish,2021.1.2,Win32,59.63029219,,,,,,,,,,,,,,p,1,1.5334,1.661529098,0,1,0,3,3,1,1,,,,,,,,,,,,,,
,,,,,,,,,,,left.png,,w,right,6152b8943ef5c73934ed350a,2021-10-22_16h04.03.316,arrow_simon_punish,2021.1.2,Win32,59.63029219,,,,,,,,,,,,,,p,0,1.2829,1.919794502,1,1,1,0,4,3,1,,,,,,,,,,,,,,
,,,,,,,,,,,left.png,,w,left,6152b8943ef5c73934ed350a,2021-10-22_16h04.03.316,arrow_simon_punish,2021.1.2,Win32,59.63029219,,,,,,,,,,,,,,w,1,1.8522,2.101931641,1,1,1,1,5,2,1,,,,,,,,,,,,,,
,,,,,,,,,,,left.png,,w,left,6152b8943ef5c73934ed350a,2021-10-22_16h04.03.316,arrow_simon_punish,2021.1.2,Win32,59.63029219,,,,,,,,,,,,,,w,1,1.5579,1.952948525,0,1,1,2,6,2,1,,,,,,,,,,,,,,
,,,,,,,,,,,left.png,,w,right,6152b8943ef5c73934ed350a,2021-10-22_16h04.03.316,arrow_simon_punish,2021.1.2,Win32,59.63029219,,,,,,,,,,,,,,p,0,1.3402,2.003324286,1,1,1,3,7,3,1,,,,,,,,,,,,,,
,,,,,,,,,,,left.png,,w,left,6152b8943ef5c73934ed350a,2021-10-22_16h04.03.316,arrow_simon_punish,2021.1.2,Win32,59.63029219,,,,,,,,,,,,,,w,1,1.6608,2.032999757,1,1,2,0,8,2,1,,,,,,,,,,,,,,
,,,,,,,,,,,right.png,,p,left,6152b8943ef5c73934ed350a,2021-10-22_16h04.03.316,arrow_simon_punish,2021.1.2,Win32,59.63029219,,,,,,,,,,,,,,p,1,1.6986,2.047726615,1,1,2,1,9,0,1,,,,,,,,,,,,,,
,,,,,,,,,,,left.png,,w,left,6152b8943ef5c73934ed350a,2021-10-22_16h04.03.316,arrow_simon_punish,2021.1.2,Win32,59.63029219,,,,,,,,,,,,,,w,1,1.9349,2.361273269,1,1,2,2,10,2,1,,,,,,,,,,,,,,
,,,,,,,,,,,left.png,,w,left,6152b8943ef5c73934ed350a,2021-10-22_16h04.03.316,arrow_simon_punish,2021.1.2,Win32,59.63029219,,,,,,,,,,,,,,w,1,1.6105,1.798638999,1,1,2,3,11,2,1,,,,,,,,,,,,,,
,,,,,,,,,,,right.png,,p,right,6152b8943ef5c73934ed350a,2021-10-22_16h04.03.316,arrow_simon_punish,2021.1.2,Win32,59.63029219,,,,,,,,,,,,,,p,1,1.273,1.52415131,1,1,3,0,12,1,1,,,,,,,,,,,,,,
,,,,,,,,,,,left.png,,w,left,6152b8943ef5c73934ed350a,2021-10-22_16h04.03.316,arrow_simon_punish,2021.1.2,Win32,59.63029219,,,,,,,,,,,,,,w,1,1.6775,2.275717621,1,1,3,1,13,2,1,,,,,,,,,,,,,,
,,,,,,,,,,,right.png,,p,right,6152b8943ef5c73934ed350a,2021-10-22_16h04.03.316,arrow_simon_punish,2021.1.2,Win32,59.63029219,,,,,,,,,,,,,,p,1,2.8682,1.851829339,1,1,3,2,14,1,1,,,,,,,,,,,,,,
,,,,,,,,,,,right.png,,p,right,6152b8943ef5c73934ed350a,2021-10-22_16h04.03.316,arrow_simon_punish,2021.1.2,Win32,59.63029219,,,,,,,,,,,,,,p,1,1.5771,1.628171406,0,1,3,3,15,1,1,,,,,,,,,,,,,,
,,,,,,,,,,,right.png,,p,right,6152b8943ef5c73934ed350a,2021-10-22_16h04.03.316,arrow_simon_punish,2021.1.2,Win32,59.63029219,,,,,,,,,,,,,,p,1,1.9008,2.496917841,1,1,4,0,16,1,1,,,,,,,,,,,,,,
,,,,,,,,,,,right.png,,p,right,6152b8943ef5c73934ed350a,2021-10-22_16h04.03.316,arrow_simon_punish,2021.1.2,Win32,59.63029219,,,,,,,,,,,,,,p,1,1.9625,2.411944402,1,1,4,1,17,1,1,,,,,,,,,,,,,,
,,,,,,,,,,,right.png,,p,right,6152b8943ef5c73934ed350a,2021-10-22_16h04.03.316,arrow_simon_punish,2021.1.2,Win32,59.63029219,,,,,,,,,,,,,,p,1,1.3613,1.8129888,1,1,4,2,18,1,1,,,,,,,,,,,,,,
,,,,,,,,,,,left.png,,w,right,6152b8943ef5c73934ed350a,2021-10-22_16h04.03.316,arrow_simon_punish,2021.1.2,Win32,59.63029219,,,,,,,,,,,,,,p,0,1.2918,1.932749952,1,1,4,3,19,3,1,,,,,,,,,,,,,,
,,,,,,,,,,,left.png,,w,right,6152b8943ef5c73934ed350a,2021-10-22_16h04.03.316,arrow_simon_punish,2021.1.2,Win32,59.63029219,,,,,,,,,,,,,,w,1,1.8707,2.021408008,1,1,5,0,20,3,1,,,,,,,,,,,,,,
,,,,,,,,,,,left.png,,w,right,6152b8943ef5c73934ed350a,2021-10-22_16h04.03.316,arrow_simon_punish,2021.1.2,Win32,59.63029219,,,,,,,,,,,,,,w,1,1.7782,1.942369023,1,1,5,1,21,3,1,,,,,,,,,,,,,,
,,,,,,,,,,,right.png,,p,left,6152b8943ef5c73934ed350a,2021-10-22_16h04.03.316,arrow_simon_punish,2021.1.2,Win32,59.63029219,,,,,,,,,,,,,,p,1,1.4693,1.753275316,0,1,5,2,22,0,1,,,,,,,,,,,,,,
,,,,,,,,,,,right.png,,p,left,6152b8943ef5c73934ed350a,2021-10-22_16h04.03.316,arrow_simon_punish,2021.1.2,Win32,59.63029219,,,,,,,,,,,,,,p,1,1.0071,1.728237655,1,1,5,3,23,0,1,,,,,,,,,,,,,,
,,,,,,,,,,,left.png,,w,right,6152b8943ef5c73934ed350a,2021-10-22_16h04.03.316,arrow_simon_punish,2021.1.2,Win32,59.63029219,,,,,,,,,,,,,,w,1,1.3944,1.707679997,1,1,6,0,24,3,1,,,,,,,,,,,,,,
,,,,,,,,,,,left.png,,w,left,6152b8943ef5c73934ed350a,2021-10-22_16h04.03.316,arrow_simon_punish,2021.1.2,Win32,59.63029219,,,,,,,,,,,,,,w,1,1.7952,2.453943596,1,1,6,1,25,2,1,,,,,,,,,,,,,,
,,,,,,,,,,,right.png,,p,left,6152b8943ef5c73934ed350a,2021-10-22_16h04.03.316,arrow_simon_punish,2021.1.2,Win32,59.63029219,,,,,,,,,,,,,,w,0,1.4479,2.102428495,1,1,6,2,26,0,1,,,,,,,,,,,,,,
,,,,,,,,,,,right.png,,p,right,6152b8943ef5c73934ed350a,2021-10-22_16h04.03.316,arrow_simon_punish,2021.1.2,Win32,59.63029219,,,,,,,,,,,,,,p,1,1.2083,1.642280431,1,1,6,3,27,1,1,,,,,,,,,,,,,,
,,,,,,,,,,,right.png,,p,right,6152b8943ef5c73934ed350a,2021-10-22_16h04.03.316,arrow_simon_punish,2021.1.2,Win32,59.63029219,,,,,,,,,,,,,,p,1,1.3918,1.992123227,1,1,7,0,28,1,1,,,,,,,,,,,,,,
,,,,,,,,,,,left.png,,w,left,6152b8943ef5c73934ed350a,2021-10-22_16h04.03.316,arrow_simon_punish,2021.1.2,Win32,59.63029219,,,,,,,,,,,,,,w,1,1.6943,1.79377656,1,1,7,1,29,2,1,,,,,,,,,,,,,,
,,,,,,,,,,,left.png,,w,left,6152b8943ef5c73934ed350a,2021-10-22_16h04.03.316,arrow_simon_punish,2021.1.2,Win32,59.63029219,,,,,,,,,,,,,,w,1,1.7278,2.376515345,1,1,7,2,30,2,1,,,,,,,,,,,,,,
,,,,,,,,,,,right.png,,p,right,6152b8943ef5c73934ed350a,2021-10-22_16h04.03.316,arrow_simon_punish,2021.1.2,Win32,59.63029219,,,,,,,,,,,,,,p,1,1.6272,2.248477949,1,1,7,3,31,1,1,,,,,,,,,,,,,,
,,,,,,,,,,,right.png,,p,left,6152b8943ef5c73934ed350a,2021-10-22_16h04.03.316,arrow_simon_punish,2021.1.2,Win32,59.63029219,,,,,,,,,,,,,,w,0,1.3255,1.888390861,1,1,8,0,32,0,1,,,,,,,,,,,,,,
,,,,,,,,,,,right.png,,p,right,6152b8943ef5c73934ed350a,2021-10-22_16h04.03.316,arrow_simon_punish,2021.1.2,Win32,59.63029219,,,,,,,,,,,,,,p,1,1.3128,1.538623002,1,1,8,1,33,1,1,,,,,,,,,,,,,,
,,,,,,,,,,,right.png,,p,left,6152b8943ef5c73934ed350a,2021-10-22_16h04.03.316,arrow_simon_punish,2021.1.2,Win32,59.63029219,,,,,,,,,,,,,,w,0,1.4955,2.095892746,1,1,8,2,34,0,1,,,,,,,,,,,,,,
,,,,,,,,,,,left.png,,w,right,6152b8943ef5c73934ed350a,2021-10-22_16h04.03.316,arrow_simon_punish,2021.1.2,Win32,59.63029219,,,,,,,,,,,,,,p,0,2.0801,2.105367661,1,1,8,3,35,3,1,,,,,,,,,,,,,,
,,,,,,,,,,,right.png,,p,left,6152b8943ef5c73934ed350a,2021-10-22_16h04.03.316,arrow_simon_punish,2021.1.2,Win32,59.63029219,,,,,,,,,,,,,,p,1,2.0474,2.232851429,1,1,9,0,36,0,1,,,,,,,,,,,,,,
,,,,,,,,,,,right.png,,p,left,6152b8943ef5c73934ed350a,2021-10-22_16h04.03.316,arrow_simon_punish,2021.1.2,Win32,59.63029219,,,,,,,,,,,,,,p,1,1.5937,2.054195793,0,1,9,1,37,0,1,,,,,,,,,,,,,,
,,,,,,,,,,,left.png,,w,left,6152b8943ef5c73934ed350a,2021-10-22_16h04.03.316,arrow_simon_punish,2021.1.2,Win32,59.63029219,,,,,,,,,,,,,,w,1,1.51,1.903349594,0,1,9,2,38,2,1,,,,,,,,,,,,,,
,,,,,,,,,,,right.png,,p,left,6152b8943ef5c73934ed350a,2021-10-22_16h04.03.316,arrow_simon_punish,2021.1.2,Win32,59.63029219,,,,,,,,,,,,,,w,0,1.4306,1.706271595,1,1,9,3,39,0,1,,,,,,,,,,,,,,
,,,,,,,,,,,right.png,,p,left,6152b8943ef5c73934ed350a,2021-10-22_16h04.03.316,arrow_simon_punish,2021.1.2,Win32,59.63029219,,,,,,,,,,,,,,p,1,1.1884,2.072795683,1,1,10,0,40,0,1,,,,,,,,,,,,,,
,,,,,,,,,,,left.png,,w,left,6152b8943ef5c73934ed350a,2021-10-22_16h04.03.316,arrow_simon_punish,2021.1.2,Win32,59.63029219,,,,,,,,,,,,,,w,1,1.8278,1.94458933,1,1,10,1,41,2,1,,,,,,,,,,,,,,
,,,,,,,,,,,right.png,,p,left,6152b8943ef5c73934ed350a,2021-10-22_16h04.03.316,arrow_simon_punish,2021.1.2,Win32,59.63029219,,,,,,,,,,,,,,p,1,1.8278,2.299430049,1,1,10,2,42,0,1,,,,,,,,,,,,,,
,,,,,,,,,,,left.png,,w,right,6152b8943ef5c73934ed350a,2021-10-22_16h04.03.316,arrow_simon_punish,2021.1.2,Win32,59.63029219,,,,,,,,,,,,,,w,1,1.8453,1.985510384,1,1,10,3,43,3,1,,,,,,,,,,,,,,
,,,,,,,,,,,left.png,,w,left,6152b8943ef5c73934ed350a,2021-10-22_16h04.03.316,arrow_simon_punish,2021.1.2,Win32,59.63029219,,,,,,,,,,,,,,w,1,1.1786,1.641451824,1,1,11,0,44,2,1,,,,,,,,,,,,,,
,,,,,,,,,,,right.png,,p,right,6152b8943ef5c73934ed350a,2021-10-22_16h04.03.316,arrow_simon_punish,2021.1.2,Win32,59.63029219,,,,,,,,,,,,,,p,1,1.2158,1.695176867,1,1,11,1,45,1,1,,,,,,,,,,,,,,
,,,,,,,,,,,left.png,,w,left,6152b8943ef5c73934ed350a,2021-10-22_16h04.03.316,arrow_simon_punish,2021.1.2,Win32,59.63029219,,,,,,,,,,,,,,w,1,1.3961,1.785417284,1,1,11,2,46,2,1,,,,,,,,,,,,,,
,,,,,,,,,,,left.png,,w,right,6152b8943ef5c73934ed350a,2021-10-22_16h04.03.316,arrow_simon_punish,2021.1.2,Win32,59.63029219,,,,,,,,,,,,,,p,0,1.5834,1.765181129,1,1,11,3,47,3,1,,,,,,,,,,,,,,
,,,,,,,,,,,right.png,,p,left,6152b8943ef5c73934ed350a,2021-10-22_16h04.03.316,arrow_simon_punish,2021.1.2,Win32,59.63029219,,,,,,,,,,,,,,p,1,1.6168,2.066250629,1,1,12,0,48,0,1,,,,,,,,,,,,,,
,,,,,,,,,,,left.png,,w,left,6152b8943ef5c73934ed350a,2021-10-22_16h04.03.316,arrow_simon_punish,2021.1.2,Win32,59.63029219,,,,,,,,,,,,,,w,1,1.7784,2.27962804,1,1,12,1,49,2,1,,,,,,,,,,,,,,
,,,,,,,,,,,left.png,,w,right,6152b8943ef5c73934ed350a,2021-10-22_16h04.03.316,arrow_simon_punish,2021.1.2,Win32,59.63029219,,,,,,,,,,,,,,w,1,1.896,2.19603408,1,1,12,2,50,3,1,,,,,,,,,,,,,,
,,,,,,,,,,,left.png,,w,right,6152b8943ef5c73934ed350a,2021-10-22_16h04.03.316,arrow_simon_punish,2021.1.2,Win32,59.63029219,,,,,,,,,,,,,,p,0,1.5422,2.181634135,1,1,12,3,51,3,1,,,,,,,,,,,,,,
,,,,,,,,,,,right.png,,p,left,6152b8943ef5c73934ed350a,2021-10-22_16h04.03.316,arrow_simon_punish,2021.1.2,Win32,59.63029219,,,,,,,,,,,,,,w,0,1.4933,1.948499736,1,1,13,0,52,0,1,,,,,,,,,,,,,,
,,,,,,,,,,,left.png,,w,right,6152b8943ef5c73934ed350a,2021-10-22_16h04.03.316,arrow_simon_punish,2021.1.2,Win32,59.63029219,,,,,,,,,,,,,,p,0,1.1578,1.577348518,1,1,13,1,53,3,1,,,,,,,,,,,,,,
,,,,,,,,,,,left.png,,w,right,6152b8943ef5c73934ed350a,2021-10-22_16h04.03.316,arrow_simon_punish,2021.1.2,Win32,59.63029219,,,,,,,,,,,,,,w,1,2.3821,2.387101501,1,1,13,2,54,3,1,,,,,,,,,,,,,,
,,,,,,,,,,,right.png,,p,right,6152b8943ef5c73934ed350a,2021-10-22_16h04.03.316,arrow_simon_punish,2021.1.2,Win32,59.63029219,,,,,,,,,,,,,,p,1,1.6151,2.201997331,1,1,13,3,55,1,1,,,,,,,,,,,,,,
,,,,,,,,,,,right.png,,p,left,6152b8943ef5c73934ed350a,2021-10-22_16h04.03.316,arrow_simon_punish,2021.1.2,Win32,59.63029219,,,,,,,,,,,,,,p,1,1.9438,1.721832461,1,1,14,0,56,0,1,,,,,,,,,,,,,,
,,,,,,,,,,,right.png,,p,right,6152b8943ef5c73934ed350a,2021-10-22_16h04.03.316,arrow_simon_punish,2021.1.2,Win32,59.63029219,,,,,,,,,,,,,,p,1,2.0107,2.276616657,1,1,14,1,57,1,1,,,,,,,,,,,,,,
,,,,,,,,,,,right.png,,p,left,6152b8943ef5c73934ed350a,2021-10-22_16h04.03.316,arrow_simon_punish,2021.1.2,Win32,59.63029219,,,,,,,,,,,,,,w,0,1.6586,2.213022185,1,1,14,2,58,0,1,,,,,,,,,,,,,,
,,,,,,,,,,,left.png,,w,left,6152b8943ef5c73934ed350a,2021-10-22_16h04.03.316,arrow_simon_punish,2021.1.2,Win32,59.63029219,,,,,,,,,,,,,,w,1,1.6587,1.557158839,1,1,14,3,59,2,1,,,,,,,,,,,,,,
,,,,,,,,,,,,,,,6152b8943ef5c73934ed350a,2021-10-22_16h04.03.316,arrow_simon_punish,2021.1.2,Win32,59.63029219,,,,,,,,,,,,,,,,,,,,,,,,,space,23.0337,4,1,0,2,0,1,1,,,,,
,,,,,,,,,,,right.png,,p,right,6152b8943ef5c73934ed350a,2021-10-22_16h04.03.316,arrow_simon_punish,2021.1.2,Win32,59.63029219,,,,,,,,,,,,,,p,1,1.728,2.256678151,1,5,0,0,0,1,1,,,,,,,,,,,,,,
,,,,,,,,,,,right.png,,p,left,6152b8943ef5c73934ed350a,2021-10-22_16h04.03.316,arrow_simon_punish,2021.1.2,Win32,59.63029219,,,,,,,,,,,,,,p,1,1.5771,1.700239779,0,5,0,1,1,0,1,,,,,,,,,,,,,,
,,,,,,,,,,,right.png,,p,right,6152b8943ef5c73934ed350a,2021-10-22_16h04.03.316,arrow_simon_punish,2021.1.2,Win32,59.63029219,,,,,,,,,,,,,,p,1,1.7258,2.142054452,1,5,0,2,2,1,1,,,,,,,,,,,,,,
,,,,,,,,,,,right.png,,p,left,6152b8943ef5c73934ed350a,2021-10-22_16h04.03.316,arrow_simon_punish,2021.1.2,Win32,59.63029219,,,,,,,,,,,,,,w,0,1.4287,1.757994379,1,5,0,3,3,0,1,,,,,,,,,,,,,,
,,,,,,,,,,,left.png,,w,right,6152b8943ef5c73934ed350a,2021-10-22_16h04.03.316,arrow_simon_punish,2021.1.2,Win32,59.63029219,,,,,,,,,,,,,,p,0,0.9816,1.604938126,1,5,1,0,4,3,1,,,,,,,,,,,,,,
,,,,,,,,,,,right.png,,p,right,6152b8943ef5c73934ed350a,2021-10-22_16h04.03.316,arrow_simon_punish,2021.1.2,Win32,59.63029219,,,,,,,,,,,,,,w,0,1.0572,1.651563958,1,5,1,1,5,1,1,,,,,,,,,,,,,,
,,,,,,,,,,,right.png,,p,right,6152b8943ef5c73934ed350a,2021-10-22_16h04.03.316,arrow_simon_punish,2021.1.2,Win32,59.63029219,,,,,,,,,,,,,,p,1,1.6778,2.226824717,1,5,1,2,6,1,1,,,,,,,,,,,,,,
,,,,,,,,,,,left.png,,w,left,6152b8943ef5c73934ed350a,2021-10-22_16h04.03.316,arrow_simon_punish,2021.1.2,Win32,59.63029219,,,,,,,,,,,,,,w,1,1.6253,2.369940648,1,5,1,3,7,2,1,,,,,,,,,,,,,,
,,,,,,,,,,,left.png,,w,right,6152b8943ef5c73934ed350a,2021-10-22_16h04.03.316,arrow_simon_punish,2021.1.2,Win32,59.63029219,,,,,,,,,,,,,,p,0,1.4298,1.800004964,1,5,2,0,8,3,1,,,,,,,,,,,,,,
,,,,,,,,,,,right.png,,p,right,6152b8943ef5c73934ed350a,2021-10-22_16h04.03.316,arrow_simon_punish,2021.1.2,Win32,59.63029219,,,,,,,,,,,,,,p,1,1.4486,1.869816233,0,5,2,1,9,1,1,,,,,,,,,,,,,,
,,,,,,,,,,,left.png,,w,right,6152b8943ef5c73934ed350a,2021-10-22_16h04.03.316,arrow_simon_punish,2021.1.2,Win32,59.63029219,,,,,,,,,,,,,,w,1,1.292,1.584629669,1,5,2,2,10,3,1,,,,,,,,,,,,,,
,,,,,,,,,,,right.png,,p,right,6152b8943ef5c73934ed350a,2021-10-22_16h04.03.316,arrow_simon_punish,2021.1.2,Win32,59.63029219,,,,,,,,,,,,,,p,1,1.1772,1.617026797,1,5,2,3,11,1,1,,,,,,,,,,,,,,
,,,,,,,,,,,right.png,,p,left,6152b8943ef5c73934ed350a,2021-10-22_16h04.03.316,arrow_simon_punish,2021.1.2,Win32,59.63029219,,,,,,,,,,,,,,w,0,1.5602,2.205168104,1,5,3,0,12,0,1,,,,,,,,,,,,,,
,,,,,,,,,,,right.png,,p,left,6152b8943ef5c73934ed350a,2021-10-22_16h04.03.316,arrow_simon_punish,2021.1.2,Win32,59.63029219,,,,,,,,,,,,,,w,0,1.6609,2.114663201,1,5,3,1,13,0,1,,,,,,,,,,,,,,
,,,,,,,,,,,right.png,,p,right,6152b8943ef5c73934ed350a,2021-10-22_16h04.03.316,arrow_simon_punish,2021.1.2,Win32,59.63029219,,,,,,,,,,,,,,p,1,2.1115,2.429116547,1,5,3,2,14,1,1,,,,,,,,,,,,,,
,,,,,,,,,,,left.png,,w,left,6152b8943ef5c73934ed350a,2021-10-22_16h04.03.316,arrow_simon_punish,2021.1.2,Win32,59.63029219,,,,,,,,,,,,,,w,1,1.3065,1.827424828,1,5,3,3,15,2,1,,,,,,,,,,,,,,
,,,,,,,,,,,left.png,,w,right,6152b8943ef5c73934ed350a,2021-10-22_16h04.03.316,arrow_simon_punish,2021.1.2,Win32,59.63029219,,,,,,,,,,,,,,w,1,1.7634,1.695474618,1,5,4,0,16,3,1,,,,,,,,,,,,,,
,,,,,,,,,,,right.png,,p,right,6152b8943ef5c73934ed350a,2021-10-22_16h04.03.316,arrow_simon_punish,2021.1.2,Win32,59.63029219,,,,,,,,,,,,,,p,1,1.6275,2.329215502,1,5,4,1,17,1,1,,,,,,,,,,,,,,
,,,,,,,,,,,right.png,,p,right,6152b8943ef5c73934ed350a,2021-10-22_16h04.03.316,arrow_simon_punish,2021.1.2,Win32,59.63029219,,,,,,,,,,,,,,p,1,1.686,2.019858477,1,5,4,2,18,1,1,,,,,,,,,,,,,,
,,,,,,,,,,,right.png,,p,left,6152b8943ef5c73934ed350a,2021-10-22_16h04.03.316,arrow_simon_punish,2021.1.2,Win32,59.63029219,,,,,,,,,,,,,,p,1,1.2898,1.569543454,1,5,4,3,19,0,1,,,,,,,,,,,,,,
,,,,,,,,,,,left.png,,w,right,6152b8943ef5c73934ed350a,2021-10-22_16h04.03.316,arrow_simon_punish,2021.1.2,Win32,59.63029219,,,,,,,,,,,,,,w,1,1.6988,2.181649623,1,5,5,0,20,3,1,,,,,,,,,,,,,,
,,,,,,,,,,,left.png,,w,right,6152b8943ef5c73934ed350a,2021-10-22_16h04.03.316,arrow_simon_punish,2021.1.2,Win32,59.63029219,,,,,,,,,,,,,,p,0,1.9794,2.22342399,1,5,5,1,21,3,1,,,,,,,,,,,,,,
,,,,,,,,,,,right.png,,p,left,6152b8943ef5c73934ed350a,2021-10-22_16h04.03.316,arrow_simon_punish,2021.1.2,Win32,59.63029219,,,,,,,,,,,,,,p,1,1.6954,1.631779734,1,5,5,2,22,0,1,,,,,,,,,,,,,,
,,,,,,,,,,,right.png,,p,left,6152b8943ef5c73934ed350a,2021-10-22_16h04.03.316,arrow_simon_punish,2021.1.2,Win32,59.63029219,,,,,,,,,,,,,,p,1,1.2899,1.71215921,1,5,5,3,23,0,1,,,,,,,,,,,,,,
,,,,,,,,,,,left.png,,w,right,6152b8943ef5c73934ed350a,2021-10-22_16h04.03.316,arrow_simon_punish,2021.1.2,Win32,59.63029219,,,,,,,,,,,,,,w,1,1.5676,1.796012731,0,5,6,0,24,3,1,,,,,,,,,,,,,,
,,,,,,,,,,,left.png,,w,left,6152b8943ef5c73934ed350a,2021-10-22_16h04.03.316,arrow_simon_punish,2021.1.2,Win32,59.63029219,,,,,,,,,,,,,,w,1,1.3464,1.599916274,1,5,6,1,25,2,1,,,,,,,,,,,,,,
,,,,,,,,,,,right.png,,p,right,6152b8943ef5c73934ed350a,2021-10-22_16h04.03.316,arrow_simon_punish,2021.1.2,Win32,59.63029219,,,,,,,,,,,,,,p,1,1.9957,2.439479935,1,5,6,2,26,1,1,,,,,,,,,,,,,,
,,,,,,,,,,,left.png,,w,left,6152b8943ef5c73934ed350a,2021-10-22_16h04.03.316,arrow_simon_punish,2021.1.2,Win32,59.63029219,,,,,,,,,,,,,,p,0,1.5939,1.627516104,1,5,6,3,27,2,1,,,,,,,,,,,,,,
,,,,,,,,,,,left.png,,w,right,6152b8943ef5c73934ed350a,2021-10-22_16h04.03.316,arrow_simon_punish,2021.1.2,Win32,59.63029219,,,,,,,,,,,,,,p,0,1.8171,2.016770853,1,5,7,0,28,3,1,,,,,,,,,,,,,,
,,,,,,,,,,,right.png,,p,left,6152b8943ef5c73934ed350a,2021-10-22_16h04.03.316,arrow_simon_punish,2021.1.2,Win32,59.63029219,,,,,,,,,,,,,,p,1,1.5317,1.621169224,0,5,7,1,29,0,1,,,,,,,,,,,,,,
,,,,,,,,,,,left.png,,w,left,6152b8943ef5c73934ed350a,2021-10-22_16h04.03.316,arrow_simon_punish,2021.1.2,Win32,59.63029219,,,,,,,,,,,,,,w,1,1.7106,2.363602709,1,5,7,2,30,2,1,,,,,,,,,,,,,,
,,,,,,,,,,,right.png,,p,right,6152b8943ef5c73934ed350a,2021-10-22_16h04.03.316,arrow_simon_punish,2021.1.2,Win32,59.63029219,,,,,,,,,,,,,,p,1,1.8926,2.431035505,1,5,7,3,31,1,1,,,,,,,,,,,,,,
,,,,,,,,,,,left.png,,w,left,6152b8943ef5c73934ed350a,2021-10-22_16h04.03.316,arrow_simon_punish,2021.1.2,Win32,59.63029219,,,,,,,,,,,,,,w,1,1.2507,1.759771282,1,5,8,0,32,2,1,,,,,,,,,,,,,,
,,,,,,,,,,,left.png,,w,left,6152b8943ef5c73934ed350a,2021-10-22_16h04.03.316,arrow_simon_punish,2021.1.2,Win32,59.63029219,,,,,,,,,,,,,,w,1,1.8379,2.318840463,1,5,8,1,33,2,1,,,,,,,,,,,,,,
,,,,,,,,,,,left.png,,w,right,6152b8943ef5c73934ed350a,2021-10-22_16h04.03.316,arrow_simon_punish,2021.1.2,Win32,59.63029219,,,,,,,,,,,,,,w,1,1.8432,1.846358823,1,5,8,2,34,3,1,,,,,,,,,,,,,,
,,,,,,,,,,,left.png,,w,left,6152b8943ef5c73934ed350a,2021-10-22_16h04.03.316,arrow_simon_punish,2021.1.2,Win32,59.63029219,,,,,,,,,,,,,,p,0,0.1377,2.453641697,1,5,8,3,35,2,1,,,,,,,,,,,,,,
,,,,,,,,,,,left.png,,w,left,6152b8943ef5c73934ed350a,2021-10-22_16h04.03.316,arrow_simon_punish,2021.1.2,Win32,59.63029219,,,,,,,,,,,,,,w,1,1.6333,2.152963186,1,5,9,0,36,2,1,,,,,,,,,,,,,,
,,,,,,,,,,,left.png,,w,left,6152b8943ef5c73934ed350a,2021-10-22_16h04.03.316,arrow_simon_punish,2021.1.2,Win32,59.63029219,,,,,,,,,,,,,,w,1,0.5766,1.984760336,1,5,9,1,37,2,1,,,,,,,,,,,,,,
,,,,,,,,,,,right.png,,p,left,6152b8943ef5c73934ed350a,2021-10-22_16h04.03.316,arrow_simon_punish,2021.1.2,Win32,59.63029219,,,,,,,,,,,,,,p,1,0.6881,2.338720749,1,5,9,2,38,0,1,,,,,,,,,,,,,,
,,,,,,,,,,,left.png,,w,right,6152b8943ef5c73934ed350a,2021-10-22_16h04.03.316,arrow_simon_punish,2021.1.2,Win32,59.63029219,,,,,,,,,,,,,,p,0,1.3489,1.954835223,1,5,9,3,39,3,1,,,,,,,,,,,,,,
,,,,,,,,,,,left.png,,w,right,6152b8943ef5c73934ed350a,2021-10-22_16h04.03.316,arrow_simon_punish,2021.1.2,Win32,59.63029219,,,,,,,,,,,,,,w,1,1.9795,2.178286656,1,5,10,0,40,3,1,,,,,,,,,,,,,,
,,,,,,,,,,,right.png,,p,right,6152b8943ef5c73934ed350a,2021-10-22_16h04.03.316,arrow_simon_punish,2021.1.2,Win32,59.63029219,,,,,,,,,,,,,,p,1,1.4929,1.929019942,0,5,10,1,41,1,1,,,,,,,,,,,,,,
,,,,,,,,,,,right.png,,p,left,6152b8943ef5c73934ed350a,2021-10-22_16h04.03.316,arrow_simon_punish,2021.1.2,Win32,59.63029219,,,,,,,,,,,,,,w,0,1.4743,2.036917386,1,5,10,2,42,0,1,,,,,,,,,,,,,,
,,,,,,,,,,,left.png,,w,right,6152b8943ef5c73934ed350a,2021-10-22_16h04.03.316,arrow_simon_punish,2021.1.2,Win32,59.63029219,,,,,,,,,,,,,,w,1,2.1402,2.299702152,1,5,10,3,43,3,1,,,,,,,,,,,,,,
,,,,,,,,,,,left.png,,w,left,6152b8943ef5c73934ed350a,2021-10-22_16h04.03.316,arrow_simon_punish,2021.1.2,Win32,59.63029219,,,,,,,,,,,,,,w,1,1.2918,1.626974476,1,5,11,0,44,2,1,,,,,,,,,,,,,,
,,,,,,,,,,,left.png,,w,right,6152b8943ef5c73934ed350a,2021-10-22_16h04.03.316,arrow_simon_punish,2021.1.2,Win32,59.63029219,,,,,,,,,,,,,,p,0,1.2587,1.502316835,1,5,11,1,45,3,1,,,,,,,,,,,,,,
,,,,,,,,,,,left.png,,w,left,6152b8943ef5c73934ed350a,2021-10-22_16h04.03.316,arrow_simon_punish,2021.1.2,Win32,59.63029219,,,,,,,,,,,,,,w,1,2.0967,2.471427373,1,5,11,2,46,2,1,,,,,,,,,,,,,,
,,,,,,,,,,,right.png,,p,right,6152b8943ef5c73934ed350a,2021-10-22_16h04.03.316,arrow_simon_punish,2021.1.2,Win32,59.63029219,,,,,,,,,,,,,,p,1,1.5937,1.548999576,0,5,11,3,47,1,1,,,,,,,,,,,,,,
,,,,,,,,,,,right.png,,p,left,6152b8943ef5c73934ed350a,2021-10-22_16h04.03.316,arrow_simon_punish,2021.1.2,Win32,59.63029219,,,,,,,,,,,,,,p,1,1.9622,2.310193156,1,5,12,0,48,0,1,,,,,,,,,,,,,,
,,,,,,,,,,,right.png,,p,left,6152b8943ef5c73934ed350a,2021-10-22_16h04.03.316,arrow_simon_punish,2021.1.2,Win32,59.63029219,,,,,,,,,,,,,,p,1,1.1243,1.579890301,1,5,12,1,49,0,1,,,,,,,,,,,,,,
,,,,,,,,,,,left.png,,w,left,6152b8943ef5c73934ed350a,2021-10-22_16h04.03.316,arrow_simon_punish,2021.1.2,Win32,59.63029219,,,,,,,,,,,,,,w,1,1.5939,2.166209969,0,5,12,2,50,2,1,,,,,,,,,,,,,,
,,,,,,,,,,,right.png,,p,right,6152b8943ef5c73934ed350a,2021-10-22_16h04.03.316,arrow_simon_punish,2021.1.2,Win32,59.63029219,,,,,,,,,,,,,,p,1,1.7964,2.364107596,1,5,12,3,51,1,1,,,,,,,,,,,,,,
,,,,,,,,,,,right.png,,p,left,6152b8943ef5c73934ed350a,2021-10-22_16h04.03.316,arrow_simon_punish,2021.1.2,Win32,59.63029219,,,,,,,,,,,,,,p,1,1.5648,1.563084631,0,5,13,0,52,0,1,,,,,,,,,,,,,,
,,,,,,,,,,,right.png,,p,right,6152b8943ef5c73934ed350a,2021-10-22_16h04.03.316,arrow_simon_punish,2021.1.2,Win32,59.63029219,,,,,,,,,,,,,,w,0,2.5162,1.996526279,1,5,13,1,53,1,1,,,,,,,,,,,,,,
,,,,,,,,,,,right.png,,p,left,6152b8943ef5c73934ed350a,2021-10-22_16h04.03.316,arrow_simon_punish,2021.1.2,Win32,59.63029219,,,,,,,,,,,,,,w,0,0.269,1.567886135,1,5,13,2,54,0,1,,,,,,,,,,,,,,
,,,,,,,,,,,left.png,,w,left,6152b8943ef5c73934ed350a,2021-10-22_16h04.03.316,arrow_simon_punish,2021.1.2,Win32,59.63029219,,,,,,,,,,,,,,w,1,1.9627,2.373346569,1,5,13,3,55,2,1,,,,,,,,,,,,,,
,,,,,,,,,,,left.png,,w,left,6152b8943ef5c73934ed350a,2021-10-22_16h04.03.316,arrow_simon_punish,2021.1.2,Win32,59.63029219,,,,,,,,,,,,,,w,1,1.7614,2.292932718,1,5,14,0,56,2,1,,,,,,,,,,,,,,
,,,,,,,,,,,left.png,,w,right,6152b8943ef5c73934ed350a,2021-10-22_16h04.03.316,arrow_simon_punish,2021.1.2,Win32,59.63029219,,,,,,,,,,,,,,w,1,1.6609,1.615719196,1,5,14,1,57,3,1,,,,,,,,,,,,,,
,,,,,,,,,,,left.png,,w,right,6152b8943ef5c73934ed350a,2021-10-22_16h04.03.316,arrow_simon_punish,2021.1.2,Win32,59.63029219,,,,,,,,,,,,,,p,0,0.1927,1.591893784,1,5,14,2,58,3,1,,,,,,,,,,,,,,
,,,,,,,,,,,right.png,,p,left,6152b8943ef5c73934ed350a,2021-10-22_16h04.03.316,arrow_simon_punish,2021.1.2,Win32,59.63029219,,,,,,,,,,,,,,p,1,0.7217,2.361977601,1,5,14,3,59,0,1,,,,,,,,,,,,,,
,,,,,,,,,,,,,,,6152b8943ef5c73934ed350a,2021-10-22_16h04.03.316,arrow_simon_punish,2021.1.2,Win32,59.63029219,,,,,,,,,,,,,,,,,,,,,,,,,space,22.8391,5,1,1,3,1,1,5,,,,,
,,,,,,,,,,,left.png,,w,left,6152b8943ef5c73934ed350a,2021-10-22_16h04.03.316,arrow_simon_punish,2021.1.2,Win32,59.63029219,,,,,,,,,,,,,,w,1,1.1785,1.576995707,1,1,0,0,0,2,1,,,,,,,,,,,,,,
,,,,,,,,,,,left.png,,w,right,6152b8943ef5c73934ed350a,2021-10-22_16h04.03.316,arrow_simon_punish,2021.1.2,Win32,59.63029219,,,,,,,,,,,,,,p,0,1.2582,1.736268259,1,1,0,1,1,3,1,,,,,,,,,,,,,,
,,,,,,,,,,,right.png,,p,right,6152b8943ef5c73934ed350a,2021-10-22_16h04.03.316,arrow_simon_punish,2021.1.2,Win32,59.63029219,,,,,,,,,,,,,,p,1,1.4597,1.810969127,0,1,0,2,2,1,1,,,,,,,,,,,,,,
,,,,,,,,,,,left.png,,w,left,6152b8943ef5c73934ed350a,2021-10-22_16h04.03.316,arrow_simon_punish,2021.1.2,Win32,59.63029219,,,,,,,,,,,,,,w,1,1.2279,1.839566965,1,1,0,3,3,2,1,,,,,,,,,,,,,,
,,,,,,,,,,,right.png,,p,left,6152b8943ef5c73934ed350a,2021-10-22_16h04.03.316,arrow_simon_punish,2021.1.2,Win32,59.63029219,,,,,,,,,,,,,,p,1,1.9285,2.412725979,1,1,1,0,4,0,1,,,,,,,,,,,,,,
,,,,,,,,,,,right.png,,p,left,6152b8943ef5c73934ed350a,2021-10-22_16h04.03.316,arrow_simon_punish,2021.1.2,Win32,59.63029219,,,,,,,,,,,,,,p,1,1.2486,1.675728005,1,1,1,1,5,0,1,,,,,,,,,,,,,,
,,,,,,,,,,,right.png,,p,right,6152b8943ef5c73934ed350a,2021-10-22_16h04.03.316,arrow_simon_punish,2021.1.2,Win32,59.63029219,,,,,,,,,,,,,,p,1,1.9461,2.315880977,1,1,1,2,6,1,1,,,,,,,,,,,,,,
,,,,,,,,,,,right.png,,p,left,6152b8943ef5c73934ed350a,2021-10-22_16h04.03.316,arrow_simon_punish,2021.1.2,Win32,59.63029219,,,,,,,,,,,,,,w,0,1.8289,2.435377702,1,1,1,3,7,0,1,,,,,,,,,,,,,,
,,,,,,,,,,,right.png,,p,left,6152b8943ef5c73934ed350a,2021-10-22_16h04.03.316,arrow_simon_punish,2021.1.2,Win32,59.63029219,,,,,,,,,,,,,,p,1,1.8052,1.708725639,1,1,2,0,8,0,1,,,,,,,,,,,,,,
,,,,,,,,,,,right.png,,p,left,6152b8943ef5c73934ed350a,2021-10-22_16h04.03.316,arrow_simon_punish,2021.1.2,Win32,59.63029219,,,,,,,,,,,,,,p,1,1.7781,2.120242985,1,1,2,1,9,0,1,,,,,,,,,,,,,,
,,,,,,,,,,,right.png,,p,left,6152b8943ef5c73934ed350a,2021-10-22_16h04.03.316,arrow_simon_punish,2021.1.2,Win32,59.63029219,,,,,,,,,,,,,,w,0,1.6715,1.906992791,1,1,2,2,10,0,1,,,,,,,,,,,,,,
,,,,,,,,,,,left.png,,w,left,6152b8943ef5c73934ed350a,2021-10-22_16h04.03.316,arrow_simon_punish,2021.1.2,Win32,59.63029219,,,,,,,,,,,,,,w,1,1.8614,2.134323895,1,1,2,3,11,2,1,,,,,,,,,,,,,,
,,,,,,,,,,,left.png,,w,right,6152b8943ef5c73934ed350a,2021-10-22_16h04.03.316,arrow_simon_punish,2021.1.2,Win32,59.63029219,,,,,,,,,,,,,,w,1,1.6823,1.735330555,1,1,3,0,12,3,1,,,,,,,,,,,,,,
,,,,,,,,,,,right.png,,p,right,6152b8943ef5c73934ed350a,2021-10-22_16h04.03.316,arrow_simon_punish,2021.1.2,Win32,59.63029219,,,,,,,,,,,,,,p,1,1.6181,2.044782716,1,1,3,1,13,1,1,,,,,,,,,,,,,,
,,,,,,,,,,,right.png,,p,left,6152b8943ef5c73934ed350a,2021-10-22_16h04.03.316,arrow_simon_punish,2021.1.2,Win32,59.63029219,,,,,,,,,,,,,,w,0,0.7079,1.572078356,1,1,3,2,14,0,1,,,,,,,,,,,,,,
,,,,,,,,,,,right.png,,p,right,6152b8943ef5c73934ed350a,2021-10-22_16h04.03.316,arrow_simon_punish,2021.1.2,Win32,59.63029219,,,,,,,,,,,,,,p,1,1.3823,1.805735631,1,1,3,3,15,1,1,,,,,,,,,,,,,,
,,,,,,,,,,,left.png,,w,right,6152b8943ef5c73934ed350a,2021-10-22_16h04.03.316,arrow_simon_punish,2021.1.2,Win32,59.63029219,,,,,,,,,,,,,,p,0,1.1074,1.687704601,1,1,4,0,16,3,1,,,,,,,,,,,,,,
,,,,,,,,,,,left.png,,w,right,6152b8943ef5c73934ed350a,2021-10-22_16h04.03.316,arrow_simon_punish,2021.1.2,Win32,59.63029219,,,,,,,,,,,,,,w,1,1.699,1.61408989,1,1,4,1,17,3,1,,,,,,,,,,,,,,
,,,,,,,,,,,right.png,,p,left,6152b8943ef5c73934ed350a,2021-10-22_16h04.03.316,arrow_simon_punish,2021.1.2,Win32,59.63029219,,,,,,,,,,,,,,p,1,2.2721,1.839638727,1,1,4,2,18,0,1,,,,,,,,,,,,,,
,,,,,,,,,,,left.png,,w,left,6152b8943ef5c73934ed350a,2021-10-22_16h04.03.316,arrow_simon_punish,2021.1.2,Win32,59.63029219,,,,,,,,,,,,,,w,1,1.5485,1.740814663,0,1,4,3,19,2,1,,,,,,,,,,,,,,
,,,,,,,,,,,right.png,,p,right,6152b8943ef5c73934ed350a,2021-10-22_16h04.03.316,arrow_simon_punish,2021.1.2,Win32,59.63029219,,,,,,,,,,,,,,p,1,1.0406,2.387722971,1,1,5,0,20,1,1,,,,,,,,,,,,,,
,,,,,,,,,,,right.png,,p,left,6152b8943ef5c73934ed350a,2021-10-22_16h04.03.316,arrow_simon_punish,2021.1.2,Win32,59.63029219,,,,,,,,,,,,,,p,1,1.51,1.741823148,0,1,5,1,21,0,1,,,,,,,,,,,,,,
,,,,,,,,,,,left.png,,w,left,6152b8943ef5c73934ed350a,2021-10-22_16h04.03.316,arrow_simon_punish,2021.1.2,Win32,59.63029219,,,,,,,,,,,,,,w,1,1.8264,2.147714786,1,1,5,2,22,2,1,,,,,,,,,,,,,,
,,,,,,,,,,,left.png,,w,right,6152b8943ef5c73934ed350a,2021-10-22_16h04.03.316,arrow_simon_punish,2021.1.2,Win32,59.63029219,,,,,,,,,,,,,,p,0,1.8288,2.438824851,1,1,5,3,23,3,1,,,,,,,,,,,,,,
,,,,,,,,,,,right.png,,p,left,6152b8943ef5c73934ed350a,2021-10-22_16h04.03.316,arrow_simon_punish,2021.1.2,Win32,59.63029219,,,,,,,,,,,,,,w,0,1.5578,1.92629899,1,1,6,0,24,0,1,,,,,,,,,,,,,,
,,,,,,,,,,,left.png,,w,left,6152b8943ef5c73934ed350a,2021-10-22_16h04.03.316,arrow_simon_punish,2021.1.2,Win32,59.63029219,,,,,,,,,,,,,,p,0,1.0069,1.884193469,1,1,6,1,25,2,1,,,,,,,,,,,,,,
,,,,,,,,,,,left.png,,w,right,6152b8943ef5c73934ed350a,2021-10-22_16h04.03.316,arrow_simon_punish,2021.1.2,Win32,59.63029219,,,,,,,,,,,,,,p,0,5.0194,2.224716655,1,1,6,2,26,3,1,,,,,,,,,,,,,,
,,,,,,,,,,,right.png,,p,right,6152b8943ef5c73934ed350a,2021-10-22_16h04.03.316,arrow_simon_punish,2021.1.2,Win32,59.63029219,,,,,,,,,,,,,,p,1,1.5269,1.88461697,0,1,6,3,27,1,1,,,,,,,,,,,,,,
,,,,,,,,,,,right.png,,p,right,6152b8943ef5c73934ed350a,2021-10-22_16h04.03.316,arrow_simon_punish,2021.1.2,Win32,59.63029219,,,,,,,,,,,,,,p,1,1.9435,2.394142877,1,1,7,0,28,1,1,,,,,,,,,,,,,,
,,,,,,,,,,,right.png,,p,left,6152b8943ef5c73934ed350a,2021-10-22_16h04.03.316,arrow_simon_punish,2021.1.2,Win32,59.63029219,,,,,,,,,,,,,,w,0,1.7781,2.415402184,1,1,7,1,29,0,1,,,,,,,,,,,,,,
,,,,,,,,,,,left.png,,w,right,6152b8943ef5c73934ed350a,2021-10-22_16h04.03.316,arrow_simon_punish,2021.1.2,Win32,59.63029219,,,,,,,,,,,,,,w,1,1.3759,1.630816141,1,1,7,2,30,3,1,,,,,,,,,,,,,,
,,,,,,,,,,,right.png,,p,right,6152b8943ef5c73934ed350a,2021-10-22_16h04.03.316,arrow_simon_punish,2021.1.2,Win32,59.63029219,,,,,,,,,,,,,,p,1,1.4619,2.145975147,0,1,7,3,31,1,1,,,,,,,,,,,,,,
,,,,,,,,,,,right.png,,p,left,6152b8943ef5c73934ed350a,2021-10-22_16h04.03.316,arrow_simon_punish,2021.1.2,Win32,59.63029219,,,,,,,,,,,,,,w,0,1.5825,2.318760336,1,1,8,0,32,0,1,,,,,,,,,,,,,,
,,,,,,,,,,,left.png,,w,left,6152b8943ef5c73934ed350a,2021-10-22_16h04.03.316,arrow_simon_punish,2021.1.2,Win32,59.63029219,,,,,,,,,,,,,,p,0,2.2151,2.408422724,1,1,8,1,33,2,1,,,,,,,,,,,,,,
,,,,,,,,,,,left.png,,w,right,6152b8943ef5c73934ed350a,2021-10-22_16h04.03.316,arrow_simon_punish,2021.1.2,Win32,59.63029219,,,,,,,,,,,,,,p,0,1.7009,2.169758442,1,1,8,2,34,3,1,,,,,,,,,,,,,,
,,,,,,,,,,,left.png,,w,right,6152b8943ef5c73934ed350a,2021-10-22_16h04.03.316,arrow_simon_punish,2021.1.2,Win32,59.63029219,,,,,,,,,,,,,,p,0,1.7781,2.205230956,1,1,8,3,35,3,1,,,,,,,,,,,,,,
,,,,,,,,,,,left.png,,w,left,6152b8943ef5c73934ed350a,2021-10-22_16h04.03.316,arrow_simon_punish,2021.1.2,Win32,59.63029219,,,,,,,,,,,,,,w,1,2.0968,2.366773993,1,1,9,0,36,2,1,,,,,,,,,,,,,,
,,,,,,,,,,,right.png,,p,left,6152b8943ef5c73934ed350a,2021-10-22_16h04.03.316,arrow_simon_punish,2021.1.2,Win32,59.63029219,,,,,,,,,,,,,,p,1,1.6264,1.734172131,1,1,9,1,37,0,1,,,,,,,,,,,,,,
,,,,,,,,,,,left.png,,w,right,6152b8943ef5c73934ed350a,2021-10-22_16h04.03.316,arrow_simon_punish,2021.1.2,Win32,59.63029219,,,,,,,,,,,,,,p,0,1.5779,2.005887684,1,1,9,2,38,3,1,,,,,,,,,,,,,,
,,,,,,,,,,,left.png,,w,right,6152b8943ef5c73934ed350a,2021-10-22_16h04.03.316,arrow_simon_punish,2021.1.2,Win32,59.63029219,,,,,,,,,,,,,,w,1,1.7614,1.841849285,1,1,9,3,39,3,1,,,,,,,,,,,,,,
,,,,,,,,,,,right.png,,p,right,6152b8943ef5c73934ed350a,2021-10-22_16h04.03.316,arrow_simon_punish,2021.1.2,Win32,59.63029219,,,,,,,,,,,,,,p,1,1.7279,1.8462639,1,1,10,0,40,1,1,,,,,,,,,,,,,,
,,,,,,,,,,,left.png,,w,right,6152b8943ef5c73934ed350a,2021-10-22_16h04.03.316,arrow_simon_punish,2021.1.2,Win32,59.63029219,,,,,,,,,,,,,,w,1,1.9292,1.940792155,1,1,10,1,41,3,1,,,,,,,,,,,,,,
,,,,,,,,,,,right.png,,p,right,6152b8943ef5c73934ed350a,2021-10-22_16h04.03.316,arrow_simon_punish,2021.1.2,Win32,59.63029219,,,,,,,,,,,,,,p,1,1.862,2.342201434,1,1,10,2,42,1,1,,,,,,,,,,,,,,
,,,,,,,,,,,left.png,,w,left,6152b8943ef5c73934ed350a,2021-10-22_16h04.03.316,arrow_simon_punish,2021.1.2,Win32,59.63029219,,,,,,,,,,,,,,w,1,1.6776,2.138000717,1,1,10,3,43,2,1,,,,,,,,,,,,,,
,,,,,,,,,,,right.png,,p,right,6152b8943ef5c73934ed350a,2021-10-22_16h04.03.316,arrow_simon_punish,2021.1.2,Win32,59.63029219,,,,,,,,,,,,,,p,1,1.4261,1.689481242,0,1,11,0,44,1,1,,,,,,,,,,,,,,
,,,,,,,,,,,left.png,,w,right,6152b8943ef5c73934ed350a,2021-10-22_16h04.03.316,arrow_simon_punish,2021.1.2,Win32,59.63029219,,,,,,,,,,,,,,p,0,1.5267,2.012369376,1,1,11,1,45,3,1,,,,,,,,,,,,,,
,,,,,,,,,,,right.png,,p,right,6152b8943ef5c73934ed350a,2021-10-22_16h04.03.316,arrow_simon_punish,2021.1.2,Win32,59.63029219,,,,,,,,,,,,,,p,1,1.6106,1.832181818,1,1,11,2,46,1,1,,,,,,,,,,,,,,
,,,,,,,,,,,right.png,,p,right,6152b8943ef5c73934ed350a,2021-10-22_16h04.03.316,arrow_simon_punish,2021.1.2,Win32,59.63029219,,,,,,,,,,,,,,p,1,1.7951,1.605404146,1,1,11,3,47,1,1,,,,,,,,,,,,,,
,,,,,,,,,,,left.png,,w,right,6152b8943ef5c73934ed350a,2021-10-22_16h04.03.316,arrow_simon_punish,2021.1.2,Win32,59.63029219,,,,,,,,,,,,,,w,1,2.1138,2.446185646,1,1,12,0,48,3,1,,,,,,,,,,,,,,
,,,,,,,,,,,left.png,,w,left,6152b8943ef5c73934ed350a,2021-10-22_16h04.03.316,arrow_simon_punish,2021.1.2,Win32,59.63029219,,,,,,,,,,,,,,w,1,1.4093,1.702681092,0,1,12,1,49,2,1,,,,,,,,,,,,,,
,,,,,,,,,,,left.png,,w,left,6152b8943ef5c73934ed350a,2021-10-22_16h04.03.316,arrow_simon_punish,2021.1.2,Win32,59.63029219,,,,,,,,,,,,,,w,1,1.594,1.937479701,0,1,12,2,50,2,1,,,,,,,,,,,,,,
,,,,,,,,,,,left.png,,w,left,6152b8943ef5c73934ed350a,2021-10-22_16h04.03.316,arrow_simon_punish,2021.1.2,Win32,59.63029219,,,,,,,,,,,,,,w,1,1.8286,2.34173042,1,1,12,3,51,2,1,,,,,,,,,,,,,,
,,,,,,,,,,,left.png,,w,left,6152b8943ef5c73934ed350a,2021-10-22_16h04.03.316,arrow_simon_punish,2021.1.2,Win32,59.63029219,,,,,,,,,,,,,,w,1,1.9124,2.331205252,1,1,13,0,52,2,1,,,,,,,,,,,,,,
,,,,,,,,,,,left.png,,w,left,6152b8943ef5c73934ed350a,2021-10-22_16h04.03.316,arrow_simon_punish,2021.1.2,Win32,59.63029219,,,,,,,,,,,,,,w,1,1.6106,1.822877687,1,1,13,1,53,2,1,,,,,,,,,,,,,,
,,,,,,,,,,,right.png,,p,left,6152b8943ef5c73934ed350a,2021-10-22_16h04.03.316,arrow_simon_punish,2021.1.2,Win32,59.63029219,,,,,,,,,,,,,,w,0,0.9563,2.435218754,1,1,13,2,54,0,1,,,,,,,,,,,,,,
,,,,,,,,,,,right.png,,p,right,6152b8943ef5c73934ed350a,2021-10-22_16h04.03.316,arrow_simon_punish,2021.1.2,Win32,59.63029219,,,,,,,,,,,,,,p,1,1.577,1.985105203,0,1,13,3,55,1,1,,,,,,,,,,,,,,
,,,,,,,,,,,right.png,,p,left,6152b8943ef5c73934ed350a,2021-10-22_16h04.03.316,arrow_simon_punish,2021.1.2,Win32,59.63029219,,,,,,,,,,,,,,p,1,2.1136,2.28230728,1,1,14,0,56,0,1,,,,,,,,,,,,,,
,,,,,,,,,,,right.png,,p,right,6152b8943ef5c73934ed350a,2021-10-22_16h04.03.316,arrow_simon_punish,2021.1.2,Win32,59.63029219,,,,,,,,,,,,,,p,1,1.8956,1.797756974,1,1,14,1,57,1,1,,,,,,,,,,,,,,
,,,,,,,,,,,left.png,,w,right,6152b8943ef5c73934ed350a,2021-10-22_16h04.03.316,arrow_simon_punish,2021.1.2,Win32,59.63029219,,,,,,,,,,,,,,p,0,1.6441,2.06397855,1,1,14,2,58,3,1,,,,,,,,,,,,,,
,,,,,,,,,,,left.png,,w,left,6152b8943ef5c73934ed350a,2021-10-22_16h04.03.316,arrow_simon_punish,2021.1.2,Win32,59.63029219,,,,,,,,,,,,,,w,1,2.0801,2.46559286,1,1,14,3,59,2,1,,,,,,,,,,,,,,
,,,,,,,,,,,,,,,6152b8943ef5c73934ed350a,2021-10-22_16h04.03.316,arrow_simon_punish,2021.1.2,Win32,59.63029219,,,,,,,,,,,,,,,,,,,,,,,,,space,23.0749,6,2,0,4,0,1,1,,,,,
,,,,,,,,,,,right.png,,p,right,6152b8943ef5c73934ed350a,2021-10-22_16h04.03.316,arrow_simon_punish,2021.1.2,Win32,59.63029219,,,,,,,,,,,,,,p,1,2.0804,2.172249401,1,5,0,0,0,1,1,,,,,,,,,,,,,,
,,,,,,,,,,,left.png,,w,left,6152b8943ef5c73934ed350a,2021-10-22_16h04.03.316,arrow_simon_punish,2021.1.2,Win32,59.63029219,,,,,,,,,,,,,,w,1,1.4595,1.853050134,0,5,0,1,1,2,1,,,,,,,,,,,,,,
,,,,,,,,,,,right.png,,p,left,6152b8943ef5c73934ed350a,2021-10-22_16h04.03.316,arrow_simon_punish,2021.1.2,Win32,59.63029219,,,,,,,,,,,,,,p,1,1.8621,2.188698033,1,5,0,2,2,0,1,,,,,,,,,,,,,,
,,,,,,,,,,,right.png,,p,right,6152b8943ef5c73934ed350a,2021-10-22_16h04.03.316,arrow_simon_punish,2021.1.2,Win32,59.63029219,,,,,,,,,,,,,,p,1,1.5769,1.662864165,0,5,0,3,3,1,1,,,,,,,,,,,,,,
,,,,,,,,,,,right.png,,p,left,6152b8943ef5c73934ed350a,2021-10-22_16h04.03.316,arrow_simon_punish,2021.1.2,Win32,59.63029219,,,,,,,,,,,,,,w,0,1.4428,2.108524985,1,5,1,0,4,0,1,,,,,,,,,,,,,,
,,,,,,,,,,,left.png,,w,left,6152b8943ef5c73934ed350a,2021-10-22_16h04.03.316,arrow_simon_punish,2021.1.2,Win32,59.63029219,,,,,,,,,,,,,,w,1,1.8453,2.20693489,1,5,1,1,5,2,1,,,,,,,,,,,,,,
,,,,,,,,,,,right.png,,p,left,6152b8943ef5c73934ed350a,2021-10-22_16h04.03.316,arrow_simon_punish,2021.1.2,Win32,59.63029219,,,,,,,,,,,,,,w,0,1.5602,1.957157801,1,5,1,2,6,0,1,,,,,,,,,,,,,,
,,,,,,,,,,,left.png,,w,left,6152b8943ef5c73934ed350a,2021-10-22_16h04.03.316,arrow_simon_punish,2021.1.2,Win32,59.63029219,,,,,,,,,,,,,,w,1,1.1241,1.595379436,1,5,1,3,7,2,1,,,,,,,,,,,,,,
,,,,,,,,,,,left.png,,w,right,6152b8943ef5c73934ed350a,2021-10-22_16h04.03.316,arrow_simon_punish,2021.1.2,Win32,59.63029219,,,,,,,,,,,,,,p,0,1.4261,2.034306624,1,5,2,0,8,3,1,,,,,,,,,,,,,,
,,,,,,,,,,,right.png,,p,right,6152b8943ef5c73934ed350a,2021-10-22_16h04.03.316,arrow_simon_punish,2021.1.2,Win32,59.63029219,,,,,,,,,,,,,,p,1,1.2248,1.611804748,1,5,2,1,9,1,1,,,,,,,,,,,,,,
,,,,,,,,,,,left.png,,w,left,6152b8943ef5c73934ed350a,2021-10-22_16h04.03.316,arrow_simon_punish,2021.1.2,Win32,59.63029219,,,,,,,,,,,,,,w,1,1.4428,1.954300698,0,5,2,2,10,2,1,,,,,,,,,,,,,,
,,,,,,,,,,,left.png,,w,right,6152b8943ef5c73934ed350a,2021-10-22_16h04.03.316,arrow_simon_punish,2021.1.2,Win32,59.63029219,,,,,,,,,,,,,,p,0,1.4597,2.078289182,1,5,2,3,11,3,1,,,,,,,,,,,,,,
,,,,,,,,,,,left.png,,w,left,6152b8943ef5c73934ed350a,2021-10-22_16h04.03.316,arrow_simon_punish,2021.1.2,Win32,59.63029219,,,,,,,,,,,,,,w,1,1.795,2.347729667,1,5,3,0,12,2,1,,,,,,,,,,,,,,
,,,,,,,,,,,left.png,,w,right,6152b8943ef5c73934ed350a,2021-10-22_16h04.03.316,arrow_simon_punish,2021.1.2,Win32,59.63029219,,,,,,,,,,,,,,w,1,1.9125,2.385027567,1,5,3,1,13,3,1,,,,,,,,,,,,,,
,,,,,,,,,,,right.png,,p,left,6152b8943ef5c73934ed350a,2021-10-22_16h04.03.316,arrow_simon_punish,2021.1.2,Win32,59.63029219,,,,,,,,,,,,,,p,1,1.3927,1.775148867,1,5,3,2,14,0,1,,,,,,,,,,,,,,
,,,,,,,,,,,left.png,,w,right,6152b8943ef5c73934ed350a,2021-10-22_16h04.03.316,arrow_simon_punish,2021.1.2,Win32,59.63029219,,,,,,,,,,,,,,w,1,1.7782,2.17613149,1,5,3,3,15,3,1,,,,,,,,,,,,,,
,,,,,,,,,,,left.png,,w,right,6152b8943ef5c73934ed350a,2021-10-22_16h04.03.316,arrow_simon_punish,2021.1.2,Win32,59.63029219,,,,,,,,,,,,,,p,0,1.6273,2.238846275,1,5,4,0,16,3,1,,,,,,,,,,,,,,
,,,,,,,,,,,right.png,,p,left,6152b8943ef5c73934ed350a,2021-10-22_16h04.03.316,arrow_simon_punish,2021.1.2,Win32,59.63029219,,,,,,,,,,,,,,w,0,2.08,2.4328883,1,5,4,1,17,0,1,,,,,,,,,,,,,,
,,,,,,,,,,,left.png,,w,left,6152b8943ef5c73934ed350a,2021-10-22_16h04.03.316,arrow_simon_punish,2021.1.2,Win32,59.63029219,,,,,,,,,,,,,,w,1,2.2813,2.472653076,1,5,4,2,18,2,1,,,,,,,,,,,,,,
,,,,,,,,,,,right.png,,p,right,6152b8943ef5c73934ed350a,2021-10-22_16h04.03.316,arrow_simon_punish,2021.1.2,Win32,59.63029219,,,,,,,,,,,,,,p,1,1.8119,1.583671561,1,5,4,3,19,1,1,,,,,,,,,,,,,,
,,,,,,,,,,,right.png,,p,left,6152b8943ef5c73934ed350a,2021-10-22_16h04.03.316,arrow_simon_punish,2021.1.2,Win32,59.63029219,,,,,,,,,,,,,,p,1,1.9125,2.260046664,1,5,5,0,20,0,1,,,,,,,,,,,,,,
,,,,,,,,,,,right.png,,p,left,6152b8943ef5c73934ed350a,2021-10-22_16h04.03.316,arrow_simon_punish,2021.1.2,Win32,59.63029219,,,,,,,,,,,,,,p,1,1.4764,1.881468076,0,5,5,1,21,0,1,,,,,,,,,,,,,,
,,,,,,,,,,,right.png,,p,right,6152b8943ef5c73934ed350a,2021-10-22_16h04.03.316,arrow_simon_punish,2021.1.2,Win32,59.63029219,,,,,,,,,,,,,,p,1,2.0633,2.336433263,1,5,5,2,22,1,1,,,,,,,,,,,,,,
,,,,,,,,,,,left.png,,w,left,6152b8943ef5c73934ed350a,2021-10-22_16h04.03.316,arrow_simon_punish,2021.1.2,Win32,59.63029219,,,,,,,,,,,,,,w,1,4.7801,1.708241023,1,5,5,3,23,2,1,,,,,,,,,,,,,,
,,,,,,,,,,,left.png,,w,left,6152b8943ef5c73934ed350a,2021-10-22_16h04.03.316,arrow_simon_punish,2021.1.2,Win32,59.63029219,,,,,,,,,,,,,,w,1,1.9123,2.230183815,1,5,6,0,24,2,1,,,,,,,,,,,,,,
,,,,,,,,,,,right.png,,p,right,6152b8943ef5c73934ed350a,2021-10-22_16h04.03.316,arrow_simon_punish,2021.1.2,Win32,59.63029219,,,,,,,,,,,,,,p,1,1.795,1.949968775,1,5,6,1,25,1,1,,,,,,,,,,,,,,
,,,,,,,,,,,right.png,,p,right,6152b8943ef5c73934ed350a,2021-10-22_16h04.03.316,arrow_simon_punish,2021.1.2,Win32,59.63029219,,,,,,,,,,,,,,p,1,1.7949,2.306697791,1,5,6,2,26,1,1,,,,,,,,,,,,,,
,,,,,,,,,,,right.png,,p,left,6152b8943ef5c73934ed350a,2021-10-22_16h04.03.316,arrow_simon_punish,2021.1.2,Win32,59.63029219,,,,,,,,,,,,,,p,1,1.7447,1.881343348,1,5,6,3,27,0,1,,,,,,,,,,,,,,
,,,,,,,,,,,right.png,,p,right,6152b8943ef5c73934ed350a,2021-10-22_16h04.03.316,arrow_simon_punish,2021.1.2,Win32,59.63029219,,,,,,,,,,,,,,p,1,3.7736,1.586696786,1,5,7,0,28,1,1,,,,,,,,,,,,,,
,,,,,,,,,,,left.png,,w,left,6152b8943ef5c73934ed350a,2021-10-22_16h04.03.316,arrow_simon_punish,2021.1.2,Win32,59.63029219,,,,,,,,,,,,,,w,1,2.1137,2.331736092,1,5,7,1,29,2,1,,,,,,,,,,,,,,
,,,,,,,,,,,right.png,,p,left,6152b8943ef5c73934ed350a,2021-10-22_16h04.03.316,arrow_simon_punish,2021.1.2,Win32,59.63029219,,,,,,,,,,,,,,p,1,0.9901,1.8596613,1,5,7,2,30,0,1,,,,,,,,,,,,,,
,,,,,,,,,,,left.png,,w,right,6152b8943ef5c73934ed350a,2021-10-22_16h04.03.316,arrow_simon_punish,2021.1.2,Win32,59.63029219,,,,,,,,,,,,,,p,0,1.728,2.352530497,1,5,7,3,31,3,1,,,,,,,,,,,,,,
,,,,,,,,,,,left.png,,w,right,6152b8943ef5c73934ed350a,2021-10-22_16h04.03.316,arrow_simon_punish,2021.1.2,Win32,59.63029219,,,,,,,,,,,,,,p,0,2.0466,2.453838103,1,5,8,0,32,3,1,,,,,,,,,,,,,,
,,,,,,,,,,,left.png,,w,left,6152b8943ef5c73934ed350a,2021-10-22_16h04.03.316,arrow_simon_punish,2021.1.2,Win32,59.63029219,,,,,,,,,,,,,,w,1,1.4428,1.834627562,0,5,8,1,33,2,1,,,,,,,,,,,,,,
,,,,,,,,,,,left.png,,w,right,6152b8943ef5c73934ed350a,2021-10-22_16h04.03.316,arrow_simon_punish,2021.1.2,Win32,59.63029219,,,,,,,,,,,,,,p,0,1.51,2.027653676,1,5,8,2,34,3,1,,,,,,,,,,,,,,
,,,,,,,,,,,left.png,,w,right,6152b8943ef5c73934ed350a,2021-10-22_16h04.03.316,arrow_simon_punish,2021.1.2,Win32,59.63029219,,,,,,,,,,,,,,p,0,1.9964,2.423734544,1,5,8,3,35,3,1,,,,,,,,,,,,,,
,,,,,,,,,,,right.png,,p,right,6152b8943ef5c73934ed350a,2021-10-22_16h04.03.316,arrow_simon_punish,2021.1.2,Win32,59.63029219,,,,,,,,,,,,,,p,1,1.7447,1.635926949,1,5,9,0,36,1,1,,,,,,,,,,,,,,
,,,,,,,,,,,left.png,,w,left,6152b8943ef5c73934ed350a,2021-10-22_16h04.03.316,arrow_simon_punish,2021.1.2,Win32,59.63029219,,,,,,,,,,,,,,w,1,1.7782,2.248039168,1,5,9,1,37,2,1,,,,,,,,,,,,,,
,,,,,,,,,,,left.png,,w,right,6152b8943ef5c73934ed350a,2021-10-22_16h04.03.316,arrow_simon_punish,2021.1.2,Win32,59.63029219,,,,,,,,,,,,,,p,0,2.1641,1.551052728,1,5,9,2,38,3,1,,,,,,,,,,,,,,
,,,,,,,,,,,left.png,,w,right,6152b8943ef5c73934ed350a,2021-10-22_16h04.03.316,arrow_simon_punish,2021.1.2,Win32,59.63029219,,,,,,,,,,,,,,w,1,2.3822,2.402683079,1,5,9,3,39,3,1,,,,,,,,,,,,,,
,,,,,,,,,,,right.png,,p,left,6152b8943ef5c73934ed350a,2021-10-22_16h04.03.316,arrow_simon_punish,2021.1.2,Win32,59.63029219,,,,,,,,,,,,,,w,0,2.9689,1.633533132,1,5,10,0,40,0,1,,,,,,,,,,,,,,
,,,,,,,,,,,right.png,,p,left,6152b8943ef5c73934ed350a,2021-10-22_16h04.03.316,arrow_simon_punish,2021.1.2,Win32,59.63029219,,,,,,,,,,,,,,w,0,1.9459,2.309790155,1,5,10,1,41,0,1,,,,,,,,,,,,,,
,,,,,,,,,,,right.png,,p,right,6152b8943ef5c73934ed350a,2021-10-22_16h04.03.316,arrow_simon_punish,2021.1.2,Win32,59.63029219,,,,,,,,,,,,,,p,1,1.3087,1.795923205,1,5,10,2,42,1,1,,,,,,,,,,,,,,
,,,,,,,,,,,right.png,,p,left,6152b8943ef5c73934ed350a,2021-10-22_16h04.03.316,arrow_simon_punish,2021.1.2,Win32,59.63029219,,,,,,,,,,,,,,w,0,0.9732,1.567526233,1,5,10,3,43,0,1,,,,,,,,,,,,,,
,,,,,,,,,,,left.png,,w,left,6152b8943ef5c73934ed350a,2021-10-22_16h04.03.316,arrow_simon_punish,2021.1.2,Win32,59.63029219,,,,,,,,,,,,,,w,1,1.8621,2.287648973,1,5,11,0,44,2,1,,,,,,,,,,,,,,
,,,,,,,,,,,right.png,,p,left,6152b8943ef5c73934ed350a,2021-10-22_16h04.03.316,arrow_simon_punish,2021.1.2,Win32,59.63029219,,,,,,,,,,,,,,p,1,1.862,1.726799258,1,5,11,1,45,0,1,,,,,,,,,,,,,,
,,,,,,,,,,,left.png,,w,left,6152b8943ef5c73934ed350a,2021-10-22_16h04.03.316,arrow_simon_punish,2021.1.2,Win32,59.63029219,,,,,,,,,,,,,,w,1,1.074,1.536002506,1,5,11,2,46,2,1,,,,,,,,,,,,,,
,,,,,,,,,,,right.png,,p,left,6152b8943ef5c73934ed350a,2021-10-22_16h04.03.316,arrow_simon_punish,2021.1.2,Win32,59.63029219,,,,,,,,,,,,,,p,1,1.862,2.117115652,1,5,11,3,47,0,1,,,,,,,,,,,,,,
,,,,,,,,,,,left.png,,w,right,6152b8943ef5c73934ed350a,2021-10-22_16h04.03.316,arrow_simon_punish,2021.1.2,Win32,59.63029219,,,,,,,,,,,,,,p,0,2.3987,2.17492635,1,5,12,0,48,3,1,,,,,,,,,,,,,,
,,,,,,,,,,,right.png,,p,right,6152b8943ef5c73934ed350a,2021-10-22_16h04.03.316,arrow_simon_punish,2021.1.2,Win32,59.63029219,,,,,,,,,,,,,,p,1,1.9296,2.19749616,1,5,12,1,49,1,1,,,,,,,,,,,,,,
,,,,,,,,,,,right.png,,p,right,6152b8943ef5c73934ed350a,2021-10-22_16h04.03.316,arrow_simon_punish,2021.1.2,Win32,59.63029219,,,,,,,,,,,,,,p,1,1.8118,2.195017048,1,5,12,2,50,1,1,,,,,,,,,,,,,,
,,,,,,,,,,,right.png,,p,right,6152b8943ef5c73934ed350a,2021-10-22_16h04.03.316,arrow_simon_punish,2021.1.2,Win32,59.63029219,,,,,,,,,,,,,,p,1,3.9079,2.36618505,1,5,12,3,51,1,1,,,,,,,,,,,,,,
,,,,,,,,,,,left.png,,w,left,6152b8943ef5c73934ed350a,2021-10-22_16h04.03.316,arrow_simon_punish,2021.1.2,Win32,59.63029219,,,,,,,,,,,,,,w,1,2.0801,1.844223493,1,5,13,0,52,2,1,,,,,,,,,,,,,,
,,,,,,,,,,,left.png,,w,right,6152b8943ef5c73934ed350a,2021-10-22_16h04.03.316,arrow_simon_punish,2021.1.2,Win32,59.63029219,,,,,,,,,,,,,,p,0,2.2646,1.52448596,1,5,13,1,53,3,1,,,,,,,,,,,,,,
,,,,,,,,,,,right.png,,p,right,6152b8943ef5c73934ed350a,2021-10-22_16h04.03.316,arrow_simon_punish,2021.1.2,Win32,59.63029219,,,,,,,,,,,,,,p,1,1.795,2.167329214,1,5,13,2,54,1,1,,,,,,,,,,,,,,
,,,,,,,,,,,right.png,,p,right,6152b8943ef5c73934ed350a,2021-10-22_16h04.03.316,arrow_simon_punish,2021.1.2,Win32,59.63029219,,,,,,,,,,,,,,p,1,2.0133,2.376117379,1,5,13,3,55,1,1,,,,,,,,,,,,,,
,,,,,,,,,,,left.png,,w,right,6152b8943ef5c73934ed350a,2021-10-22_16h04.03.316,arrow_simon_punish,2021.1.2,Win32,59.63029219,,,,,,,,,,,,,,w,1,2.533,2.340187916,1,5,14,0,56,3,1,,,,,,,,,,,,,,
,,,,,,,,,,,right.png,,p,left,6152b8943ef5c73934ed350a,2021-10-22_16h04.03.316,arrow_simon_punish,2021.1.2,Win32,59.63029219,,,,,,,,,,,,,,w,0,5.988,2.126961405,1,5,14,1,57,0,1,,,,,,,,,,,,,,
,,,,,,,,,,,left.png,,w,right,6152b8943ef5c73934ed350a,2021-10-22_16h04.03.316,arrow_simon_punish,2021.1.2,Win32,59.63029219,,,,,,,,,,,,,,w,1,2.0801,2.380788247,1,5,14,2,58,3,1,,,,,,,,,,,,,,
,,,,,,,,,,,left.png,,w,left,6152b8943ef5c73934ed350a,2021-10-22_16h04.03.316,arrow_simon_punish,2021.1.2,Win32,59.63029219,,,,,,,,,,,,,,w,1,2.0634,2.416130397,1,5,14,3,59,2,1,,,,,,,,,,,,,,
,,,,,,,,,,,,,,,6152b8943ef5c73934ed350a,2021-10-22_16h04.03.316,arrow_simon_punish,2021.1.2,Win32,59.63029219,,,,,,,,,,,,,,,,,,,,,,,,,space,15.6124,7,2,1,5,1,1,5,,,,,
,,,,,,,,,,,left.png,,w,left,6152b8943ef5c73934ed350a,2021-10-22_16h04.03.316,arrow_simon_punish,2021.1.2,Win32,59.63029219,,,,,,,,,,,,,,w,1,1.1914,1.668079858,1,1,0,0,0,2,1,,,,,,,,,,,,,,
,,,,,,,,,,,right.png,,p,right,6152b8943ef5c73934ed350a,2021-10-22_16h04.03.316,arrow_simon_punish,2021.1.2,Win32,59.63029219,,,,,,,,,,,,,,p,1,1.6106,2.111798164,1,1,0,1,1,1,1,,,,,,,,,,,,,,
,,,,,,,,,,,left.png,,w,left,6152b8943ef5c73934ed350a,2021-10-22_16h04.03.316,arrow_simon_punish,2021.1.2,Win32,59.63029219,,,,,,,,,,,,,,w,1,2.013,2.485513516,1,1,0,2,2,2,1,,,,,,,,,,,,,,
,,,,,,,,,,,left.png,,w,left,6152b8943ef5c73934ed350a,2021-10-22_16h04.03.316,arrow_simon_punish,2021.1.2,Win32,59.63029219,,,,,,,,,,,,,,p,0,1.6274,2.205595262,1,1,0,3,3,2,1,,,,,,,,,,,,,,
,,,,,,,,,,,left.png,,w,right,6152b8943ef5c73934ed350a,2021-10-22_16h04.03.316,arrow_simon_punish,2021.1.2,Win32,59.63029219,,,,,,,,,,,,,,w,1,1.946,2.181130049,1,1,1,0,4,3,1,,,,,,,,,,,,,,
,,,,,,,,,,,left.png,,w,right,6152b8943ef5c73934ed350a,2021-10-22_16h04.03.316,arrow_simon_punish,2021.1.2,Win32,59.63029219,,,,,,,,,,,,,,p,0,1.1914,1.762805643,1,1,1,1,5,3,1,,,,,,,,,,,,,,
,,,,,,,,,,,left.png,,w,left,6152b8943ef5c73934ed350a,2021-10-22_16h04.03.316,arrow_simon_punish,2021.1.2,Win32,59.63029219,,,,,,,,,,,,,,p,0,1.8622,2.022509778,1,1,1,2,6,2,1,,,,,,,,,,,,,,
,,,,,,,,,,,right.png,,p,right,6152b8943ef5c73934ed350a,2021-10-22_16h04.03.316,arrow_simon_punish,2021.1.2,Win32,59.63029219,,,,,,,,,,,,,,p,1,1.7111,1.930507848,1,1,1,3,7,1,1,,,,,,,,,,,,,,
,,,,,,,,,,,right.png,,p,left,6152b8943ef5c73934ed350a,2021-10-22_16h04.03.316,arrow_simon_punish,2021.1.2,Win32,59.63029219,,,,,,,,,,,,,,w,0,1.2586,1.744833844,1,1,2,0,8,0,1,,,,,,,,,,,,,,
,,,,,,,,,,,left.png,,w,right,6152b8943ef5c73934ed350a,2021-10-22_16h04.03.316,arrow_simon_punish,2021.1.2,Win32,59.63029219,,,,,,,,,,,,,,w,1,1.6776,1.888839037,1,1,2,1,9,3,1,,,,,,,,,,,,,,
,,,,,,,,,,,left.png,,w,left,6152b8943ef5c73934ed350a,2021-10-22_16h04.03.316,arrow_simon_punish,2021.1.2,Win32,59.63029219,,,,,,,,,,,,,,w,1,1.6944,1.927639475,1,1,2,2,10,2,1,,,,,,,,,,,,,,
,,,,,,,,,,,right.png,,p,right,6152b8943ef5c73934ed350a,2021-10-22_16h04.03.316,arrow_simon_punish,2021.1.2,Win32,59.63029219,,,,,,,,,,,,,,p,1,1.3591,1.821786465,1,1,2,3,11,1,1,,,,,,,,,,,,,,
,,,,,,,,,,,left.png,,w,right,6152b8943ef5c73934ed350a,2021-10-22_16h04.03.316,arrow_simon_punish,2021.1.2,Win32,59.63029219,,,,,,,,,,,,,,p,0,1.8789,2.136802085,1,1,3,0,12,3,1,,,,,,,,,,,,,,
,,,,,,,,,,,right.png,,p,left,6152b8943ef5c73934ed350a,2021-10-22_16h04.03.316,arrow_simon_punish,2021.1.2,Win32,59.63029219,,,,,,,,,,,,,,p,1,1.812,1.863677427,1,1,3,1,13,0,1,,,,,,,,,,,,,,
,,,,,,,,,,,left.png,,w,left,6152b8943ef5c73934ed350a,2021-10-22_16h04.03.316,arrow_simon_punish,2021.1.2,Win32,59.63029219,,,,,,,,,,,,,,w,1,2.164,2.465211977,1,1,3,2,14,2,1,,,,,,,,,,,,,,
,,,,,,,,,,,right.png,,p,left,6152b8943ef5c73934ed350a,2021-10-22_16h04.03.316,arrow_simon_punish,2021.1.2,Win32,59.63029219,,,,,,,,,,,,,,w,0,2.8012,2.300318764,1,1,3,3,15,0,1,,,,,,,,,,,,,,
,,,,,,,,,,,left.png,,w,right,6152b8943ef5c73934ed350a,2021-10-22_16h04.03.316,arrow_simon_punish,2021.1.2,Win32,59.63029219,,,,,,,,,,,,,,w,1,3.1031,1.687984088,1,1,4,0,16,3,1,,,,,,,,,,,,,,
,,,,,,,,,,,right.png,,p,right,6152b8943ef5c73934ed350a,2021-10-22_16h04.03.316,arrow_simon_punish,2021.1.2,Win32,59.63029219,,,,,,,,,,,,,,p,1,1.7111,2.003748213,1,1,4,1,17,1,1,,,,,,,,,,,,,,
,,,,,,,,,,,left.png,,w,right,6152b8943ef5c73934ed350a,2021-10-22_16h04.03.316,arrow_simon_punish,2021.1.2,Win32,59.63029219,,,,,,,,,,,,,,w,1,1.7447,1.810250974,1,1,4,2,18,3,1,,,,,,,,,,,,,,
,,,,,,,,,,,right.png,,p,right,6152b8943ef5c73934ed350a,2021-10-22_16h04.03.316,arrow_simon_punish,2021.1.2,Win32,59.63029219,,,,,,,,,,,,,,p,1,1.3254,1.597529658,1,1,4,3,19,1,1,,,,,,,,,,,,,,
,,,,,,,,,,,right.png,,p,right,6152b8943ef5c73934ed350a,2021-10-22_16h04.03.316,arrow_simon_punish,2021.1.2,Win32,59.63029219,,,,,,,,,,,,,,p,1,1.8957,2.414197269,1,1,5,0,20,1,1,,,,,,,,,,,,,,
,,,,,,,,,,,left.png,,w,left,6152b8943ef5c73934ed350a,2021-10-22_16h04.03.316,arrow_simon_punish,2021.1.2,Win32,59.63029219,,,,,,,,,,,,,,p,0,1.2417,2.285696851,1,1,5,1,21,2,1,,,,,,,,,,,,,,
,,,,,,,,,,,left.png,,w,left,6152b8943ef5c73934ed350a,2021-10-22_16h04.03.316,arrow_simon_punish,2021.1.2,Win32,59.63029219,,,,,,,,,,,,,,w,1,2.2981,2.22345462,1,1,5,2,22,2,1,,,,,,,,,,,,,,
,,,,,,,,,,,left.png,,w,right,6152b8943ef5c73934ed350a,2021-10-22_16h04.03.316,arrow_simon_punish,2021.1.2,Win32,59.63029219,,,,,,,,,,,,,,w,1,4.1091,2.210748227,1,1,5,3,23,3,1,,,,,,,,,,,,,,
,,,,,,,,,,,right.png,,p,left,6152b8943ef5c73934ed350a,2021-10-22_16h04.03.316,arrow_simon_punish,2021.1.2,Win32,59.63029219,,,,,,,,,,,,,,p,1,2.0968,1.867679666,1,1,6,0,24,0,1,,,,,,,,,,,,,,
,,,,,,,,,,,left.png,,w,left,6152b8943ef5c73934ed350a,2021-10-22_16h04.03.316,arrow_simon_punish,2021.1.2,Win32,59.63029219,,,,,,,,,,,,,,w,1,1.4428,1.884278032,0,1,6,1,25,2,1,,,,,,,,,,,,,,
,,,,,,,,,,,left.png,,w,left,6152b8943ef5c73934ed350a,2021-10-22_16h04.03.316,arrow_simon_punish,2021.1.2,Win32,59.63029219,,,,,,,,,,,,,,w,1,1.1746,1.623087909,1,1,6,2,26,2,1,,,,,,,,,,,,,,
,,,,,,,,,,,right.png,,p,right,6152b8943ef5c73934ed350a,2021-10-22_16h04.03.316,arrow_simon_punish,2021.1.2,Win32,59.63029219,,,,,,,,,,,,,,p,1,1.2919,1.913418807,1,1,6,3,27,1,1,,,,,,,,,,,,,,
,,,,,,,,,,,right.png,,p,right,6152b8943ef5c73934ed350a,2021-10-22_16h04.03.316,arrow_simon_punish,2021.1.2,Win32,59.63029219,,,,,,,,,,,,,,p,1,1.6946,2.179405434,1,1,7,0,28,1,1,,,,,,,,,,,,,,
,,,,,,,,,,,right.png,,p,left,6152b8943ef5c73934ed350a,2021-10-22_16h04.03.316,arrow_simon_punish,2021.1.2,Win32,59.63029219,,,,,,,,,,,,,,p,1,2.1136,1.982949007,1,1,7,1,29,0,1,,,,,,,,,,,,,,
,,,,,,,,,,,left.png,,w,right,6152b8943ef5c73934ed350a,2021-10-22_16h04.03.316,arrow_simon_punish,2021.1.2,Win32,59.63029219,,,,,,,,,,,,,,w,1,1.7951,1.786970762,1,1,7,2,30,3,1,,,,,,,,,,,,,,
,,,,,,,,,,,left.png,,w,left,6152b8943ef5c73934ed350a,2021-10-22_16h04.03.316,arrow_simon_punish,2021.1.2,Win32,59.63029219,,,,,,,,,,,,,,w,1,1.7113,1.885337011,1,1,7,3,31,2,1,,,,,,,,,,,,,,
,,,,,,,,,,,right.png,,p,left,6152b8943ef5c73934ed350a,2021-10-22_16h04.03.316,arrow_simon_punish,2021.1.2,Win32,59.63029219,,,,,,,,,,,,,,w,0,5.9707,1.832861341,1,1,8,0,32,0,1,,,,,,,,,,,,,,
,,,,,,,,,,,left.png,,w,left,6152b8943ef5c73934ed350a,2021-10-22_16h04.03.316,arrow_simon_punish,2021.1.2,Win32,59.63029219,,,,,,,,,,,,,,w,1,1.4093,1.512291419,0,1,8,1,33,2,1,,,,,,,,,,,,,,
,,,,,,,,,,,right.png,,p,right,6152b8943ef5c73934ed350a,2021-10-22_16h04.03.316,arrow_simon_punish,2021.1.2,Win32,59.63029219,,,,,,,,,,,,,,p,1,1.0571,1.602710643,1,1,8,2,34,1,1,,,,,,,,,,,,,,
,,,,,,,,,,,right.png,,p,left,6152b8943ef5c73934ed350a,2021-10-22_16h04.03.316,arrow_simon_punish,2021.1.2,Win32,59.63029219,,,,,,,,,,,,,,p,1,1.7279,2.067836616,1,1,8,3,35,0,1,,,,,,,,,,,,,,
,,,,,,,,,,,right.png,,p,left,6152b8943ef5c73934ed350a,2021-10-22_16h04.03.316,arrow_simon_punish,2021.1.2,Win32,59.63029219,,,,,,,,,,,,,,p,1,1.7951,2.272742778,1,1,9,0,36,0,1,,,,,,,,,,,,,,
,,,,,,,,,,,right.png,,p,right,6152b8943ef5c73934ed350a,2021-10-22_16h04.03.316,arrow_simon_punish,2021.1.2,Win32,59.63029219,,,,,,,,,,,,,,p,1,1.0405,1.533835986,1,1,9,1,37,1,1,,,,,,,,,,,,,,
,,,,,,,,,,,left.png,,w,right,6152b8943ef5c73934ed350a,2021-10-22_16h04.03.316,arrow_simon_punish,2021.1.2,Win32,59.63029219,,,,,,,,,,,,,,w,1,2.9858,2.212723518,1,1,9,2,38,3,1,,,,,,,,,,,,,,
,,,,,,,,,,,right.png,,p,right,6152b8943ef5c73934ed350a,2021-10-22_16h04.03.316,arrow_simon_punish,2021.1.2,Win32,59.63029219,,,,,,,,,,,,,,p,1,5.0905,2.234026734,1,1,9,3,39,1,1,,,,,,,,,,,,,,
,,,,,,,,,,,right.png,,p,right,6152b8943ef5c73934ed350a,2021-10-22_16h04.03.316,arrow_simon_punish,2021.1.2,Win32,59.63029219,,,,,,,,,,,,,,p,1,1.4687,1.931414576,0,1,10,0,40,1,1,,,,,,,,,,,,,,
,,,,,,,,,,,right.png,,p,left,6152b8943ef5c73934ed350a,2021-10-22_16h04.03.316,arrow_simon_punish,2021.1.2,Win32,59.63029219,,,,,,,,,,,,,,p,1,1.3007,1.655500789,1,1,10,1,41,0,1,,,,,,,,,,,,,,
,,,,,,,,,,,left.png,,w,right,6152b8943ef5c73934ed350a,2021-10-22_16h04.03.316,arrow_simon_punish,2021.1.2,Win32,59.63029219,,,,,,,,,,,,,,w,1,4.2108,1.878310971,1,1,10,2,42,3,1,,,,,,,,,,,,,,
,,,,,,,,,,,left.png,,w,right,6152b8943ef5c73934ed350a,2021-10-22_16h04.03.316,arrow_simon_punish,2021.1.2,Win32,59.63029219,,,,,,,,,,,,,,w,1,1.7258,1.587995631,1,1,10,3,43,3,1,,,,,,,,,,,,,,
,,,,,,,,,,,right.png,,p,left,6152b8943ef5c73934ed350a,2021-10-22_16h04.03.316,arrow_simon_punish,2021.1.2,Win32,59.63029219,,,,,,,,,,,,,,p,1,8.6873,1.659050769,1,1,11,0,44,0,1,,,,,,,,,,,,,,
,,,,,,,,,,,left.png,,w,right,6152b8943ef5c73934ed350a,2021-10-22_16h04.03.316,arrow_simon_punish,2021.1.2,Win32,59.63029219,,,,,,,,,,,,,,p,0,2.0474,2.1116342,1,1,11,1,45,3,1,,,,,,,,,,,,,,
,,,,,,,,,,,right.png,,p,left,6152b8943ef5c73934ed350a,2021-10-22_16h04.03.316,arrow_simon_punish,2021.1.2,Win32,59.63029219,,,,,,,,,,,,,,p,1,1.7614,1.588111254,1,1,11,2,46,0,1,,,,,,,,,,,,,,
,,,,,,,,,,,right.png,,p,left,6152b8943ef5c73934ed350a,2021-10-22_16h04.03.316,arrow_simon_punish,2021.1.2,Win32,59.63029219,,,,,,,,,,,,,,p,1,1.4932,1.757917863,0,1,11,3,47,0,1,,,,,,,,,,,,,,
,,,,,,,,,,,right.png,,p,right,6152b8943ef5c73934ed350a,2021-10-22_16h04.03.316,arrow_simon_punish,2021.1.2,Win32,59.63029219,,,,,,,,,,,,,,p,1,1.5329,2.004045908,0,1,12,0,48,1,1,,,,,,,,,,,,,,
,,,,,,,,,,,left.png,,w,right,6152b8943ef5c73934ed350a,2021-10-22_16h04.03.316,arrow_simon_punish,2021.1.2,Win32,59.63029219,,,,,,,,,,,,,,w,1,1.8677,1.834412301,1,1,12,1,49,3,1,,,,,,,,,,,,,,
,,,,,,,,,,,left.png,,w,right,6152b8943ef5c73934ed350a,2021-10-22_16h04.03.316,arrow_simon_punish,2021.1.2,Win32,59.63029219,,,,,,,,,,,,,,w,1,2.0298,1.934302966,1,1,12,2,50,3,1,,,,,,,,,,,,,,
,,,,,,,,,,,left.png,,w,left,6152b8943ef5c73934ed350a,2021-10-22_16h04.03.316,arrow_simon_punish,2021.1.2,Win32,59.63029219,,,,,,,,,,,,,,w,1,14.1112,1.698459868,1,1,12,3,51,2,1,,,,,,,,,,,,,,
,,,,,,,,,,,right.png,,p,left,6152b8943ef5c73934ed350a,2021-10-22_16h04.03.316,arrow_simon_punish,2021.1.2,Win32,59.63029219,,,,,,,,,,,,,,p,1,1.8957,1.797368509,1,1,13,0,52,0,1,,,,,,,,,,,,,,
,,,,,,,,,,,right.png,,p,left,6152b8943ef5c73934ed350a,2021-10-22_16h04.03.316,arrow_simon_punish,2021.1.2,Win32,59.63029219,,,,,,,,,,,,,,p,1,2.2288,2.490919851,1,1,13,1,53,0,1,,,,,,,,,,,,,,
,,,,,,,,,,,right.png,,p,right,6152b8943ef5c73934ed350a,2021-10-22_16h04.03.316,arrow_simon_punish,2021.1.2,Win32,59.63029219,,,,,,,,,,,,,,p,1,2.1785,2.184082483,1,1,13,2,54,1,1,,,,,,,,,,,,,,
,,,,,,,,,,,right.png,,p,left,6152b8943ef5c73934ed350a,2021-10-22_16h04.03.316,arrow_simon_punish,2021.1.2,Win32,59.63029219,,,,,,,,,,,,,,p,1,8.7896,2.426826892,1,1,13,3,55,0,1,,,,,,,,,,,,,,
,,,,,,,,,,,left.png,,w,left,6152b8943ef5c73934ed350a,2021-10-22_16h04.03.316,arrow_simon_punish,2021.1.2,Win32,59.63029219,,,,,,,,,,,,,,p,0,4.88,1.609572683,1,1,14,0,56,2,1,,,,,,,,,,,,,,
,,,,,,,,,,,right.png,,p,right,6152b8943ef5c73934ed350a,2021-10-22_16h04.03.316,arrow_simon_punish,2021.1.2,Win32,59.63029219,,,,,,,,,,,,,,p,1,1.8119,2.054429937,1,1,14,1,57,1,1,,,,,,,,,,,,,,
,,,,,,,,,,,left.png,,w,right,6152b8943ef5c73934ed350a,2021-10-22_16h04.03.316,arrow_simon_punish,2021.1.2,Win32,59.63029219,,,,,,,,,,,,,,w,1,1.3758,1.586454888,1,1,14,2,58,3,1,,,,,,,,,,,,,,
,,,,,,,,,,,left.png,,w,left,6152b8943ef5c73934ed350a,2021-10-22_16h04.03.316,arrow_simon_punish,2021.1.2,Win32,59.63029219,,,,,,,,,,,,,,w,1,1.6923,2.151343224,1,1,14,3,59,2,1,,,,,,,,,,,,,,
,,,,,,,,,,,,,,,6152b8943ef5c73934ed350a,2021-10-22_16h04.03.316,arrow_simon_punish,2021.1.2,Win32,59.63029219,,,,,,,,,,,,,,,,,,,,,,,,,space,66.5077,8,3,0,6,0,1,1,,,,,
,,,,,,,,,,,right.png,,p,left,6152b8943ef5c73934ed350a,2021-10-22_16h04.03.316,arrow_simon_punish,2021.1.2,Win32,59.63029219,,,,,,,,,,,,,,p,1,2.5099,2.007008191,1,5,0,0,0,0,1,,,,,,,,,,,,,,
,,,,,,,,,,,left.png,,w,right,6152b8943ef5c73934ed350a,2021-10-22_16h04.03.316,arrow_simon_punish,2021.1.2,Win32,59.63029219,,,,,,,,,,,,,,w,1,1.3263,1.513739156,1,5,0,1,1,3,1,,,,,,,,,,,,,,
,,,,,,,,,,,right.png,,p,left,6152b8943ef5c73934ed350a,2021-10-22_16h04.03.316,arrow_simon_punish,2021.1.2,Win32,59.63029219,,,,,,,,,,,,,,w,0,1.8119,2.270106522,1,5,0,2,2,0,1,,,,,,,,,,,,,,
,,,,,,,,,,,right.png,,p,left,6152b8943ef5c73934ed350a,2021-10-22_16h04.03.316,arrow_simon_punish,2021.1.2,Win32,59.63029219,,,,,,,,,,,,,,p,1,1.6609,1.679049111,1,5,0,3,3,0,1,,,,,,,,,,,,,,
,,,,,,,,,,,left.png,,w,left,6152b8943ef5c73934ed350a,2021-10-22_16h04.03.316,arrow_simon_punish,2021.1.2,Win32,59.63029219,,,,,,,,,,,,,,w,1,2.2044,2.445309461,1,5,1,0,4,2,1,,,,,,,,,,,,,,
,,,,,,,,,,,right.png,,p,right,6152b8943ef5c73934ed350a,2021-10-22_16h04.03.316,arrow_simon_punish,2021.1.2,Win32,59.63029219,,,,,,,,,,,,,,p,1,1.1408,1.715307635,1,5,1,1,5,1,1,,,,,,,,,,,,,,
,,,,,,,,,,,left.png,,w,left,6152b8943ef5c73934ed350a,2021-10-22_16h04.03.316,arrow_simon_punish,2021.1.2,Win32,59.63029219,,,,,,,,,,,,,,w,1,1.7342,2.132248893,1,5,1,2,6,2,1,,,,,,,,,,,,,,
,,,,,,,,,,,right.png,,p,left,6152b8943ef5c73934ed350a,2021-10-22_16h04.03.316,arrow_simon_punish,2021.1.2,Win32,59.63029219,,,,,,,,,,,,,,p,1,1.376,1.545429607,1,5,1,3,7,0,1,,,,,,,,,,,,,,
