instruct_resp_simon.keys,instruct_resp_simon.corr,instruct_resp_simon.rt,trial_resp_simon.keys,trial_resp_simon.corr,trial_resp_simon.rt,trials_train_simon.thisRepN,trials_train_simon.thisTrialN,trials_train_simon.thisN,trials_train_simon.thisIndex,trials_train_simon.ran,target_file,target_pos,target_resp,target_side,participant,date,expName,psychopyVersion,OS,frameRate,instruct_resp_timing.keys,instruct_resp_timing.corr,instruct_resp_timing.rt,trial_resp_timing.keys,trial_resp_timing.rt,trials_train_timing.thisRepN,trials_train_timing.thisTrialN,trials_train_timing.thisN,trials_train_timing.thisIndex,trials_train_timing.ran,instruct_resp.keys,instruct_resp.corr,instruct_resp.rt,trial_resp.keys,trial_resp.corr,trial_resp.rt,target_onset,err,pun,trials.thisRepN,trials.thisTrialN,trials.thisN,trials.thisIndex,trials.ran,block_note_resp.keys,block_note_resp.rt,block_num,blocks.thisRepN,blocks.thisTrialN,blocks.thisN,blocks.thisIndex,blocks.ran,punish,complete_resp.keys,complete_resp.rt,raffle_trial,raffle_err,raffle_rew
space,0,55.561,p,1,3.5173,0,0,0,0,1,right.png,,p,left,615224b6fec95dfc43439c28,2021-10-22_17h01.15.763,arrow_simon_punish,2021.1.2,Win32,59.93048064,,,,,,,,,,,,,,,,,,,,,,,,,,,,,,,,,,,,,,
,,,w,1,1.4795,0,1,1,2,1,left.png,,w,left,615224b6fec95dfc43439c28,2021-10-22_17h01.15.763,arrow_simon_punish,2021.1.2,Win32,59.93048064,,,,,,,,,,,,,,,,,,,,,,,,,,,,,,,,,,,,,,
,,,p,1,0.8562,0,2,2,1,1,right.png,,p,right,615224b6fec95dfc43439c28,2021-10-22_17h01.15.763,arrow_simon_punish,2021.1.2,Win32,59.93048064,,,,,,,,,,,,,,,,,,,,,,,,,,,,,,,,,,,,,,
,,,w,1,2.0872,0,3,3,3,1,left.png,,w,right,615224b6fec95dfc43439c28,2021-10-22_17h01.15.763,arrow_simon_punish,2021.1.2,Win32,59.93048064,,,,,,,,,,,,,,,,,,,,,,,,,,,,,,,,,,,,,,
,,,w,1,1.6502,1,0,4,3,1,left.png,,w,right,615224b6fec95dfc43439c28,2021-10-22_17h01.15.763,arrow_simon_punish,2021.1.2,Win32,59.93048064,,,,,,,,,,,,,,,,,,,,,,,,,,,,,,,,,,,,,,
,,,p,1,1.3536,1,1,5,1,1,right.png,,p,right,615224b6fec95dfc43439c28,2021-10-22_17h01.15.763,arrow_simon_punish,2021.1.2,Win32,59.93048064,,,,,,,,,,,,,,,,,,,,,,,,,,,,,,,,,,,,,,
,,,w,1,1.5717,1,2,6,2,1,left.png,,w,left,615224b6fec95dfc43439c28,2021-10-22_17h01.15.763,arrow_simon_punish,2021.1.2,Win32,59.93048064,,,,,,,,,,,,,,,,,,,,,,,,,,,,,,,,,,,,,,
,,,p,1,1.5083,1,3,7,0,1,right.png,,p,left,615224b6fec95dfc43439c28,2021-10-22_17h01.15.763,arrow_simon_punish,2021.1.2,Win32,59.93048064,,,,,,,,,,,,,,,,,,,,,,,,,,,,,,,,,,,,,,
,,,w,1,1.1424,2,0,8,2,1,left.png,,w,left,615224b6fec95dfc43439c28,2021-10-22_17h01.15.763,arrow_simon_punish,2021.1.2,Win32,59.93048064,,,,,,,,,,,,,,,,,,,,,,,,,,,,,,,,,,,,,,
,,,p,1,1.0677,2,1,9,1,1,right.png,,p,right,615224b6fec95dfc43439c28,2021-10-22_17h01.15.763,arrow_simon_punish,2021.1.2,Win32,59.93048064,,,,,,,,,,,,,,,,,,,,,,,,,,,,,,,,,,,,,,
,,,p,1,2.1029,2,2,10,0,1,right.png,,p,left,615224b6fec95dfc43439c28,2021-10-22_17h01.15.763,arrow_simon_punish,2021.1.2,Win32,59.93048064,,,,,,,,,,,,,,,,,,,,,,,,,,,,,,,,,,,,,,
,,,w,1,1.709,2,3,11,3,1,left.png,,w,right,615224b6fec95dfc43439c28,2021-10-22_17h01.15.763,arrow_simon_punish,2021.1.2,Win32,59.93048064,,,,,,,,,,,,,,,,,,,,,,,,,,,,,,,,,,,,,,
,,,p,1,1.5056,3,0,12,0,1,right.png,,p,left,615224b6fec95dfc43439c28,2021-10-22_17h01.15.763,arrow_simon_punish,2021.1.2,Win32,59.93048064,,,,,,,,,,,,,,,,,,,,,,,,,,,,,,,,,,,,,,
,,,p,1,1.3249,3,1,13,1,1,right.png,,p,right,615224b6fec95dfc43439c28,2021-10-22_17h01.15.763,arrow_simon_punish,2021.1.2,Win32,59.93048064,,,,,,,,,,,,,,,,,,,,,,,,,,,,,,,,,,,,,,
,,,w,1,1.601,3,2,14,2,1,left.png,,w,left,615224b6fec95dfc43439c28,2021-10-22_17h01.15.763,arrow_simon_punish,2021.1.2,Win32,59.93048064,,,,,,,,,,,,,,,,,,,,,,,,,,,,,,,,,,,,,,
,,,w,1,1.9058,3,3,15,3,1,left.png,,w,right,615224b6fec95dfc43439c28,2021-10-22_17h01.15.763,arrow_simon_punish,2021.1.2,Win32,59.93048064,,,,,,,,,,,,,,,,,,,,,,,,,,,,,,,,,,,,,,
,,,w,1,1.4173,4,0,16,2,1,left.png,,w,left,615224b6fec95dfc43439c28,2021-10-22_17h01.15.763,arrow_simon_punish,2021.1.2,Win32,59.93048064,,,,,,,,,,,,,,,,,,,,,,,,,,,,,,,,,,,,,,
,,,w,1,2.014,4,1,17,3,1,left.png,,w,right,615224b6fec95dfc43439c28,2021-10-22_17h01.15.763,arrow_simon_punish,2021.1.2,Win32,59.93048064,,,,,,,,,,,,,,,,,,,,,,,,,,,,,,,,,,,,,,
,,,p,1,1.8676,4,2,18,1,1,right.png,,p,right,615224b6fec95dfc43439c28,2021-10-22_17h01.15.763,arrow_simon_punish,2021.1.2,Win32,59.93048064,,,,,,,,,,,,,,,,,,,,,,,,,,,,,,,,,,,,,,
,,,p,1,1.5908,4,3,19,0,1,right.png,,p,left,615224b6fec95dfc43439c28,2021-10-22_17h01.15.763,arrow_simon_punish,2021.1.2,Win32,59.93048064,,,,,,,,,,,,,,,,,,,,,,,,,,,,,,,,,,,,,,
,,,p,1,1.617,5,0,20,0,1,right.png,,p,left,615224b6fec95dfc43439c28,2021-10-22_17h01.15.763,arrow_simon_punish,2021.1.2,Win32,59.93048064,,,,,,,,,,,,,,,,,,,,,,,,,,,,,,,,,,,,,,
,,,w,1,1.5005,5,1,21,3,1,left.png,,w,right,615224b6fec95dfc43439c28,2021-10-22_17h01.15.763,arrow_simon_punish,2021.1.2,Win32,59.93048064,,,,,,,,,,,,,,,,,,,,,,,,,,,,,,,,,,,,,,
,,,p,1,1.3531,5,2,22,1,1,right.png,,p,right,615224b6fec95dfc43439c28,2021-10-22_17h01.15.763,arrow_simon_punish,2021.1.2,Win32,59.93048064,,,,,,,,,,,,,,,,,,,,,,,,,,,,,,,,,,,,,,
,,,w,1,2.0172,5,3,23,2,1,left.png,,w,left,615224b6fec95dfc43439c28,2021-10-22_17h01.15.763,arrow_simon_punish,2021.1.2,Win32,59.93048064,,,,,,,,,,,,,,,,,,,,,,,,,,,,,,,,,,,,,,
,,,p,1,1.699,6,0,24,0,1,right.png,,p,left,615224b6fec95dfc43439c28,2021-10-22_17h01.15.763,arrow_simon_punish,2021.1.2,Win32,59.93048064,,,,,,,,,,,,,,,,,,,,,,,,,,,,,,,,,,,,,,
,,,w,1,0.9415,6,1,25,2,1,left.png,,w,left,615224b6fec95dfc43439c28,2021-10-22_17h01.15.763,arrow_simon_punish,2021.1.2,Win32,59.93048064,,,,,,,,,,,,,,,,,,,,,,,,,,,,,,,,,,,,,,
,,,w,1,1.2523,6,2,26,3,1,left.png,,w,right,615224b6fec95dfc43439c28,2021-10-22_17h01.15.763,arrow_simon_punish,2021.1.2,Win32,59.93048064,,,,,,,,,,,,,,,,,,,,,,,,,,,,,,,,,,,,,,
,,,p,1,1.0165,6,3,27,1,1,right.png,,p,right,615224b6fec95dfc43439c28,2021-10-22_17h01.15.763,arrow_simon_punish,2021.1.2,Win32,59.93048064,,,,,,,,,,,,,,,,,,,,,,,,,,,,,,,,,,,,,,
,,,p,1,1.0079,7,0,28,1,1,right.png,,p,right,615224b6fec95dfc43439c28,2021-10-22_17h01.15.763,arrow_simon_punish,2021.1.2,Win32,59.93048064,,,,,,,,,,,,,,,,,,,,,,,,,,,,,,,,,,,,,,
,,,p,1,1.2158,7,1,29,0,1,right.png,,p,left,615224b6fec95dfc43439c28,2021-10-22_17h01.15.763,arrow_simon_punish,2021.1.2,Win32,59.93048064,,,,,,,,,,,,,,,,,,,,,,,,,,,,,,,,,,,,,,
,,,w,1,1.1179,7,2,30,2,1,left.png,,w,left,615224b6fec95dfc43439c28,2021-10-22_17h01.15.763,arrow_simon_punish,2021.1.2,Win32,59.93048064,,,,,,,,,,,,,,,,,,,,,,,,,,,,,,,,,,,,,,
,,,w,1,1.1209,7,3,31,3,1,left.png,,w,right,615224b6fec95dfc43439c28,2021-10-22_17h01.15.763,arrow_simon_punish,2021.1.2,Win32,59.93048064,,,,,,,,,,,,,,,,,,,,,,,,,,,,,,,,,,,,,,
,,,w,1,1.4404,8,0,32,3,1,left.png,,w,right,615224b6fec95dfc43439c28,2021-10-22_17h01.15.763,arrow_simon_punish,2021.1.2,Win32,59.93048064,,,,,,,,,,,,,,,,,,,,,,,,,,,,,,,,,,,,,,
,,,w,1,1.227,8,1,33,2,1,left.png,,w,left,615224b6fec95dfc43439c28,2021-10-22_17h01.15.763,arrow_simon_punish,2021.1.2,Win32,59.93048064,,,,,,,,,,,,,,,,,,,,,,,,,,,,,,,,,,,,,,
,,,p,1,0.8376,8,2,34,1,1,right.png,,p,right,615224b6fec95dfc43439c28,2021-10-22_17h01.15.763,arrow_simon_punish,2021.1.2,Win32,59.93048064,,,,,,,,,,,,,,,,,,,,,,,,,,,,,,,,,,,,,,
,,,p,1,1.4141,8,3,35,0,1,right.png,,p,left,615224b6fec95dfc43439c28,2021-10-22_17h01.15.763,arrow_simon_punish,2021.1.2,Win32,59.93048064,,,,,,,,,,,,,,,,,,,,,,,,,,,,,,,,,,,,,,
,,,w,1,1.6773,9,0,36,2,1,left.png,,w,left,615224b6fec95dfc43439c28,2021-10-22_17h01.15.763,arrow_simon_punish,2021.1.2,Win32,59.93048064,,,,,,,,,,,,,,,,,,,,,,,,,,,,,,,,,,,,,,
,,,p,1,2.0272,9,1,37,1,1,right.png,,p,right,615224b6fec95dfc43439c28,2021-10-22_17h01.15.763,arrow_simon_punish,2021.1.2,Win32,59.93048064,,,,,,,,,,,,,,,,,,,,,,,,,,,,,,,,,,,,,,
,,,w,1,1.3229,9,2,38,3,1,left.png,,w,right,615224b6fec95dfc43439c28,2021-10-22_17h01.15.763,arrow_simon_punish,2021.1.2,Win32,59.93048064,,,,,,,,,,,,,,,,,,,,,,,,,,,,,,,,,,,,,,
,,,p,1,0.9422,9,3,39,0,1,right.png,,p,left,615224b6fec95dfc43439c28,2021-10-22_17h01.15.763,arrow_simon_punish,2021.1.2,Win32,59.93048064,,,,,,,,,,,,,,,,,,,,,,,,,,,,,,,,,,,,,,
,,,,,,,,,,,,,,,615224b6fec95dfc43439c28,2021-10-22_17h01.15.763,arrow_simon_punish,2021.1.2,Win32,59.93048064,space,0,54.2394,p,2.8836,0,0,0,0,1,,,,,,,,,,,,,,,,,,,,,,,,,,,,
,,,,,,,,,,,,,,,615224b6fec95dfc43439c28,2021-10-22_17h01.15.763,arrow_simon_punish,2021.1.2,Win32,59.93048064,,,,p,2.7364,1,0,1,0,1,,,,,,,,,,,,,,,,,,,,,,,,,,,,
,,,,,,,,,,,,,,,615224b6fec95dfc43439c28,2021-10-22_17h01.15.763,arrow_simon_punish,2021.1.2,Win32,59.93048064,,,,w,2.7357,2,0,2,0,1,,,,,,,,,,,,,,,,,,,,,,,,,,,,
,,,,,,,,,,,,,,,615224b6fec95dfc43439c28,2021-10-22_17h01.15.763,arrow_simon_punish,2021.1.2,Win32,59.93048064,,,,p,2.4518,3,0,3,0,1,,,,,,,,,,,,,,,,,,,,,,,,,,,,
,,,,,,,,,,,,,,,615224b6fec95dfc43439c28,2021-10-22_17h01.15.763,arrow_simon_punish,2021.1.2,Win32,59.93048064,,,,p,2.1762,4,0,4,0,1,,,,,,,,,,,,,,,,,,,,,,,,,,,,
,,,,,,,,,,,,,,,615224b6fec95dfc43439c28,2021-10-22_17h01.15.763,arrow_simon_punish,2021.1.2,Win32,59.93048064,,,,p,2.5009,5,0,5,0,1,,,,,,,,,,,,,,,,,,,,,,,,,,,,
,,,,,,,,,,,,,,,615224b6fec95dfc43439c28,2021-10-22_17h01.15.763,arrow_simon_punish,2021.1.2,Win32,59.93048064,,,,p,2.5027,6,0,6,0,1,,,,,,,,,,,,,,,,,,,,,,,,,,,,
,,,,,,,,,,,,,,,615224b6fec95dfc43439c28,2021-10-22_17h01.15.763,arrow_simon_punish,2021.1.2,Win32,59.93048064,,,,p,2.4738,7,0,7,0,1,,,,,,,,,,,,,,,,,,,,,,,,,,,,
,,,,,,,,,,,,,,,615224b6fec95dfc43439c28,2021-10-22_17h01.15.763,arrow_simon_punish,2021.1.2,Win32,59.93048064,,,,p,2.7543,8,0,8,0,1,,,,,,,,,,,,,,,,,,,,,,,,,,,,
,,,,,,,,,,,,,,,615224b6fec95dfc43439c28,2021-10-22_17h01.15.763,arrow_simon_punish,2021.1.2,Win32,59.93048064,,,,p,2.4413,9,0,9,0,1,,,,,,,,,,,,,,,,,,,,,,,,,,,,
,,,,,,,,,,,,,,,615224b6fec95dfc43439c28,2021-10-22_17h01.15.763,arrow_simon_punish,2021.1.2,Win32,59.93048064,,,,p,2.5537,10,0,10,0,1,,,,,,,,,,,,,,,,,,,,,,,,,,,,
,,,,,,,,,,,,,,,615224b6fec95dfc43439c28,2021-10-22_17h01.15.763,arrow_simon_punish,2021.1.2,Win32,59.93048064,,,,p,2.4765,11,0,11,0,1,,,,,,,,,,,,,,,,,,,,,,,,,,,,
,,,,,,,,,,,,,,,615224b6fec95dfc43439c28,2021-10-22_17h01.15.763,arrow_simon_punish,2021.1.2,Win32,59.93048064,,,,p,2.1516,12,0,12,0,1,,,,,,,,,,,,,,,,,,,,,,,,,,,,
,,,,,,,,,,,,,,,615224b6fec95dfc43439c28,2021-10-22_17h01.15.763,arrow_simon_punish,2021.1.2,Win32,59.93048064,,,,p,2.4519,13,0,13,0,1,,,,,,,,,,,,,,,,,,,,,,,,,,,,
,,,,,,,,,,,,,,,615224b6fec95dfc43439c28,2021-10-22_17h01.15.763,arrow_simon_punish,2021.1.2,Win32,59.93048064,,,,p,2.401,14,0,14,0,1,,,,,,,,,,,,,,,,,,,,,,,,,,,,
,,,,,,,,,,,,,,,615224b6fec95dfc43439c28,2021-10-22_17h01.15.763,arrow_simon_punish,2021.1.2,Win32,59.93048064,,,,p,2.5184,15,0,15,0,1,,,,,,,,,,,,,,,,,,,,,,,,,,,,
,,,,,,,,,,,,,,,615224b6fec95dfc43439c28,2021-10-22_17h01.15.763,arrow_simon_punish,2021.1.2,Win32,59.93048064,,,,p,2.4726,16,0,16,0,1,,,,,,,,,,,,,,,,,,,,,,,,,,,,
,,,,,,,,,,,,,,,615224b6fec95dfc43439c28,2021-10-22_17h01.15.763,arrow_simon_punish,2021.1.2,Win32,59.93048064,,,,p,2.4542,17,0,17,0,1,,,,,,,,,,,,,,,,,,,,,,,,,,,,
,,,,,,,,,,,,,,,615224b6fec95dfc43439c28,2021-10-22_17h01.15.763,arrow_simon_punish,2021.1.2,Win32,59.93048064,,,,p,2.4682,18,0,18,0,1,,,,,,,,,,,,,,,,,,,,,,,,,,,,
,,,,,,,,,,,,,,,615224b6fec95dfc43439c28,2021-10-22_17h01.15.763,arrow_simon_punish,2021.1.2,Win32,59.93048064,,,,p,2.4847,19,0,19,0,1,,,,,,,,,,,,,,,,,,,,,,,,,,,,
,,,,,,,,,,,,,,,615224b6fec95dfc43439c28,2021-10-22_17h01.15.763,arrow_simon_punish,2021.1.2,Win32,59.93048064,,,,p,2.5184,20,0,20,0,1,,,,,,,,,,,,,,,,,,,,,,,,,,,,
,,,,,,,,,,,,,,,615224b6fec95dfc43439c28,2021-10-22_17h01.15.763,arrow_simon_punish,2021.1.2,Win32,59.93048064,,,,p,2.5675,21,0,21,0,1,,,,,,,,,,,,,,,,,,,,,,,,,,,,
,,,,,,,,,,,,,,,615224b6fec95dfc43439c28,2021-10-22_17h01.15.763,arrow_simon_punish,2021.1.2,Win32,59.93048064,,,,p,2.5879,22,0,22,0,1,,,,,,,,,,,,,,,,,,,,,,,,,,,,
,,,,,,,,,,,,,,,615224b6fec95dfc43439c28,2021-10-22_17h01.15.763,arrow_simon_punish,2021.1.2,Win32,59.93048064,,,,p,2.6289,23,0,23,0,1,,,,,,,,,,,,,,,,,,,,,,,,,,,,
,,,,,,,,,,,,,,,615224b6fec95dfc43439c28,2021-10-22_17h01.15.763,arrow_simon_punish,2021.1.2,Win32,59.93048064,,,,p,2.4841,24,0,24,0,1,,,,,,,,,,,,,,,,,,,,,,,,,,,,
,,,,,,,,,,,,,,,615224b6fec95dfc43439c28,2021-10-22_17h01.15.763,arrow_simon_punish,2021.1.2,Win32,59.93048064,,,,p,2.6839,25,0,25,0,1,,,,,,,,,,,,,,,,,,,,,,,,,,,,
,,,,,,,,,,,,,,,615224b6fec95dfc43439c28,2021-10-22_17h01.15.763,arrow_simon_punish,2021.1.2,Win32,59.93048064,,,,p,2.452,26,0,26,0,1,,,,,,,,,,,,,,,,,,,,,,,,,,,,
,,,,,,,,,,,,,,,615224b6fec95dfc43439c28,2021-10-22_17h01.15.763,arrow_simon_punish,2021.1.2,Win32,59.93048064,,,,p,2.5234,27,0,27,0,1,,,,,,,,,,,,,,,,,,,,,,,,,,,,
,,,,,,,,,,,,,,,615224b6fec95dfc43439c28,2021-10-22_17h01.15.763,arrow_simon_punish,2021.1.2,Win32,59.93048064,,,,p,2.459,28,0,28,0,1,,,,,,,,,,,,,,,,,,,,,,,,,,,,
,,,,,,,,,,,,,,,615224b6fec95dfc43439c28,2021-10-22_17h01.15.763,arrow_simon_punish,2021.1.2,Win32,59.93048064,,,,p,2.4885,29,0,29,0,1,,,,,,,,,,,,,,,,,,,,,,,,,,,,
,,,,,,,,,,,,,,,615224b6fec95dfc43439c28,2021-10-22_17h01.15.763,arrow_simon_punish,2021.1.2,Win32,59.93048064,,,,p,2.4672,30,0,30,0,1,,,,,,,,,,,,,,,,,,,,,,,,,,,,
,,,,,,,,,,,,,,,615224b6fec95dfc43439c28,2021-10-22_17h01.15.763,arrow_simon_punish,2021.1.2,Win32,59.93048064,,,,p,2.4443,31,0,31,0,1,,,,,,,,,,,,,,,,,,,,,,,,,,,,
,,,,,,,,,,,,,,,615224b6fec95dfc43439c28,2021-10-22_17h01.15.763,arrow_simon_punish,2021.1.2,Win32,59.93048064,,,,p,2.5336,32,0,32,0,1,,,,,,,,,,,,,,,,,,,,,,,,,,,,
,,,,,,,,,,,,,,,615224b6fec95dfc43439c28,2021-10-22_17h01.15.763,arrow_simon_punish,2021.1.2,Win32,59.93048064,,,,p,2.4731,33,0,33,0,1,,,,,,,,,,,,,,,,,,,,,,,,,,,,
,,,,,,,,,,,,,,,615224b6fec95dfc43439c28,2021-10-22_17h01.15.763,arrow_simon_punish,2021.1.2,Win32,59.93048064,,,,p,2.4862,34,0,34,0,1,,,,,,,,,,,,,,,,,,,,,,,,,,,,
,,,,,,,,,,,,,,,615224b6fec95dfc43439c28,2021-10-22_17h01.15.763,arrow_simon_punish,2021.1.2,Win32,59.93048064,,,,p,2.5138,35,0,35,0,1,,,,,,,,,,,,,,,,,,,,,,,,,,,,
,,,,,,,,,,,,,,,615224b6fec95dfc43439c28,2021-10-22_17h01.15.763,arrow_simon_punish,2021.1.2,Win32,59.93048064,,,,p,2.4697,36,0,36,0,1,,,,,,,,,,,,,,,,,,,,,,,,,,,,
,,,,,,,,,,,,,,,615224b6fec95dfc43439c28,2021-10-22_17h01.15.763,arrow_simon_punish,2021.1.2,Win32,59.93048064,,,,p,2.4852,37,0,37,0,1,,,,,,,,,,,,,,,,,,,,,,,,,,,,
,,,,,,,,,,,,,,,615224b6fec95dfc43439c28,2021-10-22_17h01.15.763,arrow_simon_punish,2021.1.2,Win32,59.93048064,,,,p,2.5174,38,0,38,0,1,,,,,,,,,,,,,,,,,,,,,,,,,,,,
,,,,,,,,,,,,,,,615224b6fec95dfc43439c28,2021-10-22_17h01.15.763,arrow_simon_punish,2021.1.2,Win32,59.93048064,,,,p,2.5177,39,0,39,0,1,,,,,,,,,,,,,,,,,,,,,,,,,,,,
,,,,,,,,,,,,,,,615224b6fec95dfc43439c28,2021-10-22_17h01.15.763,arrow_simon_punish,2021.1.2,Win32,59.93048064,,,,p,2.4762,40,0,40,0,1,,,,,,,,,,,,,,,,,,,,,,,,,,,,
,,,,,,,,,,,,,,,615224b6fec95dfc43439c28,2021-10-22_17h01.15.763,arrow_simon_punish,2021.1.2,Win32,59.93048064,,,,p,2.5767,41,0,41,0,1,,,,,,,,,,,,,,,,,,,,,,,,,,,,
,,,,,,,,,,,,,,,615224b6fec95dfc43439c28,2021-10-22_17h01.15.763,arrow_simon_punish,2021.1.2,Win32,59.93048064,,,,p,2.4837,42,0,42,0,1,,,,,,,,,,,,,,,,,,,,,,,,,,,,
,,,,,,,,,,,,,,,615224b6fec95dfc43439c28,2021-10-22_17h01.15.763,arrow_simon_punish,2021.1.2,Win32,59.93048064,,,,p,2.5341,43,0,43,0,1,,,,,,,,,,,,,,,,,,,,,,,,,,,,
,,,,,,,,,,,,,,,615224b6fec95dfc43439c28,2021-10-22_17h01.15.763,arrow_simon_punish,2021.1.2,Win32,59.93048064,,,,p,2.5776,44,0,44,0,1,,,,,,,,,,,,,,,,,,,,,,,,,,,,
,,,,,,,,,,,,,,,615224b6fec95dfc43439c28,2021-10-22_17h01.15.763,arrow_simon_punish,2021.1.2,Win32,59.93048064,,,,p,2.5763,45,0,45,0,1,,,,,,,,,,,,,,,,,,,,,,,,,,,,
,,,,,,,,,,,,,,,615224b6fec95dfc43439c28,2021-10-22_17h01.15.763,arrow_simon_punish,2021.1.2,Win32,59.93048064,,,,p,2.5764,46,0,46,0,1,,,,,,,,,,,,,,,,,,,,,,,,,,,,
,,,,,,,,,,,,,,,615224b6fec95dfc43439c28,2021-10-22_17h01.15.763,arrow_simon_punish,2021.1.2,Win32,59.93048064,,,,p,2.5504,47,0,47,0,1,,,,,,,,,,,,,,,,,,,,,,,,,,,,
,,,,,,,,,,,,,,,615224b6fec95dfc43439c28,2021-10-22_17h01.15.763,arrow_simon_punish,2021.1.2,Win32,59.93048064,,,,p,2.517,48,0,48,0,1,,,,,,,,,,,,,,,,,,,,,,,,,,,,
,,,,,,,,,,,,,,,615224b6fec95dfc43439c28,2021-10-22_17h01.15.763,arrow_simon_punish,2021.1.2,Win32,59.93048064,,,,p,2.558,49,0,49,0,1,,,,,,,,,,,,,,,,,,,,,,,,,,,,
,,,,,,,,,,,,,,,615224b6fec95dfc43439c28,2021-10-22_17h01.15.763,arrow_simon_punish,2021.1.2,Win32,59.93048064,,,,p,2.6176,50,0,50,0,1,,,,,,,,,,,,,,,,,,,,,,,,,,,,
,,,,,,,,,,,,,,,615224b6fec95dfc43439c28,2021-10-22_17h01.15.763,arrow_simon_punish,2021.1.2,Win32,59.93048064,,,,p,2.5732,51,0,51,0,1,,,,,,,,,,,,,,,,,,,,,,,,,,,,
,,,,,,,,,,,,,,,615224b6fec95dfc43439c28,2021-10-22_17h01.15.763,arrow_simon_punish,2021.1.2,Win32,59.93048064,,,,p,2.5633,52,0,52,0,1,,,,,,,,,,,,,,,,,,,,,,,,,,,,
,,,,,,,,,,,,,,,615224b6fec95dfc43439c28,2021-10-22_17h01.15.763,arrow_simon_punish,2021.1.2,Win32,59.93048064,,,,p,2.5901,53,0,53,0,1,,,,,,,,,,,,,,,,,,,,,,,,,,,,
,,,,,,,,,,,,,,,615224b6fec95dfc43439c28,2021-10-22_17h01.15.763,arrow_simon_punish,2021.1.2,Win32,59.93048064,,,,p,2.4434,54,0,54,0,1,,,,,,,,,,,,,,,,,,,,,,,,,,,,
,,,,,,,,,,,,,,,615224b6fec95dfc43439c28,2021-10-22_17h01.15.763,arrow_simon_punish,2021.1.2,Win32,59.93048064,,,,p,2.4708,55,0,55,0,1,,,,,,,,,,,,,,,,,,,,,,,,,,,,
,,,,,,,,,,,,,,,615224b6fec95dfc43439c28,2021-10-22_17h01.15.763,arrow_simon_punish,2021.1.2,Win32,59.93048064,,,,p,2.468,56,0,56,0,1,,,,,,,,,,,,,,,,,,,,,,,,,,,,
,,,,,,,,,,,,,,,615224b6fec95dfc43439c28,2021-10-22_17h01.15.763,arrow_simon_punish,2021.1.2,Win32,59.93048064,,,,p,2.4848,57,0,57,0,1,,,,,,,,,,,,,,,,,,,,,,,,,,,,
,,,,,,,,,,,,,,,615224b6fec95dfc43439c28,2021-10-22_17h01.15.763,arrow_simon_punish,2021.1.2,Win32,59.93048064,,,,p,2.4853,58,0,58,0,1,,,,,,,,,,,,,,,,,,,,,,,,,,,,
,,,,,,,,,,,,,,,615224b6fec95dfc43439c28,2021-10-22_17h01.15.763,arrow_simon_punish,2021.1.2,Win32,59.93048064,,,,p,2.464,59,0,59,0,1,,,,,,,,,,,,,,,,,,,,,,,,,,,,
,,,,,,,,,,,left.png,,w,left,615224b6fec95dfc43439c28,2021-10-22_17h01.15.763,arrow_simon_punish,2021.1.2,Win32,59.93048064,,,,,,,,,,,space,0,113.2426,p,0,0.3554,2.25446952,1,1,0,0,0,2,1,,,,,,,,,,,,,,
,,,,,,,,,,,left.png,,w,right,615224b6fec95dfc43439c28,2021-10-22_17h01.15.763,arrow_simon_punish,2021.1.2,Win32,59.93048064,,,,,,,,,,,,,,w,1,1.5476,1.859123611,0,1,0,1,1,3,1,,,,,,,,,,,,,,
,,,,,,,,,,,right.png,,p,right,615224b6fec95dfc43439c28,2021-10-22_17h01.15.763,arrow_simon_punish,2021.1.2,Win32,59.93048064,,,,,,,,,,,,,,p,1,1.0361,1.574022111,1,1,0,2,2,1,1,,,,,,,,,,,,,,
,,,,,,,,,,,right.png,,p,left,615224b6fec95dfc43439c28,2021-10-22_17h01.15.763,arrow_simon_punish,2021.1.2,Win32,59.93048064,,,,,,,,,,,,,,w,0,1.2199,1.887666531,1,1,0,3,3,0,1,,,,,,,,,,,,,,
,,,,,,,,,,,right.png,,p,left,615224b6fec95dfc43439c28,2021-10-22_17h01.15.763,arrow_simon_punish,2021.1.2,Win32,59.93048064,,,,,,,,,,,,,,p,1,1.3393,1.924053609,1,1,1,0,4,0,1,,,,,,,,,,,,,,
,,,,,,,,,,,right.png,,p,right,615224b6fec95dfc43439c28,2021-10-22_17h01.15.763,arrow_simon_punish,2021.1.2,Win32,59.93048064,,,,,,,,,,,,,,p,1,1.01,1.517508432,1,1,1,1,5,1,1,,,,,,,,,,,,,,
,,,,,,,,,,,left.png,,w,right,615224b6fec95dfc43439c28,2021-10-22_17h01.15.763,arrow_simon_punish,2021.1.2,Win32,59.93048064,,,,,,,,,,,,,,w,1,1.385,1.509469224,1,1,1,2,6,3,1,,,,,,,,,,,,,,
,,,,,,,,,,,right.png,,p,right,615224b6fec95dfc43439c28,2021-10-22_17h01.15.763,arrow_simon_punish,2021.1.2,Win32,59.93048064,,,,,,,,,,,,,,p,1,1.3862,1.778362327,1,1,1,3,7,1,1,,,,,,,,,,,,,,
,,,,,,,,,,,left.png,,w,right,615224b6fec95dfc43439c28,2021-10-22_17h01.15.763,arrow_simon_punish,2021.1.2,Win32,59.93048064,,,,,,,,,,,,,,p,0,1.8682,2.015716123,1,1,2,0,8,3,1,,,,,,,,,,,,,,
,,,,,,,,,,,right.png,,p,right,615224b6fec95dfc43439c28,2021-10-22_17h01.15.763,arrow_simon_punish,2021.1.2,Win32,59.93048064,,,,,,,,,,,,,,p,1,2.1394,2.018970006,1,1,2,1,9,1,1,,,,,,,,,,,,,,
,,,,,,,,,,,left.png,,w,right,615224b6fec95dfc43439c28,2021-10-22_17h01.15.763,arrow_simon_punish,2021.1.2,Win32,59.93048064,,,,,,,,,,,,,,w,1,1.9014,2.304996283,1,1,2,2,10,3,1,,,,,,,,,,,,,,
,,,,,,,,,,,left.png,,w,left,615224b6fec95dfc43439c28,2021-10-22_17h01.15.763,arrow_simon_punish,2021.1.2,Win32,59.93048064,,,,,,,,,,,,,,w,1,1.4414,1.992950239,0,1,2,3,11,2,1,,,,,,,,,,,,,,
,,,,,,,,,,,right.png,,p,right,615224b6fec95dfc43439c28,2021-10-22_17h01.15.763,arrow_simon_punish,2021.1.2,Win32,59.93048064,,,,,,,,,,,,,,p,1,1.9227,1.506656774,1,1,3,0,12,1,1,,,,,,,,,,,,,,
,,,,,,,,,,,left.png,,w,left,615224b6fec95dfc43439c28,2021-10-22_17h01.15.763,arrow_simon_punish,2021.1.2,Win32,59.93048064,,,,,,,,,,,,,,w,1,1.3181,1.824994521,1,1,3,1,13,2,1,,,,,,,,,,,,,,
,,,,,,,,,,,left.png,,w,right,615224b6fec95dfc43439c28,2021-10-22_17h01.15.763,arrow_simon_punish,2021.1.2,Win32,59.93048064,,,,,,,,,,,,,,w,1,2.1671,2.407466592,1,1,3,2,14,3,1,,,,,,,,,,,,,,
,,,,,,,,,,,right.png,,p,left,615224b6fec95dfc43439c28,2021-10-22_17h01.15.763,arrow_simon_punish,2021.1.2,Win32,59.93048064,,,,,,,,,,,,,,w,0,1.6182,2.208409415,1,1,3,3,15,0,1,,,,,,,,,,,,,,
,,,,,,,,,,,right.png,,p,left,615224b6fec95dfc43439c28,2021-10-22_17h01.15.763,arrow_simon_punish,2021.1.2,Win32,59.93048064,,,,,,,,,,,,,,p,1,1.4225,1.798318561,0,1,4,0,16,0,1,,,,,,,,,,,,,,
,,,,,,,,,,,left.png,,w,right,615224b6fec95dfc43439c28,2021-10-22_17h01.15.763,arrow_simon_punish,2021.1.2,Win32,59.93048064,,,,,,,,,,,,,,w,1,1.6705,2.213896756,1,1,4,1,17,3,1,,,,,,,,,,,,,,
,,,,,,,,,,,right.png,,p,left,615224b6fec95dfc43439c28,2021-10-22_17h01.15.763,arrow_simon_punish,2021.1.2,Win32,59.93048064,,,,,,,,,,,,,,p,1,1.8521,2.235225778,1,1,4,2,18,0,1,,,,,,,,,,,,,,
,,,,,,,,,,,left.png,,w,right,615224b6fec95dfc43439c28,2021-10-22_17h01.15.763,arrow_simon_punish,2021.1.2,Win32,59.93048064,,,,,,,,,,,,,,w,1,1.4152,1.777564261,0,1,4,3,19,3,1,,,,,,,,,,,,,,
,,,,,,,,,,,left.png,,w,right,615224b6fec95dfc43439c28,2021-10-22_17h01.15.763,arrow_simon_punish,2021.1.2,Win32,59.93048064,,,,,,,,,,,,,,w,1,2.0655,1.743899797,1,1,5,0,20,3,1,,,,,,,,,,,,,,
,,,,,,,,,,,left.png,,w,right,615224b6fec95dfc43439c28,2021-10-22_17h01.15.763,arrow_simon_punish,2021.1.2,Win32,59.93048064,,,,,,,,,,,,,,w,1,1.9421,1.894224488,1,1,5,1,21,3,1,,,,,,,,,,,,,,
,,,,,,,,,,,right.png,,p,left,615224b6fec95dfc43439c28,2021-10-22_17h01.15.763,arrow_simon_punish,2021.1.2,Win32,59.93048064,,,,,,,,,,,,,,p,1,1.3178,1.718213194,1,1,5,2,22,0,1,,,,,,,,,,,,,,
,,,,,,,,,,,right.png,,p,left,615224b6fec95dfc43439c28,2021-10-22_17h01.15.763,arrow_simon_punish,2021.1.2,Win32,59.93048064,,,,,,,,,,,,,,p,1,1.9531,2.482301358,1,1,5,3,23,0,1,,,,,,,,,,,,,,
,,,,,,,,,,,left.png,,w,right,615224b6fec95dfc43439c28,2021-10-22_17h01.15.763,arrow_simon_punish,2021.1.2,Win32,59.93048064,,,,,,,,,,,,,,w,1,1.8008,2.095874651,1,1,6,0,24,3,1,,,,,,,,,,,,,,
,,,,,,,,,,,left.png,,w,left,615224b6fec95dfc43439c28,2021-10-22_17h01.15.763,arrow_simon_punish,2021.1.2,Win32,59.93048064,,,,,,,,,,,,,,w,1,1.6348,2.26816987,1,1,6,1,25,2,1,,,,,,,,,,,,,,
,,,,,,,,,,,left.png,,w,right,615224b6fec95dfc43439c28,2021-10-22_17h01.15.763,arrow_simon_punish,2021.1.2,Win32,59.93048064,,,,,,,,,,,,,,p,0,1.524,1.979709094,1,1,6,2,26,3,1,,,,,,,,,,,,,,
,,,,,,,,,,,right.png,,p,left,615224b6fec95dfc43439c28,2021-10-22_17h01.15.763,arrow_simon_punish,2021.1.2,Win32,59.93048064,,,,,,,,,,,,,,p,1,1.6186,2.10188063,1,1,6,3,27,0,1,,,,,,,,,,,,,,
,,,,,,,,,,,right.png,,p,right,615224b6fec95dfc43439c28,2021-10-22_17h01.15.763,arrow_simon_punish,2021.1.2,Win32,59.93048064,,,,,,,,,,,,,,w,0,1.2555,1.836004327,1,1,7,0,28,1,1,,,,,,,,,,,,,,
,,,,,,,,,,,right.png,,p,left,615224b6fec95dfc43439c28,2021-10-22_17h01.15.763,arrow_simon_punish,2021.1.2,Win32,59.93048064,,,,,,,,,,,,,,w,0,1.7724,2.215793101,1,1,7,1,29,0,1,,,,,,,,,,,,,,
,,,,,,,,,,,right.png,,p,right,615224b6fec95dfc43439c28,2021-10-22_17h01.15.763,arrow_simon_punish,2021.1.2,Win32,59.93048064,,,,,,,,,,,,,,p,1,1.8072,2.220789949,1,1,7,2,30,1,1,,,,,,,,,,,,,,
,,,,,,,,,,,right.png,,p,right,615224b6fec95dfc43439c28,2021-10-22_17h01.15.763,arrow_simon_punish,2021.1.2,Win32,59.93048064,,,,,,,,,,,,,,p,1,1.7213,1.850059956,1,1,7,3,31,1,1,,,,,,,,,,,,,,
,,,,,,,,,,,right.png,,p,right,615224b6fec95dfc43439c28,2021-10-22_17h01.15.763,arrow_simon_punish,2021.1.2,Win32,59.93048064,,,,,,,,,,,,,,p,1,1.4855,2.063769419,0,1,8,0,32,1,1,,,,,,,,,,,,,,
,,,,,,,,,,,right.png,,p,right,615224b6fec95dfc43439c28,2021-10-22_17h01.15.763,arrow_simon_punish,2021.1.2,Win32,59.93048064,,,,,,,,,,,,,,p,1,1.6847,2.185099323,1,1,8,1,33,1,1,,,,,,,,,,,,,,
,,,,,,,,,,,left.png,,w,left,615224b6fec95dfc43439c28,2021-10-22_17h01.15.763,arrow_simon_punish,2021.1.2,Win32,59.93048064,,,,,,,,,,,,,,w,1,1.5788,2.256648145,0,1,8,2,34,2,1,,,,,,,,,,,,,,
,,,,,,,,,,,right.png,,p,left,615224b6fec95dfc43439c28,2021-10-22_17h01.15.763,arrow_simon_punish,2021.1.2,Win32,59.93048064,,,,,,,,,,,,,,p,1,1.3177,2.160164122,1,1,8,3,35,0,1,,,,,,,,,,,,,,
,,,,,,,,,,,left.png,,w,left,615224b6fec95dfc43439c28,2021-10-22_17h01.15.763,arrow_simon_punish,2021.1.2,Win32,59.93048064,,,,,,,,,,,,,,w,1,1.3371,1.917620986,1,1,9,0,36,2,1,,,,,,,,,,,,,,
,,,,,,,,,,,left.png,,w,right,615224b6fec95dfc43439c28,2021-10-22_17h01.15.763,arrow_simon_punish,2021.1.2,Win32,59.93048064,,,,,,,,,,,,,,w,1,1.7868,1.851333801,1,1,9,1,37,3,1,,,,,,,,,,,,,,
,,,,,,,,,,,right.png,,p,left,615224b6fec95dfc43439c28,2021-10-22_17h01.15.763,arrow_simon_punish,2021.1.2,Win32,59.93048064,,,,,,,,,,,,,,p,1,1.5119,2.165667464,0,1,9,2,38,0,1,,,,,,,,,,,,,,
,,,,,,,,,,,left.png,,w,left,615224b6fec95dfc43439c28,2021-10-22_17h01.15.763,arrow_simon_punish,2021.1.2,Win32,59.93048064,,,,,,,,,,,,,,w,1,1.0664,1.577716193,1,1,9,3,39,2,1,,,,,,,,,,,,,,
,,,,,,,,,,,left.png,,w,left,615224b6fec95dfc43439c28,2021-10-22_17h01.15.763,arrow_simon_punish,2021.1.2,Win32,59.93048064,,,,,,,,,,,,,,w,1,1.7194,1.730823015,1,1,10,0,40,2,1,,,,,,,,,,,,,,
,,,,,,,,,,,right.png,,p,right,615224b6fec95dfc43439c28,2021-10-22_17h01.15.763,arrow_simon_punish,2021.1.2,Win32,59.93048064,,,,,,,,,,,,,,p,1,1.7072,1.98409635,1,1,10,1,41,1,1,,,,,,,,,,,,,,
,,,,,,,,,,,left.png,,w,left,615224b6fec95dfc43439c28,2021-10-22_17h01.15.763,arrow_simon_punish,2021.1.2,Win32,59.93048064,,,,,,,,,,,,,,w,1,1.2598,1.745343905,1,1,10,2,42,2,1,,,,,,,,,,,,,,
,,,,,,,,,,,right.png,,p,left,615224b6fec95dfc43439c28,2021-10-22_17h01.15.763,arrow_simon_punish,2021.1.2,Win32,59.93048064,,,,,,,,,,,,,,p,1,1.8399,2.087043906,1,1,10,3,43,0,1,,,,,,,,,,,,,,
,,,,,,,,,,,left.png,,w,right,615224b6fec95dfc43439c28,2021-10-22_17h01.15.763,arrow_simon_punish,2021.1.2,Win32,59.93048064,,,,,,,,,,,,,,w,1,1.7088,1.559051883,1,1,11,0,44,3,1,,,,,,,,,,,,,,
,,,,,,,,,,,left.png,,w,left,615224b6fec95dfc43439c28,2021-10-22_17h01.15.763,arrow_simon_punish,2021.1.2,Win32,59.93048064,,,,,,,,,,,,,,w,1,1.644,1.779813689,1,1,11,1,45,2,1,,,,,,,,,,,,,,
,,,,,,,,,,,right.png,,p,right,615224b6fec95dfc43439c28,2021-10-22_17h01.15.763,arrow_simon_punish,2021.1.2,Win32,59.93048064,,,,,,,,,,,,,,p,1,1.6335,2.418961452,1,1,11,2,46,1,1,,,,,,,,,,,,,,
,,,,,,,,,,,right.png,,p,left,615224b6fec95dfc43439c28,2021-10-22_17h01.15.763,arrow_simon_punish,2021.1.2,Win32,59.93048064,,,,,,,,,,,,,,p,1,1.4777,1.670844042,0,1,11,3,47,0,1,,,,,,,,,,,,,,
,,,,,,,,,,,left.png,,w,left,615224b6fec95dfc43439c28,2021-10-22_17h01.15.763,arrow_simon_punish,2021.1.2,Win32,59.93048064,,,,,,,,,,,,,,w,1,1.75,2.020691618,1,1,12,0,48,2,1,,,,,,,,,,,,,,
,,,,,,,,,,,left.png,,w,left,615224b6fec95dfc43439c28,2021-10-22_17h01.15.763,arrow_simon_punish,2021.1.2,Win32,59.93048064,,,,,,,,,,,,,,p,0,1.6014,2.246582888,1,1,12,1,49,2,1,,,,,,,,,,,,,,
,,,,,,,,,,,right.png,,p,left,615224b6fec95dfc43439c28,2021-10-22_17h01.15.763,arrow_simon_punish,2021.1.2,Win32,59.93048064,,,,,,,,,,,,,,p,1,1.6728,1.671300449,1,1,12,2,50,0,1,,,,,,,,,,,,,,
,,,,,,,,,,,right.png,,p,right,615224b6fec95dfc43439c28,2021-10-22_17h01.15.763,arrow_simon_punish,2021.1.2,Win32,59.93048064,,,,,,,,,,,,,,w,0,1.7516,2.389466904,1,1,12,3,51,1,1,,,,,,,,,,,,,,
,,,,,,,,,,,left.png,,w,left,615224b6fec95dfc43439c28,2021-10-22_17h01.15.763,arrow_simon_punish,2021.1.2,Win32,59.93048064,,,,,,,,,,,,,,w,1,1.8971,2.492083944,1,1,13,0,52,2,1,,,,,,,,,,,,,,
,,,,,,,,,,,right.png,,p,right,615224b6fec95dfc43439c28,2021-10-22_17h01.15.763,arrow_simon_punish,2021.1.2,Win32,59.93048064,,,,,,,,,,,,,,p,1,1.661,1.818642697,1,1,13,1,53,1,1,,,,,,,,,,,,,,
,,,,,,,,,,,left.png,,w,right,615224b6fec95dfc43439c28,2021-10-22_17h01.15.763,arrow_simon_punish,2021.1.2,Win32,59.93048064,,,,,,,,,,,,,,p,0,1.6692,2.283431106,1,1,13,2,54,3,1,,,,,,,,,,,,,,
,,,,,,,,,,,right.png,,p,right,615224b6fec95dfc43439c28,2021-10-22_17h01.15.763,arrow_simon_punish,2021.1.2,Win32,59.93048064,,,,,,,,,,,,,,p,1,1.7513,2.31587019,1,1,13,3,55,1,1,,,,,,,,,,,,,,
,,,,,,,,,,,right.png,,p,left,615224b6fec95dfc43439c28,2021-10-22_17h01.15.763,arrow_simon_punish,2021.1.2,Win32,59.93048064,,,,,,,,,,,,,,p,1,1.7676,2.043102987,1,1,14,0,56,0,1,,,,,,,,,,,,,,
,,,,,,,,,,,left.png,,w,left,615224b6fec95dfc43439c28,2021-10-22_17h01.15.763,arrow_simon_punish,2021.1.2,Win32,59.93048064,,,,,,,,,,,,,,w,1,1.6418,1.619200991,1,1,14,1,57,2,1,,,,,,,,,,,,,,
,,,,,,,,,,,left.png,,w,right,615224b6fec95dfc43439c28,2021-10-22_17h01.15.763,arrow_simon_punish,2021.1.2,Win32,59.93048064,,,,,,,,,,,,,,w,1,1.6585,1.528761398,1,1,14,2,58,3,1,,,,,,,,,,,,,,
,,,,,,,,,,,left.png,,w,left,615224b6fec95dfc43439c28,2021-10-22_17h01.15.763,arrow_simon_punish,2021.1.2,Win32,59.93048064,,,,,,,,,,,,,,p,0,1.7077,2.356279559,1,1,14,3,59,2,1,,,,,,,,,,,,,,
,,,,,,,,,,,,,,,615224b6fec95dfc43439c28,2021-10-22_17h01.15.763,arrow_simon_punish,2021.1.2,Win32,59.93048064,,,,,,,,,,,,,,,,,,,,,,,,,space,14.5725,2,0,0,0,0,1,1,,,,,
,,,,,,,,,,,right.png,,p,right,615224b6fec95dfc43439c28,2021-10-22_17h01.15.763,arrow_simon_punish,2021.1.2,Win32,59.93048064,,,,,,,,,,,,,,p,1,2.8584,2.376994962,1,5,0,0,0,1,1,,,,,,,,,,,,,,
,,,,,,,,,,,right.png,,p,right,615224b6fec95dfc43439c28,2021-10-22_17h01.15.763,arrow_simon_punish,2021.1.2,Win32,59.93048064,,,,,,,,,,,,,,p,1,1.3299,1.802471206,1,5,0,1,1,1,1,,,,,,,,,,,,,,
,,,,,,,,,,,right.png,,p,left,615224b6fec95dfc43439c28,2021-10-22_17h01.15.763,arrow_simon_punish,2021.1.2,Win32,59.93048064,,,,,,,,,,,,,,w,0,1.2139,1.684927265,1,5,0,2,2,0,1,,,,,,,,,,,,,,
,,,,,,,,,,,left.png,,w,right,615224b6fec95dfc43439c28,2021-10-22_17h01.15.763,arrow_simon_punish,2021.1.2,Win32,59.93048064,,,,,,,,,,,,,,w,1,1.9186,2.41837374,1,5,0,3,3,3,1,,,,,,,,,,,,,,
,,,,,,,,,,,left.png,,w,right,615224b6fec95dfc43439c28,2021-10-22_17h01.15.763,arrow_simon_punish,2021.1.2,Win32,59.93048064,,,,,,,,,,,,,,w,1,1.8372,1.901380686,1,5,1,0,4,3,1,,,,,,,,,,,,,,
,,,,,,,,,,,right.png,,p,right,615224b6fec95dfc43439c28,2021-10-22_17h01.15.763,arrow_simon_punish,2021.1.2,Win32,59.93048064,,,,,,,,,,,,,,p,1,1.8711,2.407341847,1,5,1,1,5,1,1,,,,,,,,,,,,,,
,,,,,,,,,,,left.png,,w,left,615224b6fec95dfc43439c28,2021-10-22_17h01.15.763,arrow_simon_punish,2021.1.2,Win32,59.93048064,,,,,,,,,,,,,,w,1,1.7513,1.839871694,1,5,1,2,6,2,1,,,,,,,,,,,,,,
,,,,,,,,,,,left.png,,w,right,615224b6fec95dfc43439c28,2021-10-22_17h01.15.763,arrow_simon_punish,2021.1.2,Win32,59.93048064,,,,,,,,,,,,,,p,0,1.3257,1.953424645,1,5,1,3,7,3,1,,,,,,,,,,,,,,
,,,,,,,,,,,left.png,,w,left,615224b6fec95dfc43439c28,2021-10-22_17h01.15.763,arrow_simon_punish,2021.1.2,Win32,59.93048064,,,,,,,,,,,,,,w,1,2.0443,2.445440247,1,5,2,0,8,2,1,,,,,,,,,,,,,,
,,,,,,,,,,,right.png,,p,left,615224b6fec95dfc43439c28,2021-10-22_17h01.15.763,arrow_simon_punish,2021.1.2,Win32,59.93048064,,,,,,,,,,,,,,p,1,1.6162,1.660120975,1,5,2,1,9,0,1,,,,,,,,,,,,,,
,,,,,,,,,,,left.png,,w,right,615224b6fec95dfc43439c28,2021-10-22_17h01.15.763,arrow_simon_punish,2021.1.2,Win32,59.93048064,,,,,,,,,,,,,,w,1,1.651,1.809969739,1,5,2,2,10,3,1,,,,,,,,,,,,,,
,,,,,,,,,,,left.png,,w,left,615224b6fec95dfc43439c28,2021-10-22_17h01.15.763,arrow_simon_punish,2021.1.2,Win32,59.93048064,,,,,,,,,,,,,,w,1,1.6513,1.570104409,1,5,2,3,11,2,1,,,,,,,,,,,,,,
,,,,,,,,,,,left.png,,w,left,615224b6fec95dfc43439c28,2021-10-22_17h01.15.763,arrow_simon_punish,2021.1.2,Win32,59.93048064,,,,,,,,,,,,,,w,1,1.9026,2.088854598,1,5,3,0,12,2,1,,,,,,,,,,,,,,
,,,,,,,,,,,right.png,,p,left,615224b6fec95dfc43439c28,2021-10-22_17h01.15.763,arrow_simon_punish,2021.1.2,Win32,59.93048064,,,,,,,,,,,,,,p,1,1.8515,2.109184871,1,5,3,1,13,0,1,,,,,,,,,,,,,,
,,,,,,,,,,,left.png,,w,right,615224b6fec95dfc43439c28,2021-10-22_17h01.15.763,arrow_simon_punish,2021.1.2,Win32,59.93048064,,,,,,,,,,,,,,w,1,1.5843,1.58495553,0,5,3,2,14,3,1,,,,,,,,,,,,,,
,,,,,,,,,,,left.png,,w,right,615224b6fec95dfc43439c28,2021-10-22_17h01.15.763,arrow_simon_punish,2021.1.2,Win32,59.93048064,,,,,,,,,,,,,,p,0,1.4816,2.138468487,1,5,3,3,15,3,1,,,,,,,,,,,,,,
,,,,,,,,,,,right.png,,p,right,615224b6fec95dfc43439c28,2021-10-22_17h01.15.763,arrow_simon_punish,2021.1.2,Win32,59.93048064,,,,,,,,,,,,,,w,0,1.481,2.470043789,1,5,4,0,16,1,1,,,,,,,,,,,,,,
,,,,,,,,,,,left.png,,w,left,615224b6fec95dfc43439c28,2021-10-22_17h01.15.763,arrow_simon_punish,2021.1.2,Win32,59.93048064,,,,,,,,,,,,,,w,1,1.6246,1.830507875,1,5,4,1,17,2,1,,,,,,,,,,,,,,
,,,,,,,,,,,left.png,,w,left,615224b6fec95dfc43439c28,2021-10-22_17h01.15.763,arrow_simon_punish,2021.1.2,Win32,59.93048064,,,,,,,,,,,,,,w,1,1.6848,1.922840736,1,5,4,2,18,2,1,,,,,,,,,,,,,,
,,,,,,,,,,,right.png,,p,left,615224b6fec95dfc43439c28,2021-10-22_17h01.15.763,arrow_simon_punish,2021.1.2,Win32,59.93048064,,,,,,,,,,,,,,p,1,1.68,1.714897088,1,5,4,3,19,0,1,,,,,,,,,,,,,,
,,,,,,,,,,,right.png,,p,left,615224b6fec95dfc43439c28,2021-10-22_17h01.15.763,arrow_simon_punish,2021.1.2,Win32,59.93048064,,,,,,,,,,,,,,p,1,1.3933,1.609891878,1,5,5,0,20,0,1,,,,,,,,,,,,,,
,,,,,,,,,,,right.png,,p,right,615224b6fec95dfc43439c28,2021-10-22_17h01.15.763,arrow_simon_punish,2021.1.2,Win32,59.93048064,,,,,,,,,,,,,,p,1,2.0178,2.216060189,1,5,5,1,21,1,1,,,,,,,,,,,,,,
,,,,,,,,,,,right.png,,p,right,615224b6fec95dfc43439c28,2021-10-22_17h01.15.763,arrow_simon_punish,2021.1.2,Win32,59.93048064,,,,,,,,,,,,,,p,1,1.7347,2.36719474,1,5,5,2,22,1,1,,,,,,,,,,,,,,
,,,,,,,,,,,left.png,,w,right,615224b6fec95dfc43439c28,2021-10-22_17h01.15.763,arrow_simon_punish,2021.1.2,Win32,59.93048064,,,,,,,,,,,,,,p,0,1.833,2.487213832,1,5,5,3,23,3,1,,,,,,,,,,,,,,
,,,,,,,,,,,left.png,,w,right,615224b6fec95dfc43439c28,2021-10-22_17h01.15.763,arrow_simon_punish,2021.1.2,Win32,59.93048064,,,,,,,,,,,,,,w,1,1.9414,2.067382242,1,5,6,0,24,3,1,,,,,,,,,,,,,,
,,,,,,,,,,,right.png,,p,left,615224b6fec95dfc43439c28,2021-10-22_17h01.15.763,arrow_simon_punish,2021.1.2,Win32,59.93048064,,,,,,,,,,,,,,p,1,1.6627,1.85072607,1,5,6,1,25,0,1,,,,,,,,,,,,,,
,,,,,,,,,,,left.png,,w,right,615224b6fec95dfc43439c28,2021-10-22_17h01.15.763,arrow_simon_punish,2021.1.2,Win32,59.93048064,,,,,,,,,,,,,,w,1,1.7507,2.360848284,1,5,6,2,26,3,1,,,,,,,,,,,,,,
,,,,,,,,,,,right.png,,p,right,615224b6fec95dfc43439c28,2021-10-22_17h01.15.763,arrow_simon_punish,2021.1.2,Win32,59.93048064,,,,,,,,,,,,,,p,1,1.7852,1.882038021,1,5,6,3,27,1,1,,,,,,,,,,,,,,
,,,,,,,,,,,right.png,,p,right,615224b6fec95dfc43439c28,2021-10-22_17h01.15.763,arrow_simon_punish,2021.1.2,Win32,59.93048064,,,,,,,,,,,,,,p,1,1.7972,2.290459261,1,5,7,0,28,1,1,,,,,,,,,,,,,,
,,,,,,,,,,,left.png,,w,right,615224b6fec95dfc43439c28,2021-10-22_17h01.15.763,arrow_simon_punish,2021.1.2,Win32,59.93048064,,,,,,,,,,,,,,w,1,1.7414,2.08972965,1,5,7,1,29,3,1,,,,,,,,,,,,,,
,,,,,,,,,,,right.png,,p,left,615224b6fec95dfc43439c28,2021-10-22_17h01.15.763,arrow_simon_punish,2021.1.2,Win32,59.93048064,,,,,,,,,,,,,,p,1,1.6037,1.71216336,1,5,7,2,30,0,1,,,,,,,,,,,,,,
,,,,,,,,,,,right.png,,p,left,615224b6fec95dfc43439c28,2021-10-22_17h01.15.763,arrow_simon_punish,2021.1.2,Win32,59.93048064,,,,,,,,,,,,,,p,1,1.7688,1.507104341,1,5,7,3,31,0,1,,,,,,,,,,,,,,
,,,,,,,,,,,left.png,,w,right,615224b6fec95dfc43439c28,2021-10-22_17h01.15.763,arrow_simon_punish,2021.1.2,Win32,59.93048064,,,,,,,,,,,,,,p,0,1.6281,2.373991181,1,5,8,0,32,3,1,,,,,,,,,,,,,,
,,,,,,,,,,,left.png,,w,right,615224b6fec95dfc43439c28,2021-10-22_17h01.15.763,arrow_simon_punish,2021.1.2,Win32,59.93048064,,,,,,,,,,,,,,w,1,1.6681,2.413477707,1,5,8,1,33,3,1,,,,,,,,,,,,,,
,,,,,,,,,,,left.png,,w,right,615224b6fec95dfc43439c28,2021-10-22_17h01.15.763,arrow_simon_punish,2021.1.2,Win32,59.93048064,,,,,,,,,,,,,,w,1,1.869,2.294939286,1,5,8,2,34,3,1,,,,,,,,,,,,,,
,,,,,,,,,,,right.png,,p,right,615224b6fec95dfc43439c28,2021-10-22_17h01.15.763,arrow_simon_punish,2021.1.2,Win32,59.93048064,,,,,,,,,,,,,,p,1,1.6168,2.143535141,1,5,8,3,35,1,1,,,,,,,,,,,,,,
,,,,,,,,,,,left.png,,w,left,615224b6fec95dfc43439c28,2021-10-22_17h01.15.763,arrow_simon_punish,2021.1.2,Win32,59.93048064,,,,,,,,,,,,,,w,1,1.6072,2.279358728,1,5,9,0,36,2,1,,,,,,,,,,,,,,
,,,,,,,,,,,right.png,,p,right,615224b6fec95dfc43439c28,2021-10-22_17h01.15.763,arrow_simon_punish,2021.1.2,Win32,59.93048064,,,,,,,,,,,,,,p,1,1.7848,1.797580565,1,5,9,1,37,1,1,,,,,,,,,,,,,,
,,,,,,,,,,,left.png,,w,left,615224b6fec95dfc43439c28,2021-10-22_17h01.15.763,arrow_simon_punish,2021.1.2,Win32,59.93048064,,,,,,,,,,,,,,w,1,1.7513,1.820304245,1,5,9,2,38,2,1,,,,,,,,,,,,,,
,,,,,,,,,,,right.png,,p,right,615224b6fec95dfc43439c28,2021-10-22_17h01.15.763,arrow_simon_punish,2021.1.2,Win32,59.93048064,,,,,,,,,,,,,,p,1,1.3031,1.803977146,1,5,9,3,39,1,1,,,,,,,,,,,,,,
,,,,,,,,,,,right.png,,p,left,615224b6fec95dfc43439c28,2021-10-22_17h01.15.763,arrow_simon_punish,2021.1.2,Win32,59.93048064,,,,,,,,,,,,,,w,0,1.5294,1.709135438,1,5,10,0,40,0,1,,,,,,,,,,,,,,
,,,,,,,,,,,right.png,,p,right,615224b6fec95dfc43439c28,2021-10-22_17h01.15.763,arrow_simon_punish,2021.1.2,Win32,59.93048064,,,,,,,,,,,,,,p,1,1.5197,2.150751507,0,5,10,1,41,1,1,,,,,,,,,,,,,,
,,,,,,,,,,,right.png,,p,left,615224b6fec95dfc43439c28,2021-10-22_17h01.15.763,arrow_simon_punish,2021.1.2,Win32,59.93048064,,,,,,,,,,,,,,p,1,1.9237,2.194211608,1,5,10,2,42,0,1,,,,,,,,,,,,,,
,,,,,,,,,,,left.png,,w,right,615224b6fec95dfc43439c28,2021-10-22_17h01.15.763,arrow_simon_punish,2021.1.2,Win32,59.93048064,,,,,,,,,,,,,,w,1,1.6512,2.289281737,1,5,10,3,43,3,1,,,,,,,,,,,,,,
,,,,,,,,,,,right.png,,p,left,615224b6fec95dfc43439c28,2021-10-22_17h01.15.763,arrow_simon_punish,2021.1.2,Win32,59.93048064,,,,,,,,,,,,,,p,1,1.7059,2.034018841,1,5,11,0,44,0,1,,,,,,,,,,,,,,
,,,,,,,,,,,left.png,,w,left,615224b6fec95dfc43439c28,2021-10-22_17h01.15.763,arrow_simon_punish,2021.1.2,Win32,59.93048064,,,,,,,,,,,,,,w,1,1.6518,2.252013841,1,5,11,1,45,2,1,,,,,,,,,,,,,,
,,,,,,,,,,,right.png,,p,left,615224b6fec95dfc43439c28,2021-10-22_17h01.15.763,arrow_simon_punish,2021.1.2,Win32,59.93048064,,,,,,,,,,,,,,p,1,1.7007,2.327725754,1,5,11,2,46,0,1,,,,,,,,,,,,,,
,,,,,,,,,,,left.png,,w,left,615224b6fec95dfc43439c28,2021-10-22_17h01.15.763,arrow_simon_punish,2021.1.2,Win32,59.93048064,,,,,,,,,,,,,,w,1,1.735,1.680743594,1,5,11,3,47,2,1,,,,,,,,,,,,,,
,,,,,,,,,,,right.png,,p,left,615224b6fec95dfc43439c28,2021-10-22_17h01.15.763,arrow_simon_punish,2021.1.2,Win32,59.93048064,,,,,,,,,,,,,,p,1,1.3614,1.725781776,1,5,12,0,48,0,1,,,,,,,,,,,,,,
,,,,,,,,,,,left.png,,w,left,615224b6fec95dfc43439c28,2021-10-22_17h01.15.763,arrow_simon_punish,2021.1.2,Win32,59.93048064,,,,,,,,,,,,,,w,1,1.7,2.361410521,1,5,12,1,49,2,1,,,,,,,,,,,,,,
,,,,,,,,,,,left.png,,w,right,615224b6fec95dfc43439c28,2021-10-22_17h01.15.763,arrow_simon_punish,2021.1.2,Win32,59.93048064,,,,,,,,,,,,,,w,1,2.0586,2.485910489,1,5,12,2,50,3,1,,,,,,,,,,,,,,
,,,,,,,,,,,right.png,,p,right,615224b6fec95dfc43439c28,2021-10-22_17h01.15.763,arrow_simon_punish,2021.1.2,Win32,59.93048064,,,,,,,,,,,,,,p,1,1.8642,2.087019213,1,5,12,3,51,1,1,,,,,,,,,,,,,,
,,,,,,,,,,,right.png,,p,right,615224b6fec95dfc43439c28,2021-10-22_17h01.15.763,arrow_simon_punish,2021.1.2,Win32,59.93048064,,,,,,,,,,,,,,w,0,1.5413,2.141684294,1,5,13,0,52,1,1,,,,,,,,,,,,,,
,,,,,,,,,,,left.png,,w,left,615224b6fec95dfc43439c28,2021-10-22_17h01.15.763,arrow_simon_punish,2021.1.2,Win32,59.93048064,,,,,,,,,,,,,,w,1,1.6161,2.248553581,1,5,13,1,53,2,1,,,,,,,,,,,,,,
,,,,,,,,,,,left.png,,w,left,615224b6fec95dfc43439c28,2021-10-22_17h01.15.763,arrow_simon_punish,2021.1.2,Win32,59.93048064,,,,,,,,,,,,,,w,1,1.4598,1.753061516,0,5,13,2,54,2,1,,,,,,,,,,,,,,
,,,,,,,,,,,right.png,,p,right,615224b6fec95dfc43439c28,2021-10-22_17h01.15.763,arrow_simon_punish,2021.1.2,Win32,59.93048064,,,,,,,,,,,,,,p,1,1.369,1.525425135,1,5,13,3,55,1,1,,,,,,,,,,,,,,
,,,,,,,,,,,right.png,,p,left,615224b6fec95dfc43439c28,2021-10-22_17h01.15.763,arrow_simon_punish,2021.1.2,Win32,59.93048064,,,,,,,,,,,,,,p,1,1.6513,1.879997461,1,5,14,0,56,0,1,,,,,,,,,,,,,,
,,,,,,,,,,,right.png,,p,left,615224b6fec95dfc43439c28,2021-10-22_17h01.15.763,arrow_simon_punish,2021.1.2,Win32,59.93048064,,,,,,,,,,,,,,p,1,1.662,1.803963747,1,5,14,1,57,0,1,,,,,,,,,,,,,,
,,,,,,,,,,,left.png,,w,left,615224b6fec95dfc43439c28,2021-10-22_17h01.15.763,arrow_simon_punish,2021.1.2,Win32,59.93048064,,,,,,,,,,,,,,w,1,1.8696,1.630949283,1,5,14,2,58,2,1,,,,,,,,,,,,,,
,,,,,,,,,,,left.png,,w,left,615224b6fec95dfc43439c28,2021-10-22_17h01.15.763,arrow_simon_punish,2021.1.2,Win32,59.93048064,,,,,,,,,,,,,,w,1,1.9691,2.295841964,1,5,14,3,59,2,1,,,,,,,,,,,,,,
,,,,,,,,,,,,,,,615224b6fec95dfc43439c28,2021-10-22_17h01.15.763,arrow_simon_punish,2021.1.2,Win32,59.93048064,,,,,,,,,,,,,,,,,,,,,,,,,space,15.9966,3,0,1,1,1,1,5,,,,,
,,,,,,,,,,,right.png,,p,right,615224b6fec95dfc43439c28,2021-10-22_17h01.15.763,arrow_simon_punish,2021.1.2,Win32,59.93048064,,,,,,,,,,,,,,p,1,1.2539,1.571370201,1,1,0,0,0,1,1,,,,,,,,,,,,,,
,,,,,,,,,,,left.png,,w,left,615224b6fec95dfc43439c28,2021-10-22_17h01.15.763,arrow_simon_punish,2021.1.2,Win32,59.93048064,,,,,,,,,,,,,,w,1,0.9685,1.614851209,1,1,0,1,1,2,1,,,,,,,,,,,,,,
,,,,,,,,,,,left.png,,w,right,615224b6fec95dfc43439c28,2021-10-22_17h01.15.763,arrow_simon_punish,2021.1.2,Win32,59.93048064,,,,,,,,,,,,,,w,1,1.914,2.191304959,1,1,0,2,2,3,1,,,,,,,,,,,,,,
,,,,,,,,,,,left.png,,w,right,615224b6fec95dfc43439c28,2021-10-22_17h01.15.763,arrow_simon_punish,2021.1.2,Win32,59.93048064,,,,,,,,,,,,,,w,1,1.8455,1.78345583,1,1,0,3,3,3,1,,,,,,,,,,,,,,
,,,,,,,,,,,left.png,,w,right,615224b6fec95dfc43439c28,2021-10-22_17h01.15.763,arrow_simon_punish,2021.1.2,Win32,59.93048064,,,,,,,,,,,,,,w,1,1.8856,2.062097272,1,1,1,0,4,3,1,,,,,,,,,,,,,,
,,,,,,,,,,,left.png,,w,left,615224b6fec95dfc43439c28,2021-10-22_17h01.15.763,arrow_simon_punish,2021.1.2,Win32,59.93048064,,,,,,,,,,,,,,p,0,1.7183,2.363998634,1,1,1,1,5,2,1,,,,,,,,,,,,,,
,,,,,,,,,,,right.png,,p,right,615224b6fec95dfc43439c28,2021-10-22_17h01.15.763,arrow_simon_punish,2021.1.2,Win32,59.93048064,,,,,,,,,,,,,,p,1,1.8421,2.451181284,1,1,1,2,6,1,1,,,,,,,,,,,,,,
,,,,,,,,,,,right.png,,p,right,615224b6fec95dfc43439c28,2021-10-22_17h01.15.763,arrow_simon_punish,2021.1.2,Win32,59.93048064,,,,,,,,,,,,,,p,1,1.8203,1.547859674,1,1,1,3,7,1,1,,,,,,,,,,,,,,
,,,,,,,,,,,left.png,,w,left,615224b6fec95dfc43439c28,2021-10-22_17h01.15.763,arrow_simon_punish,2021.1.2,Win32,59.93048064,,,,,,,,,,,,,,w,1,1.4912,2.12259158,0,1,2,0,8,2,1,,,,,,,,,,,,,,
,,,,,,,,,,,left.png,,w,left,615224b6fec95dfc43439c28,2021-10-22_17h01.15.763,arrow_simon_punish,2021.1.2,Win32,59.93048064,,,,,,,,,,,,,,w,1,1.3876,1.895224654,1,1,2,1,9,2,1,,,,,,,,,,,,,,
,,,,,,,,,,,right.png,,p,right,615224b6fec95dfc43439c28,2021-10-22_17h01.15.763,arrow_simon_punish,2021.1.2,Win32,59.93048064,,,,,,,,,,,,,,p,1,1.6834,2.280354742,1,1,2,2,10,1,1,,,,,,,,,,,,,,
,,,,,,,,,,,right.png,,p,right,615224b6fec95dfc43439c28,2021-10-22_17h01.15.763,arrow_simon_punish,2021.1.2,Win32,59.93048064,,,,,,,,,,,,,,p,1,1.323,1.747558781,1,1,2,3,11,1,1,,,,,,,,,,,,,,
,,,,,,,,,,,right.png,,p,right,615224b6fec95dfc43439c28,2021-10-22_17h01.15.763,arrow_simon_punish,2021.1.2,Win32,59.93048064,,,,,,,,,,,,,,p,1,1.9456,2.341540109,1,1,3,0,12,1,1,,,,,,,,,,,,,,
,,,,,,,,,,,right.png,,p,left,615224b6fec95dfc43439c28,2021-10-22_17h01.15.763,arrow_simon_punish,2021.1.2,Win32,59.93048064,,,,,,,,,,,,,,w,0,1.8678,2.376715012,1,1,3,1,13,0,1,,,,,,,,,,,,,,
,,,,,,,,,,,right.png,,p,right,615224b6fec95dfc43439c28,2021-10-22_17h01.15.763,arrow_simon_punish,2021.1.2,Win32,59.93048064,,,,,,,,,,,,,,p,1,1.6769,1.802565562,1,1,3,2,14,1,1,,,,,,,,,,,,,,
,,,,,,,,,,,right.png,,p,left,615224b6fec95dfc43439c28,2021-10-22_17h01.15.763,arrow_simon_punish,2021.1.2,Win32,59.93048064,,,,,,,,,,,,,,p,1,1.9782,2.349402663,1,1,3,3,15,0,1,,,,,,,,,,,,,,
,,,,,,,,,,,left.png,,w,right,615224b6fec95dfc43439c28,2021-10-22_17h01.15.763,arrow_simon_punish,2021.1.2,Win32,59.93048064,,,,,,,,,,,,,,w,1,1.2745,1.691592218,1,1,4,0,16,3,1,,,,,,,,,,,,,,
,,,,,,,,,,,left.png,,w,right,615224b6fec95dfc43439c28,2021-10-22_17h01.15.763,arrow_simon_punish,2021.1.2,Win32,59.93048064,,,,,,,,,,,,,,w,1,1.1034,1.527407648,1,1,4,1,17,3,1,,,,,,,,,,,,,,
,,,,,,,,,,,right.png,,p,left,615224b6fec95dfc43439c28,2021-10-22_17h01.15.763,arrow_simon_punish,2021.1.2,Win32,59.93048064,,,,,,,,,,,,,,p,1,1.8844,2.006732969,1,1,4,2,18,0,1,,,,,,,,,,,,,,
,,,,,,,,,,,left.png,,w,left,615224b6fec95dfc43439c28,2021-10-22_17h01.15.763,arrow_simon_punish,2021.1.2,Win32,59.93048064,,,,,,,,,,,,,,w,1,1.8691,2.295176556,1,1,4,3,19,2,1,,,,,,,,,,,,,,
,,,,,,,,,,,left.png,,w,left,615224b6fec95dfc43439c28,2021-10-22_17h01.15.763,arrow_simon_punish,2021.1.2,Win32,59.93048064,,,,,,,,,,,,,,w,1,1.4033,1.867930827,0,1,5,0,20,2,1,,,,,,,,,,,,,,
,,,,,,,,,,,right.png,,p,left,615224b6fec95dfc43439c28,2021-10-22_17h01.15.763,arrow_simon_punish,2021.1.2,Win32,59.93048064,,,,,,,,,,,,,,p,1,1.3698,1.761051376,1,1,5,1,21,0,1,,,,,,,,,,,,,,
,,,,,,,,,,,left.png,,w,left,615224b6fec95dfc43439c28,2021-10-22_17h01.15.763,arrow_simon_punish,2021.1.2,Win32,59.93048064,,,,,,,,,,,,,,w,1,1.3585,1.872948436,1,1,5,2,22,2,1,,,,,,,,,,,,,,
,,,,,,,,,,,right.png,,p,left,615224b6fec95dfc43439c28,2021-10-22_17h01.15.763,arrow_simon_punish,2021.1.2,Win32,59.93048064,,,,,,,,,,,,,,p,1,2.0144,2.269696472,1,1,5,3,23,0,1,,,,,,,,,,,,,,
,,,,,,,,,,,left.png,,w,right,615224b6fec95dfc43439c28,2021-10-22_17h01.15.763,arrow_simon_punish,2021.1.2,Win32,59.93048064,,,,,,,,,,,,,,w,1,2.0878,2.200007287,1,1,6,0,24,3,1,,,,,,,,,,,,,,
,,,,,,,,,,,right.png,,p,right,615224b6fec95dfc43439c28,2021-10-22_17h01.15.763,arrow_simon_punish,2021.1.2,Win32,59.93048064,,,,,,,,,,,,,,p,1,1.8358,1.868374219,1,1,6,1,25,1,1,,,,,,,,,,,,,,
,,,,,,,,,,,right.png,,p,left,615224b6fec95dfc43439c28,2021-10-22_17h01.15.763,arrow_simon_punish,2021.1.2,Win32,59.93048064,,,,,,,,,,,,,,p,1,1.4189,1.794075492,0,1,6,2,26,0,1,,,,,,,,,,,,,,
,,,,,,,,,,,left.png,,w,right,615224b6fec95dfc43439c28,2021-10-22_17h01.15.763,arrow_simon_punish,2021.1.2,Win32,59.93048064,,,,,,,,,,,,,,w,1,1.9354,2.358508584,1,1,6,3,27,3,1,,,,,,,,,,,,,,
,,,,,,,,,,,left.png,,w,left,615224b6fec95dfc43439c28,2021-10-22_17h01.15.763,arrow_simon_punish,2021.1.2,Win32,59.93048064,,,,,,,,,,,,,,w,1,1.8888,2.125394766,1,1,7,0,28,2,1,,,,,,,,,,,,,,
,,,,,,,,,,,left.png,,w,right,615224b6fec95dfc43439c28,2021-10-22_17h01.15.763,arrow_simon_punish,2021.1.2,Win32,59.93048064,,,,,,,,,,,,,,p,0,1.638,1.889850667,1,1,7,1,29,3,1,,,,,,,,,,,,,,
,,,,,,,,,,,right.png,,p,right,615224b6fec95dfc43439c28,2021-10-22_17h01.15.763,arrow_simon_punish,2021.1.2,Win32,59.93048064,,,,,,,,,,,,,,p,1,1.9232,1.825066003,1,1,7,2,30,1,1,,,,,,,,,,,,,,
,,,,,,,,,,,right.png,,p,left,615224b6fec95dfc43439c28,2021-10-22_17h01.15.763,arrow_simon_punish,2021.1.2,Win32,59.93048064,,,,,,,,,,,,,,p,1,1.9669,2.164712246,1,1,7,3,31,0,1,,,,,,,,,,,,,,
,,,,,,,,,,,left.png,,w,right,615224b6fec95dfc43439c28,2021-10-22_17h01.15.763,arrow_simon_punish,2021.1.2,Win32,59.93048064,,,,,,,,,,,,,,w,1,1.7859,2.213690333,1,1,8,0,32,3,1,,,,,,,,,,,,,,
,,,,,,,,,,,left.png,,w,left,615224b6fec95dfc43439c28,2021-10-22_17h01.15.763,arrow_simon_punish,2021.1.2,Win32,59.93048064,,,,,,,,,,,,,,w,1,1.7016,2.309630873,1,1,8,1,33,2,1,,,,,,,,,,,,,,
,,,,,,,,,,,left.png,,w,left,615224b6fec95dfc43439c28,2021-10-22_17h01.15.763,arrow_simon_punish,2021.1.2,Win32,59.93048064,,,,,,,,,,,,,,p,0,1.8701,2.483219957,1,1,8,2,34,2,1,,,,,,,,,,,,,,
,,,,,,,,,,,right.png,,p,right,615224b6fec95dfc43439c28,2021-10-22_17h01.15.763,arrow_simon_punish,2021.1.2,Win32,59.93048064,,,,,,,,,,,,,,p,1,1.508,2.089834162,0,1,8,3,35,1,1,,,,,,,,,,,,,,
,,,,,,,,,,,left.png,,w,left,615224b6fec95dfc43439c28,2021-10-22_17h01.15.763,arrow_simon_punish,2021.1.2,Win32,59.93048064,,,,,,,,,,,,,,w,1,1.7702,2.1626226,1,1,9,0,36,2,1,,,,,,,,,,,,,,
,,,,,,,,,,,right.png,,p,right,615224b6fec95dfc43439c28,2021-10-22_17h01.15.763,arrow_simon_punish,2021.1.2,Win32,59.93048064,,,,,,,,,,,,,,p,1,1.9001,2.419341858,1,1,9,1,37,1,1,,,,,,,,,,,,,,
,,,,,,,,,,,left.png,,w,right,615224b6fec95dfc43439c28,2021-10-22_17h01.15.763,arrow_simon_punish,2021.1.2,Win32,59.93048064,,,,,,,,,,,,,,w,1,1.7107,1.813134742,1,1,9,2,38,3,1,,,,,,,,,,,,,,
,,,,,,,,,,,right.png,,p,left,615224b6fec95dfc43439c28,2021-10-22_17h01.15.763,arrow_simon_punish,2021.1.2,Win32,59.93048064,,,,,,,,,,,,,,p,1,1.2618,1.911341516,1,1,9,3,39,0,1,,,,,,,,,,,,,,
,,,,,,,,,,,right.png,,p,left,615224b6fec95dfc43439c28,2021-10-22_17h01.15.763,arrow_simon_punish,2021.1.2,Win32,59.93048064,,,,,,,,,,,,,,p,1,1.7806,1.95920075,1,1,10,0,40,0,1,,,,,,,,,,,,,,
,,,,,,,,,,,left.png,,w,right,615224b6fec95dfc43439c28,2021-10-22_17h01.15.763,arrow_simon_punish,2021.1.2,Win32,59.93048064,,,,,,,,,,,,,,w,1,1.5687,1.901816257,0,1,10,1,41,3,1,,,,,,,,,,,,,,
,,,,,,,,,,,right.png,,p,left,615224b6fec95dfc43439c28,2021-10-22_17h01.15.763,arrow_simon_punish,2021.1.2,Win32,59.93048064,,,,,,,,,,,,,,p,1,1.5365,1.595680839,0,1,10,2,42,0,1,,,,,,,,,,,,,,
,,,,,,,,,,,right.png,,p,right,615224b6fec95dfc43439c28,2021-10-22_17h01.15.763,arrow_simon_punish,2021.1.2,Win32,59.93048064,,,,,,,,,,,,,,p,1,1.7008,1.985298551,1,1,10,3,43,1,1,,,,,,,,,,,,,,
,,,,,,,,,,,left.png,,w,left,615224b6fec95dfc43439c28,2021-10-22_17h01.15.763,arrow_simon_punish,2021.1.2,Win32,59.93048064,,,,,,,,,,,,,,w,1,1.8555,2.278572528,1,1,11,0,44,2,1,,,,,,,,,,,,,,
,,,,,,,,,,,left.png,,w,left,615224b6fec95dfc43439c28,2021-10-22_17h01.15.763,arrow_simon_punish,2021.1.2,Win32,59.93048064,,,,,,,,,,,,,,w,1,1.4589,1.543464955,0,1,11,1,45,2,1,,,,,,,,,,,,,,
,,,,,,,,,,,right.png,,p,left,615224b6fec95dfc43439c28,2021-10-22_17h01.15.763,arrow_simon_punish,2021.1.2,Win32,59.93048064,,,,,,,,,,,,,,p,1,1.5184,2.195560808,0,1,11,2,46,0,1,,,,,,,,,,,,,,
,,,,,,,,,,,right.png,,p,left,615224b6fec95dfc43439c28,2021-10-22_17h01.15.763,arrow_simon_punish,2021.1.2,Win32,59.93048064,,,,,,,,,,,,,,p,1,1.5545,1.770133911,0,1,11,3,47,0,1,,,,,,,,,,,,,,
,,,,,,,,,,,left.png,,w,right,615224b6fec95dfc43439c28,2021-10-22_17h01.15.763,arrow_simon_punish,2021.1.2,Win32,59.93048064,,,,,,,,,,,,,,w,1,1.6284,1.760392245,1,1,12,0,48,3,1,,,,,,,,,,,,,,
,,,,,,,,,,,left.png,,w,right,615224b6fec95dfc43439c28,2021-10-22_17h01.15.763,arrow_simon_punish,2021.1.2,Win32,59.93048064,,,,,,,,,,,,,,w,1,1.6719,1.930466479,1,1,12,1,49,3,1,,,,,,,,,,,,,,
,,,,,,,,,,,left.png,,w,left,615224b6fec95dfc43439c28,2021-10-22_17h01.15.763,arrow_simon_punish,2021.1.2,Win32,59.93048064,,,,,,,,,,,,,,w,1,1.6754,2.249249905,1,1,12,2,50,2,1,,,,,,,,,,,,,,
,,,,,,,,,,,left.png,,w,right,615224b6fec95dfc43439c28,2021-10-22_17h01.15.763,arrow_simon_punish,2021.1.2,Win32,59.93048064,,,,,,,,,,,,,,p,0,1.5889,2.229508085,1,1,12,3,51,3,1,,,,,,,,,,,,,,
,,,,,,,,,,,right.png,,p,left,615224b6fec95dfc43439c28,2021-10-22_17h01.15.763,arrow_simon_punish,2021.1.2,Win32,59.93048064,,,,,,,,,,,,,,p,1,1.7171,2.350818019,1,1,13,0,52,0,1,,,,,,,,,,,,,,
,,,,,,,,,,,left.png,,w,left,615224b6fec95dfc43439c28,2021-10-22_17h01.15.763,arrow_simon_punish,2021.1.2,Win32,59.93048064,,,,,,,,,,,,,,w,1,1.6243,1.885902109,1,1,13,1,53,2,1,,,,,,,,,,,,,,
,,,,,,,,,,,right.png,,p,right,615224b6fec95dfc43439c28,2021-10-22_17h01.15.763,arrow_simon_punish,2021.1.2,Win32,59.93048064,,,,,,,,,,,,,,p,1,1.8559,1.650624882,1,1,13,2,54,1,1,,,,,,,,,,,,,,
,,,,,,,,,,,right.png,,p,left,615224b6fec95dfc43439c28,2021-10-22_17h01.15.763,arrow_simon_punish,2021.1.2,Win32,59.93048064,,,,,,,,,,,,,,p,1,1.4747,1.57455365,0,1,13,3,55,0,1,,,,,,,,,,,,,,
,,,,,,,,,,,right.png,,p,left,615224b6fec95dfc43439c28,2021-10-22_17h01.15.763,arrow_simon_punish,2021.1.2,Win32,59.93048064,,,,,,,,,,,,,,p,1,1.5763,1.637456582,0,1,14,0,56,0,1,,,,,,,,,,,,,,
,,,,,,,,,,,left.png,,w,right,615224b6fec95dfc43439c28,2021-10-22_17h01.15.763,arrow_simon_punish,2021.1.2,Win32,59.93048064,,,,,,,,,,,,,,w,1,1.8034,2.373738543,1,1,14,1,57,3,1,,,,,,,,,,,,,,
,,,,,,,,,,,right.png,,p,right,615224b6fec95dfc43439c28,2021-10-22_17h01.15.763,arrow_simon_punish,2021.1.2,Win32,59.93048064,,,,,,,,,,,,,,p,1,1.735,2.39695652,1,1,14,2,58,1,1,,,,,,,,,,,,,,
,,,,,,,,,,,right.png,,p,right,615224b6fec95dfc43439c28,2021-10-22_17h01.15.763,arrow_simon_punish,2021.1.2,Win32,59.93048064,,,,,,,,,,,,,,p,1,1.7556,2.228650676,1,1,14,3,59,1,1,,,,,,,,,,,,,,
,,,,,,,,,,,,,,,615224b6fec95dfc43439c28,2021-10-22_17h01.15.763,arrow_simon_punish,2021.1.2,Win32,59.93048064,,,,,,,,,,,,,,,,,,,,,,,,,space,11.5609,4,1,0,2,0,1,1,,,,,
,,,,,,,,,,,left.png,,w,right,615224b6fec95dfc43439c28,2021-10-22_17h01.15.763,arrow_simon_punish,2021.1.2,Win32,59.93048064,,,,,,,,,,,,,,w,1,1.2203,1.665989104,1,5,0,0,0,3,1,,,,,,,,,,,,,,
,,,,,,,,,,,left.png,,w,right,615224b6fec95dfc43439c28,2021-10-22_17h01.15.763,arrow_simon_punish,2021.1.2,Win32,59.93048064,,,,,,,,,,,,,,w,1,1.7248,1.817902552,1,5,0,1,1,3,1,,,,,,,,,,,,,,
,,,,,,,,,,,right.png,,p,left,615224b6fec95dfc43439c28,2021-10-22_17h01.15.763,arrow_simon_punish,2021.1.2,Win32,59.93048064,,,,,,,,,,,,,,w,0,1.757,2.307503504,1,5,0,2,2,0,1,,,,,,,,,,,,,,
,,,,,,,,,,,right.png,,p,right,615224b6fec95dfc43439c28,2021-10-22_17h01.15.763,arrow_simon_punish,2021.1.2,Win32,59.93048064,,,,,,,,,,,,,,p,1,1.4847,1.809730038,0,5,0,3,3,1,1,,,,,,,,,,,,,,
,,,,,,,,,,,left.png,,w,right,615224b6fec95dfc43439c28,2021-10-22_17h01.15.763,arrow_simon_punish,2021.1.2,Win32,59.93048064,,,,,,,,,,,,,,p,0,1.2032,1.640090139,1,5,1,0,4,3,1,,,,,,,,,,,,,,
,,,,,,,,,,,left.png,,w,right,615224b6fec95dfc43439c28,2021-10-22_17h01.15.763,arrow_simon_punish,2021.1.2,Win32,59.93048064,,,,,,,,,,,,,,p,0,1.5076,1.660669213,1,5,1,1,5,3,1,,,,,,,,,,,,,,
,,,,,,,,,,,left.png,,w,left,615224b6fec95dfc43439c28,2021-10-22_17h01.15.763,arrow_simon_punish,2021.1.2,Win32,59.93048064,,,,,,,,,,,,,,w,1,2.0257,1.629582066,1,5,1,2,6,2,1,,,,,,,,,,,,,,
,,,,,,,,,,,right.png,,p,right,615224b6fec95dfc43439c28,2021-10-22_17h01.15.763,arrow_simon_punish,2021.1.2,Win32,59.93048064,,,,,,,,,,,,,,p,1,1.8759,1.564964897,1,5,1,3,7,1,1,,,,,,,,,,,,,,
,,,,,,,,,,,right.png,,p,left,615224b6fec95dfc43439c28,2021-10-22_17h01.15.763,arrow_simon_punish,2021.1.2,Win32,59.93048064,,,,,,,,,,,,,,p,1,1.714,1.955824005,1,5,2,0,8,0,1,,,,,,,,,,,,,,
,,,,,,,,,,,left.png,,w,right,615224b6fec95dfc43439c28,2021-10-22_17h01.15.763,arrow_simon_punish,2021.1.2,Win32,59.93048064,,,,,,,,,,,,,,w,1,1.7357,2.241072913,1,5,2,1,9,3,1,,,,,,,,,,,,,,
,,,,,,,,,,,left.png,,w,left,615224b6fec95dfc43439c28,2021-10-22_17h01.15.763,arrow_simon_punish,2021.1.2,Win32,59.93048064,,,,,,,,,,,,,,p,0,1.4851,2.169159724,1,5,2,2,10,2,1,,,,,,,,,,,,,,
,,,,,,,,,,,right.png,,p,left,615224b6fec95dfc43439c28,2021-10-22_17h01.15.763,arrow_simon_punish,2021.1.2,Win32,59.93048064,,,,,,,,,,,,,,p,1,1.8471,2.26818108,1,5,2,3,11,0,1,,,,,,,,,,,,,,
,,,,,,,,,,,right.png,,p,right,615224b6fec95dfc43439c28,2021-10-22_17h01.15.763,arrow_simon_punish,2021.1.2,Win32,59.93048064,,,,,,,,,,,,,,p,1,1.7528,2.032823346,1,5,3,0,12,1,1,,,,,,,,,,,,,,
,,,,,,,,,,,left.png,,w,right,615224b6fec95dfc43439c28,2021-10-22_17h01.15.763,arrow_simon_punish,2021.1.2,Win32,59.93048064,,,,,,,,,,,,,,w,1,1.4888,1.855392417,0,5,3,1,13,3,1,,,,,,,,,,,,,,
,,,,,,,,,,,left.png,,w,right,615224b6fec95dfc43439c28,2021-10-22_17h01.15.763,arrow_simon_punish,2021.1.2,Win32,59.93048064,,,,,,,,,,,,,,p,0,1.7537,2.494603269,1,5,3,2,14,3,1,,,,,,,,,,,,,,
,,,,,,,,,,,left.png,,w,right,615224b6fec95dfc43439c28,2021-10-22_17h01.15.763,arrow_simon_punish,2021.1.2,Win32,59.93048064,,,,,,,,,,,,,,w,1,2.0626,2.484732848,1,5,3,3,15,3,1,,,,,,,,,,,,,,
,,,,,,,,,,,right.png,,p,left,615224b6fec95dfc43439c28,2021-10-22_17h01.15.763,arrow_simon_punish,2021.1.2,Win32,59.93048064,,,,,,,,,,,,,,p,1,1.9545,2.376614657,1,5,4,0,16,0,1,,,,,,,,,,,,,,
,,,,,,,,,,,left.png,,w,right,615224b6fec95dfc43439c28,2021-10-22_17h01.15.763,arrow_simon_punish,2021.1.2,Win32,59.93048064,,,,,,,,,,,,,,w,1,1.6106,1.823005604,1,5,4,1,17,3,1,,,,,,,,,,,,,,
,,,,,,,,,,,left.png,,w,left,615224b6fec95dfc43439c28,2021-10-22_17h01.15.763,arrow_simon_punish,2021.1.2,Win32,59.93048064,,,,,,,,,,,,,,w,1,1.9037,1.61816924,1,5,4,2,18,2,1,,,,,,,,,,,,,,
,,,,,,,,,,,right.png,,p,right,615224b6fec95dfc43439c28,2021-10-22_17h01.15.763,arrow_simon_punish,2021.1.2,Win32,59.93048064,,,,,,,,,,,,,,p,1,1.7438,2.165521577,1,5,4,3,19,1,1,,,,,,,,,,,,,,
,,,,,,,,,,,left.png,,w,left,615224b6fec95dfc43439c28,2021-10-22_17h01.15.763,arrow_simon_punish,2021.1.2,Win32,59.93048064,,,,,,,,,,,,,,w,1,1.4378,2.106513961,0,5,5,0,20,2,1,,,,,,,,,,,,,,
,,,,,,,,,,,right.png,,p,left,615224b6fec95dfc43439c28,2021-10-22_17h01.15.763,arrow_simon_punish,2021.1.2,Win32,59.93048064,,,,,,,,,,,,,,p,1,1.0716,2.314572593,1,5,5,1,21,0,1,,,,,,,,,,,,,,
,,,,,,,,,,,left.png,,w,left,615224b6fec95dfc43439c28,2021-10-22_17h01.15.763,arrow_simon_punish,2021.1.2,Win32,59.93048064,,,,,,,,,,,,,,w,1,1.3859,2.050050416,1,5,5,2,22,2,1,,,,,,,,,,,,,,
,,,,,,,,,,,right.png,,p,right,615224b6fec95dfc43439c28,2021-10-22_17h01.15.763,arrow_simon_punish,2021.1.2,Win32,59.93048064,,,,,,,,,,,,,,p,1,1.3665,1.996126126,1,5,5,3,23,1,1,,,,,,,,,,,,,,
,,,,,,,,,,,left.png,,w,left,615224b6fec95dfc43439c28,2021-10-22_17h01.15.763,arrow_simon_punish,2021.1.2,Win32,59.93048064,,,,,,,,,,,,,,w,1,1.9844,2.387546794,1,5,6,0,24,2,1,,,,,,,,,,,,,,
,,,,,,,,,,,right.png,,p,right,615224b6fec95dfc43439c28,2021-10-22_17h01.15.763,arrow_simon_punish,2021.1.2,Win32,59.93048064,,,,,,,,,,,,,,p,1,1.1777,1.848910849,1,5,6,1,25,1,1,,,,,,,,,,,,,,
,,,,,,,,,,,right.png,,p,left,615224b6fec95dfc43439c28,2021-10-22_17h01.15.763,arrow_simon_punish,2021.1.2,Win32,59.93048064,,,,,,,,,,,,,,w,0,1.2684,1.864330037,1,5,6,2,26,0,1,,,,,,,,,,,,,,
,,,,,,,,,,,right.png,,p,left,615224b6fec95dfc43439c28,2021-10-22_17h01.15.763,arrow_simon_punish,2021.1.2,Win32,59.93048064,,,,,,,,,,,,,,p,1,1.5231,1.722236598,0,5,6,3,27,0,1,,,,,,,,,,,,,,
,,,,,,,,,,,left.png,,w,right,615224b6fec95dfc43439c28,2021-10-22_17h01.15.763,arrow_simon_punish,2021.1.2,Win32,59.93048064,,,,,,,,,,,,,,w,1,1.6526,2.135082122,1,5,7,0,28,3,1,,,,,,,,,,,,,,
,,,,,,,,,,,right.png,,p,right,615224b6fec95dfc43439c28,2021-10-22_17h01.15.763,arrow_simon_punish,2021.1.2,Win32,59.93048064,,,,,,,,,,,,,,p,1,1.4743,1.62692917,0,5,7,1,29,1,1,,,,,,,,,,,,,,
,,,,,,,,,,,left.png,,w,left,615224b6fec95dfc43439c28,2021-10-22_17h01.15.763,arrow_simon_punish,2021.1.2,Win32,59.93048064,,,,,,,,,,,,,,w,1,1.5184,1.802831056,0,5,7,2,30,2,1,,,,,,,,,,,,,,
,,,,,,,,,,,right.png,,p,right,615224b6fec95dfc43439c28,2021-10-22_17h01.15.763,arrow_simon_punish,2021.1.2,Win32,59.93048064,,,,,,,,,,,,,,p,1,1.7595,2.141500186,1,5,7,3,31,1,1,,,,,,,,,,,,,,
,,,,,,,,,,,right.png,,p,left,615224b6fec95dfc43439c28,2021-10-22_17h01.15.763,arrow_simon_punish,2021.1.2,Win32,59.93048064,,,,,,,,,,,,,,p,1,1.6137,2.001427005,1,5,8,0,32,0,1,,,,,,,,,,,,,,
,,,,,,,,,,,left.png,,w,left,615224b6fec95dfc43439c28,2021-10-22_17h01.15.763,arrow_simon_punish,2021.1.2,Win32,59.93048064,,,,,,,,,,,,,,w,1,1.4894,1.694761906,0,5,8,1,33,2,1,,,,,,,,,,,,,,
,,,,,,,,,,,right.png,,p,right,615224b6fec95dfc43439c28,2021-10-22_17h01.15.763,arrow_simon_punish,2021.1.2,Win32,59.93048064,,,,,,,,,,,,,,p,1,1.5865,2.331376144,0,5,8,2,34,1,1,,,,,,,,,,,,,,
,,,,,,,,,,,left.png,,w,left,615224b6fec95dfc43439c28,2021-10-22_17h01.15.763,arrow_simon_punish,2021.1.2,Win32,59.93048064,,,,,,,,,,,,,,w,1,1.2598,1.51833978,1,5,8,3,35,2,1,,,,,,,,,,,,,,
,,,,,,,,,,,left.png,,w,right,615224b6fec95dfc43439c28,2021-10-22_17h01.15.763,arrow_simon_punish,2021.1.2,Win32,59.93048064,,,,,,,,,,,,,,p,0,1.7201,1.999635239,1,5,9,0,36,3,1,,,,,,,,,,,,,,
,,,,,,,,,,,left.png,,w,left,615224b6fec95dfc43439c28,2021-10-22_17h01.15.763,arrow_simon_punish,2021.1.2,Win32,59.93048064,,,,,,,,,,,,,,w,1,1.6992,2.023175932,1,5,9,1,37,2,1,,,,,,,,,,,,,,
,,,,,,,,,,,right.png,,p,right,615224b6fec95dfc43439c28,2021-10-22_17h01.15.763,arrow_simon_punish,2021.1.2,Win32,59.93048064,,,,,,,,,,,,,,p,1,1.5779,1.8589688,0,5,9,2,38,1,1,,,,,,,,,,,,,,
,,,,,,,,,,,right.png,,p,left,615224b6fec95dfc43439c28,2021-10-22_17h01.15.763,arrow_simon_punish,2021.1.2,Win32,59.93048064,,,,,,,,,,,,,,p,1,1.6197,1.712258574,1,5,9,3,39,0,1,,,,,,,,,,,,,,
,,,,,,,,,,,right.png,,p,right,615224b6fec95dfc43439c28,2021-10-22_17h01.15.763,arrow_simon_punish,2021.1.2,Win32,59.93048064,,,,,,,,,,,,,,p,1,1.878,2.290544396,1,5,10,0,40,1,1,,,,,,,,,,,,,,
,,,,,,,,,,,left.png,,w,left,615224b6fec95dfc43439c28,2021-10-22_17h01.15.763,arrow_simon_punish,2021.1.2,Win32,59.93048064,,,,,,,,,,,,,,w,1,1.6277,1.870708946,1,5,10,1,41,2,1,,,,,,,,,,,,,,
,,,,,,,,,,,right.png,,p,left,615224b6fec95dfc43439c28,2021-10-22_17h01.15.763,arrow_simon_punish,2021.1.2,Win32,59.93048064,,,,,,,,,,,,,,w,0,1.8891,2.337156026,1,5,10,2,42,0,1,,,,,,,,,,,,,,
,,,,,,,,,,,left.png,,w,right,615224b6fec95dfc43439c28,2021-10-22_17h01.15.763,arrow_simon_punish,2021.1.2,Win32,59.93048064,,,,,,,,,,,,,,w,1,2.1903,2.478087494,1,5,10,3,43,3,1,,,,,,,,,,,,,,
,,,,,,,,,,,right.png,,p,left,615224b6fec95dfc43439c28,2021-10-22_17h01.15.763,arrow_simon_punish,2021.1.2,Win32,59.93048064,,,,,,,,,,,,,,p,1,1.7186,2.388983335,1,5,11,0,44,0,1,,,,,,,,,,,,,,
,,,,,,,,,,,left.png,,w,right,615224b6fec95dfc43439c28,2021-10-22_17h01.15.763,arrow_simon_punish,2021.1.2,Win32,59.93048064,,,,,,,,,,,,,,w,1,1.5456,1.539121852,0,5,11,1,45,3,1,,,,,,,,,,,,,,
,,,,,,,,,,,right.png,,p,left,615224b6fec95dfc43439c28,2021-10-22_17h01.15.763,arrow_simon_punish,2021.1.2,Win32,59.93048064,,,,,,,,,,,,,,p,1,1.3373,1.863514012,1,5,11,2,46,0,1,,,,,,,,,,,,,,
,,,,,,,,,,,left.png,,w,left,615224b6fec95dfc43439c28,2021-10-22_17h01.15.763,arrow_simon_punish,2021.1.2,Win32,59.93048064,,,,,,,,,,,,,,w,1,1.8358,2.394559189,1,5,11,3,47,2,1,,,,,,,,,,,,,,
,,,,,,,,,,,left.png,,w,left,615224b6fec95dfc43439c28,2021-10-22_17h01.15.763,arrow_simon_punish,2021.1.2,Win32,59.93048064,,,,,,,,,,,,,,w,1,1.7439,1.615030288,1,5,12,0,48,2,1,,,,,,,,,,,,,,
,,,,,,,,,,,right.png,,p,right,615224b6fec95dfc43439c28,2021-10-22_17h01.15.763,arrow_simon_punish,2021.1.2,Win32,59.93048064,,,,,,,,,,,,,,p,1,1.5536,2.270026957,0,5,12,1,49,1,1,,,,,,,,,,,,,,
,,,,,,,,,,,left.png,,w,right,615224b6fec95dfc43439c28,2021-10-22_17h01.15.763,arrow_simon_punish,2021.1.2,Win32,59.93048064,,,,,,,,,,,,,,w,1,1.8354,2.281083737,1,5,12,2,50,3,1,,,,,,,,,,,,,,
,,,,,,,,,,,right.png,,p,left,615224b6fec95dfc43439c28,2021-10-22_17h01.15.763,arrow_simon_punish,2021.1.2,Win32,59.93048064,,,,,,,,,,,,,,p,1,1.8944,2.377889573,1,5,12,3,51,0,1,,,,,,,,,,,,,,
,,,,,,,,,,,right.png,,p,right,615224b6fec95dfc43439c28,2021-10-22_17h01.15.763,arrow_simon_punish,2021.1.2,Win32,59.93048064,,,,,,,,,,,,,,p,1,1.6521,2.112175518,1,5,13,0,52,1,1,,,,,,,,,,,,,,
,,,,,,,,,,,right.png,,p,right,615224b6fec95dfc43439c28,2021-10-22_17h01.15.763,arrow_simon_punish,2021.1.2,Win32,59.93048064,,,,,,,,,,,,,,p,1,1.5043,2.040106163,0,5,13,1,53,1,1,,,,,,,,,,,,,,
,,,,,,,,,,,right.png,,p,left,615224b6fec95dfc43439c28,2021-10-22_17h01.15.763,arrow_simon_punish,2021.1.2,Win32,59.93048064,,,,,,,,,,,,,,p,1,1.9222,1.599485068,1,5,13,2,54,0,1,,,,,,,,,,,,,,
,,,,,,,,,,,left.png,,w,right,615224b6fec95dfc43439c28,2021-10-22_17h01.15.763,arrow_simon_punish,2021.1.2,Win32,59.93048064,,,,,,,,,,,,,,w,1,1.6459,1.817923227,1,5,13,3,55,3,1,,,,,,,,,,,,,,
,,,,,,,,,,,left.png,,w,left,615224b6fec95dfc43439c28,2021-10-22_17h01.15.763,arrow_simon_punish,2021.1.2,Win32,59.93048064,,,,,,,,,,,,,,w,1,1.3849,1.892599247,1,5,14,0,56,2,1,,,,,,,,,,,,,,
,,,,,,,,,,,right.png,,p,left,615224b6fec95dfc43439c28,2021-10-22_17h01.15.763,arrow_simon_punish,2021.1.2,Win32,59.93048064,,,,,,,,,,,,,,p,1,1.6252,2.36009783,1,5,14,1,57,0,1,,,,,,,,,,,,,,
,,,,,,,,,,,right.png,,p,right,615224b6fec95dfc43439c28,2021-10-22_17h01.15.763,arrow_simon_punish,2021.1.2,Win32,59.93048064,,,,,,,,,,,,,,p,1,1.9216,2.393246877,1,5,14,2,58,1,1,,,,,,,,,,,,,,
,,,,,,,,,,,left.png,,w,left,615224b6fec95dfc43439c28,2021-10-22_17h01.15.763,arrow_simon_punish,2021.1.2,Win32,59.93048064,,,,,,,,,,,,,,w,1,1.7536,2.399076674,1,5,14,3,59,2,1,,,,,,,,,,,,,,
,,,,,,,,,,,,,,,615224b6fec95dfc43439c28,2021-10-22_17h01.15.763,arrow_simon_punish,2021.1.2,Win32,59.93048064,,,,,,,,,,,,,,,,,,,,,,,,,space,13.7916,5,1,1,3,1,1,5,,,,,
,,,,,,,,,,,left.png,,w,left,615224b6fec95dfc43439c28,2021-10-22_17h01.15.763,arrow_simon_punish,2021.1.2,Win32,59.93048064,,,,,,,,,,,,,,w,1,1.0562,1.664547471,1,1,0,0,0,2,1,,,,,,,,,,,,,,
,,,,,,,,,,,left.png,,w,left,615224b6fec95dfc43439c28,2021-10-22_17h01.15.763,arrow_simon_punish,2021.1.2,Win32,59.93048064,,,,,,,,,,,,,,w,1,1.0258,1.513180053,1,1,0,1,1,2,1,,,,,,,,,,,,,,
,,,,,,,,,,,right.png,,p,left,615224b6fec95dfc43439c28,2021-10-22_17h01.15.763,arrow_simon_punish,2021.1.2,Win32,59.93048064,,,,,,,,,,,,,,p,1,1.8355,2.343966704,1,1,0,2,2,0,1,,,,,,,,,,,,,,
,,,,,,,,,,,left.png,,w,left,615224b6fec95dfc43439c28,2021-10-22_17h01.15.763,arrow_simon_punish,2021.1.2,Win32,59.93048064,,,,,,,,,,,,,,w,1,1.2348,1.844660028,1,1,0,3,3,2,1,,,,,,,,,,,,,,
,,,,,,,,,,,right.png,,p,left,615224b6fec95dfc43439c28,2021-10-22_17h01.15.763,arrow_simon_punish,2021.1.2,Win32,59.93048064,,,,,,,,,,,,,,p,1,1.7733,2.051391103,1,1,1,0,4,0,1,,,,,,,,,,,,,,
,,,,,,,,,,,right.png,,p,right,615224b6fec95dfc43439c28,2021-10-22_17h01.15.763,arrow_simon_punish,2021.1.2,Win32,59.93048064,,,,,,,,,,,,,,p,1,1.4423,1.909333859,0,1,1,1,5,1,1,,,,,,,,,,,,,,
,,,,,,,,,,,left.png,,w,left,615224b6fec95dfc43439c28,2021-10-22_17h01.15.763,arrow_simon_punish,2021.1.2,Win32,59.93048064,,,,,,,,,,,,,,w,1,1.3965,1.64805645,1,1,1,2,6,2,1,,,,,,,,,,,,,,
,,,,,,,,,,,left.png,,w,right,615224b6fec95dfc43439c28,2021-10-22_17h01.15.763,arrow_simon_punish,2021.1.2,Win32,59.93048064,,,,,,,,,,,,,,p,0,1.6082,2.132367634,1,1,1,3,7,3,1,,,,,,,,,,,,,,
,,,,,,,,,,,left.png,,w,right,615224b6fec95dfc43439c28,2021-10-22_17h01.15.763,arrow_simon_punish,2021.1.2,Win32,59.93048064,,,,,,,,,,,,,,p,0,1.8366,2.436976828,1,1,2,0,8,3,1,,,,,,,,,,,,,,
,,,,,,,,,,,left.png,,w,right,615224b6fec95dfc43439c28,2021-10-22_17h01.15.763,arrow_simon_punish,2021.1.2,Win32,59.93048064,,,,,,,,,,,,,,w,1,1.8085,2.147838775,1,1,2,1,9,3,1,,,,,,,,,,,,,,
,,,,,,,,,,,left.png,,w,right,615224b6fec95dfc43439c28,2021-10-22_17h01.15.763,arrow_simon_punish,2021.1.2,Win32,59.93048064,,,,,,,,,,,,,,w,1,1.6698,1.754488976,1,1,2,2,10,3,1,,,,,,,,,,,,,,
,,,,,,,,,,,left.png,,w,left,615224b6fec95dfc43439c28,2021-10-22_17h01.15.763,arrow_simon_punish,2021.1.2,Win32,59.93048064,,,,,,,,,,,,,,w,1,1.6755,2.438726514,1,1,2,3,11,2,1,,,,,,,,,,,,,,
,,,,,,,,,,,right.png,,p,right,615224b6fec95dfc43439c28,2021-10-22_17h01.15.763,arrow_simon_punish,2021.1.2,Win32,59.93048064,,,,,,,,,,,,,,p,1,1.6705,1.992579925,1,1,3,0,12,1,1,,,,,,,,,,,,,,
,,,,,,,,,,,left.png,,w,left,615224b6fec95dfc43439c28,2021-10-22_17h01.15.763,arrow_simon_punish,2021.1.2,Win32,59.93048064,,,,,,,,,,,,,,w,1,1.4199,1.640772631,0,1,3,1,13,2,1,,,,,,,,,,,,,,
,,,,,,,,,,,left.png,,w,left,615224b6fec95dfc43439c28,2021-10-22_17h01.15.763,arrow_simon_punish,2021.1.2,Win32,59.93048064,,,,,,,,,,,,,,p,0,1.4705,1.84922497,1,1,3,2,14,2,1,,,,,,,,,,,,,,
,,,,,,,,,,,left.png,,w,right,615224b6fec95dfc43439c28,2021-10-22_17h01.15.763,arrow_simon_punish,2021.1.2,Win32,59.93048064,,,,,,,,,,,,,,w,1,1.4853,2.277403466,0,1,3,3,15,3,1,,,,,,,,,,,,,,
,,,,,,,,,,,right.png,,p,right,615224b6fec95dfc43439c28,2021-10-22_17h01.15.763,arrow_simon_punish,2021.1.2,Win32,59.93048064,,,,,,,,,,,,,,p,1,1.5689,1.841539221,0,1,4,0,16,1,1,,,,,,,,,,,,,,
,,,,,,,,,,,left.png,,w,right,615224b6fec95dfc43439c28,2021-10-22_17h01.15.763,arrow_simon_punish,2021.1.2,Win32,59.93048064,,,,,,,,,,,,,,w,1,1.6122,1.983864119,1,1,4,1,17,3,1,,,,,,,,,,,,,,
,,,,,,,,,,,left.png,,w,right,615224b6fec95dfc43439c28,2021-10-22_17h01.15.763,arrow_simon_punish,2021.1.2,Win32,59.93048064,,,,,,,,,,,,,,w,1,1.9738,2.197510268,1,1,4,2,18,3,1,,,,,,,,,,,,,,
,,,,,,,,,,,right.png,,p,left,615224b6fec95dfc43439c28,2021-10-22_17h01.15.763,arrow_simon_punish,2021.1.2,Win32,59.93048064,,,,,,,,,,,,,,p,1,1.7377,2.005434332,1,1,4,3,19,0,1,,,,,,,,,,,,,,
,,,,,,,,,,,left.png,,w,left,615224b6fec95dfc43439c28,2021-10-22_17h01.15.763,arrow_simon_punish,2021.1.2,Win32,59.93048064,,,,,,,,,,,,,,w,1,1.6762,1.932394144,1,1,5,0,20,2,1,,,,,,,,,,,,,,
,,,,,,,,,,,right.png,,p,right,615224b6fec95dfc43439c28,2021-10-22_17h01.15.763,arrow_simon_punish,2021.1.2,Win32,59.93048064,,,,,,,,,,,,,,p,1,1.6922,1.625003262,1,1,5,1,21,1,1,,,,,,,,,,,,,,
,,,,,,,,,,,left.png,,w,left,615224b6fec95dfc43439c28,2021-10-22_17h01.15.763,arrow_simon_punish,2021.1.2,Win32,59.93048064,,,,,,,,,,,,,,w,1,1.6359,2.045636273,1,1,5,2,22,2,1,,,,,,,,,,,,,,
,,,,,,,,,,,right.png,,p,left,615224b6fec95dfc43439c28,2021-10-22_17h01.15.763,arrow_simon_punish,2021.1.2,Win32,59.93048064,,,,,,,,,,,,,,p,1,1.4821,1.723357246,0,1,5,3,23,0,1,,,,,,,,,,,,,,
,,,,,,,,,,,right.png,,p,right,615224b6fec95dfc43439c28,2021-10-22_17h01.15.763,arrow_simon_punish,2021.1.2,Win32,59.93048064,,,,,,,,,,,,,,w,0,1.6911,2.487958425,1,1,6,0,24,1,1,,,,,,,,,,,,,,
,,,,,,,,,,,left.png,,w,right,615224b6fec95dfc43439c28,2021-10-22_17h01.15.763,arrow_simon_punish,2021.1.2,Win32,59.93048064,,,,,,,,,,,,,,w,1,1.8889,2.436673574,1,1,6,1,25,3,1,,,,,,,,,,,,,,
,,,,,,,,,,,left.png,,w,right,615224b6fec95dfc43439c28,2021-10-22_17h01.15.763,arrow_simon_punish,2021.1.2,Win32,59.93048064,,,,,,,,,,,,,,w,1,1.6724,2.099418148,1,1,6,2,26,3,1,,,,,,,,,,,,,,
,,,,,,,,,,,right.png,,p,right,615224b6fec95dfc43439c28,2021-10-22_17h01.15.763,arrow_simon_punish,2021.1.2,Win32,59.93048064,,,,,,,,,,,,,,p,1,1.5073,1.744274362,0,1,6,3,27,1,1,,,,,,,,,,,,,,
,,,,,,,,,,,left.png,,w,left,615224b6fec95dfc43439c28,2021-10-22_17h01.15.763,arrow_simon_punish,2021.1.2,Win32,59.93048064,,,,,,,,,,,,,,w,1,1.8178,2.263364946,1,1,7,0,28,2,1,,,,,,,,,,,,,,
,,,,,,,,,,,left.png,,w,left,615224b6fec95dfc43439c28,2021-10-22_17h01.15.763,arrow_simon_punish,2021.1.2,Win32,59.93048064,,,,,,,,,,,,,,w,1,1.5298,1.749948318,0,1,7,1,29,2,1,,,,,,,,,,,,,,
,,,,,,,,,,,left.png,,w,right,615224b6fec95dfc43439c28,2021-10-22_17h01.15.763,arrow_simon_punish,2021.1.2,Win32,59.93048064,,,,,,,,,,,,,,w,1,1.8586,2.465515521,1,1,7,2,30,3,1,,,,,,,,,,,,,,
,,,,,,,,,,,left.png,,w,right,615224b6fec95dfc43439c28,2021-10-22_17h01.15.763,arrow_simon_punish,2021.1.2,Win32,59.93048064,,,,,,,,,,,,,,w,1,1.6739,1.561166222,1,1,7,3,31,3,1,,,,,,,,,,,,,,
,,,,,,,,,,,left.png,,w,left,615224b6fec95dfc43439c28,2021-10-22_17h01.15.763,arrow_simon_punish,2021.1.2,Win32,59.93048064,,,,,,,,,,,,,,w,1,1.4699,1.696923339,0,1,8,0,32,2,1,,,,,,,,,,,,,,
,,,,,,,,,,,right.png,,p,right,615224b6fec95dfc43439c28,2021-10-22_17h01.15.763,arrow_simon_punish,2021.1.2,Win32,59.93048064,,,,,,,,,,,,,,p,1,1.6193,1.665247932,1,1,8,1,33,1,1,,,,,,,,,,,,,,
,,,,,,,,,,,right.png,,p,left,615224b6fec95dfc43439c28,2021-10-22_17h01.15.763,arrow_simon_punish,2021.1.2,Win32,59.93048064,,,,,,,,,,,,,,w,0,1.46,2.119011668,1,1,8,2,34,0,1,,,,,,,,,,,,,,
,,,,,,,,,,,right.png,,p,right,615224b6fec95dfc43439c28,2021-10-22_17h01.15.763,arrow_simon_punish,2021.1.2,Win32,59.93048064,,,,,,,,,,,,,,p,1,1.7561,2.037529852,1,1,8,3,35,1,1,,,,,,,,,,,,,,
,,,,,,,,,,,right.png,,p,left,615224b6fec95dfc43439c28,2021-10-22_17h01.15.763,arrow_simon_punish,2021.1.2,Win32,59.93048064,,,,,,,,,,,,,,w,0,1.2867,1.502531021,1,1,9,0,36,0,1,,,,,,,,,,,,,,
,,,,,,,,,,,left.png,,w,right,615224b6fec95dfc43439c28,2021-10-22_17h01.15.763,arrow_simon_punish,2021.1.2,Win32,59.93048064,,,,,,,,,,,,,,w,1,1.6018,1.722373724,1,1,9,1,37,3,1,,,,,,,,,,,,,,
,,,,,,,,,,,right.png,,p,right,615224b6fec95dfc43439c28,2021-10-22_17h01.15.763,arrow_simon_punish,2021.1.2,Win32,59.93048064,,,,,,,,,,,,,,p,1,1.5747,2.175355844,0,1,9,2,38,1,1,,,,,,,,,,,,,,
,,,,,,,,,,,right.png,,p,right,615224b6fec95dfc43439c28,2021-10-22_17h01.15.763,arrow_simon_punish,2021.1.2,Win32,59.93048064,,,,,,,,,,,,,,p,1,1.8204,2.289679055,1,1,9,3,39,1,1,,,,,,,,,,,,,,
,,,,,,,,,,,right.png,,p,left,615224b6fec95dfc43439c28,2021-10-22_17h01.15.763,arrow_simon_punish,2021.1.2,Win32,59.93048064,,,,,,,,,,,,,,w,0,1.6038,1.776716656,1,1,10,0,40,0,1,,,,,,,,,,,,,,
,,,,,,,,,,,left.png,,w,right,615224b6fec95dfc43439c28,2021-10-22_17h01.15.763,arrow_simon_punish,2021.1.2,Win32,59.93048064,,,,,,,,,,,,,,p,0,1.7291,2.374475741,1,1,10,1,41,3,1,,,,,,,,,,,,,,
,,,,,,,,,,,right.png,,p,left,615224b6fec95dfc43439c28,2021-10-22_17h01.15.763,arrow_simon_punish,2021.1.2,Win32,59.93048064,,,,,,,,,,,,,,p,1,1.6037,2.192077581,1,1,10,2,42,0,1,,,,,,,,,,,,,,
,,,,,,,,,,,left.png,,w,left,615224b6fec95dfc43439c28,2021-10-22_17h01.15.763,arrow_simon_punish,2021.1.2,Win32,59.93048064,,,,,,,,,,,,,,w,1,1.5038,1.96305487,0,1,10,3,43,2,1,,,,,,,,,,,,,,
,,,,,,,,,,,right.png,,p,right,615224b6fec95dfc43439c28,2021-10-22_17h01.15.763,arrow_simon_punish,2021.1.2,Win32,59.93048064,,,,,,,,,,,,,,p,1,1.5238,1.702922177,0,1,11,0,44,1,1,,,,,,,,,,,,,,
,,,,,,,,,,,right.png,,p,right,615224b6fec95dfc43439c28,2021-10-22_17h01.15.763,arrow_simon_punish,2021.1.2,Win32,59.93048064,,,,,,,,,,,,,,p,1,1.7295,2.048920407,1,1,11,1,45,1,1,,,,,,,,,,,,,,
,,,,,,,,,,,right.png,,p,right,615224b6fec95dfc43439c28,2021-10-22_17h01.15.763,arrow_simon_punish,2021.1.2,Win32,59.93048064,,,,,,,,,,,,,,w,0,1.8533,1.856098556,1,1,11,2,46,1,1,,,,,,,,,,,,,,
,,,,,,,,,,,right.png,,p,left,615224b6fec95dfc43439c28,2021-10-22_17h01.15.763,arrow_simon_punish,2021.1.2,Win32,59.93048064,,,,,,,,,,,,,,p,1,1.8945,2.187915823,1,1,11,3,47,0,1,,,,,,,,,,,,,,
,,,,,,,,,,,left.png,,w,right,615224b6fec95dfc43439c28,2021-10-22_17h01.15.763,arrow_simon_punish,2021.1.2,Win32,59.93048064,,,,,,,,,,,,,,w,1,2.0433,2.465970697,1,1,12,0,48,3,1,,,,,,,,,,,,,,
,,,,,,,,,,,right.png,,p,right,615224b6fec95dfc43439c28,2021-10-22_17h01.15.763,arrow_simon_punish,2021.1.2,Win32,59.93048064,,,,,,,,,,,,,,p,1,1.6554,2.128307673,1,1,12,1,49,1,1,,,,,,,,,,,,,,
,,,,,,,,,,,right.png,,p,left,615224b6fec95dfc43439c28,2021-10-22_17h01.15.763,arrow_simon_punish,2021.1.2,Win32,59.93048064,,,,,,,,,,,,,,p,1,1.5881,1.612759019,0,1,12,2,50,0,1,,,,,,,,,,,,,,
,,,,,,,,,,,right.png,,p,left,615224b6fec95dfc43439c28,2021-10-22_17h01.15.763,arrow_simon_punish,2021.1.2,Win32,59.93048064,,,,,,,,,,,,,,p,1,1.6075,1.665246332,1,1,12,3,51,0,1,,,,,,,,,,,,,,
,,,,,,,,,,,right.png,,p,left,615224b6fec95dfc43439c28,2021-10-22_17h01.15.763,arrow_simon_punish,2021.1.2,Win32,59.93048064,,,,,,,,,,,,,,p,1,1.4524,1.896790093,0,1,13,0,52,0,1,,,,,,,,,,,,,,
,,,,,,,,,,,right.png,,p,left,615224b6fec95dfc43439c28,2021-10-22_17h01.15.763,arrow_simon_punish,2021.1.2,Win32,59.93048064,,,,,,,,,,,,,,p,1,1.474,1.500854937,0,1,13,1,53,0,1,,,,,,,,,,,,,,
,,,,,,,,,,,right.png,,p,left,615224b6fec95dfc43439c28,2021-10-22_17h01.15.763,arrow_simon_punish,2021.1.2,Win32,59.93048064,,,,,,,,,,,,,,p,1,1.5706,1.899971426,0,1,13,2,54,0,1,,,,,,,,,,,,,,
,,,,,,,,,,,right.png,,p,left,615224b6fec95dfc43439c28,2021-10-22_17h01.15.763,arrow_simon_punish,2021.1.2,Win32,59.93048064,,,,,,,,,,,,,,p,1,1.6799,1.951070639,1,1,13,3,55,0,1,,,,,,,,,,,,,,
,,,,,,,,,,,right.png,,p,right,615224b6fec95dfc43439c28,2021-10-22_17h01.15.763,arrow_simon_punish,2021.1.2,Win32,59.93048064,,,,,,,,,,,,,,p,1,1.704,1.789652278,1,1,14,0,56,1,1,,,,,,,,,,,,,,
,,,,,,,,,,,left.png,,w,left,615224b6fec95dfc43439c28,2021-10-22_17h01.15.763,arrow_simon_punish,2021.1.2,Win32,59.93048064,,,,,,,,,,,,,,w,1,1.6531,2.35834313,1,1,14,1,57,2,1,,,,,,,,,,,,,,
,,,,,,,,,,,left.png,,w,left,615224b6fec95dfc43439c28,2021-10-22_17h01.15.763,arrow_simon_punish,2021.1.2,Win32,59.93048064,,,,,,,,,,,,,,w,1,1.6867,2.425517085,1,1,14,2,58,2,1,,,,,,,,,,,,,,
,,,,,,,,,,,left.png,,w,right,615224b6fec95dfc43439c28,2021-10-22_17h01.15.763,arrow_simon_punish,2021.1.2,Win32,59.93048064,,,,,,,,,,,,,,w,1,1.495,1.770231686,0,1,14,3,59,3,1,,,,,,,,,,,,,,
,,,,,,,,,,,,,,,615224b6fec95dfc43439c28,2021-10-22_17h01.15.763,arrow_simon_punish,2021.1.2,Win32,59.93048064,,,,,,,,,,,,,,,,,,,,,,,,,space,11.6796,6,2,0,4,0,1,1,,,,,
,,,,,,,,,,,right.png,,p,right,615224b6fec95dfc43439c28,2021-10-22_17h01.15.763,arrow_simon_punish,2021.1.2,Win32,59.93048064,,,,,,,,,,,,,,w,0,0.8537,1.940902763,1,5,0,0,0,1,1,,,,,,,,,,,,,,
,,,,,,,,,,,right.png,,p,left,615224b6fec95dfc43439c28,2021-10-22_17h01.15.763,arrow_simon_punish,2021.1.2,Win32,59.93048064,,,,,,,,,,,,,,p,1,1.6902,2.227400682,1,5,0,1,1,0,1,,,,,,,,,,,,,,
,,,,,,,,,,,right.png,,p,left,615224b6fec95dfc43439c28,2021-10-22_17h01.15.763,arrow_simon_punish,2021.1.2,Win32,59.93048064,,,,,,,,,,,,,,p,1,1.3891,1.512674914,1,5,0,2,2,0,1,,,,,,,,,,,,,,
,,,,,,,,,,,left.png,,w,left,615224b6fec95dfc43439c28,2021-10-22_17h01.15.763,arrow_simon_punish,2021.1.2,Win32,59.93048064,,,,,,,,,,,,,,w,1,1.4412,2.489537808,0,5,0,3,3,2,1,,,,,,,,,,,,,,
,,,,,,,,,,,left.png,,w,left,615224b6fec95dfc43439c28,2021-10-22_17h01.15.763,arrow_simon_punish,2021.1.2,Win32,59.93048064,,,,,,,,,,,,,,p,0,1.6918,2.378223927,1,5,1,0,4,2,1,,,,,,,,,,,,,,
,,,,,,,,,,,left.png,,w,left,615224b6fec95dfc43439c28,2021-10-22_17h01.15.763,arrow_simon_punish,2021.1.2,Win32,59.93048064,,,,,,,,,,,,,,w,1,1.4898,2.0830892,0,5,1,1,5,2,1,,,,,,,,,,,,,,
,,,,,,,,,,,left.png,,w,left,615224b6fec95dfc43439c28,2021-10-22_17h01.15.763,arrow_simon_punish,2021.1.2,Win32,59.93048064,,,,,,,,,,,,,,w,1,1.5041,1.670930151,0,5,1,2,6,2,1,,,,,,,,,,,,,,
,,,,,,,,,,,right.png,,p,right,615224b6fec95dfc43439c28,2021-10-22_17h01.15.763,arrow_simon_punish,2021.1.2,Win32,59.93048064,,,,,,,,,,,,,,p,1,1.2714,1.874138023,1,5,1,3,7,1,1,,,,,,,,,,,,,,
,,,,,,,,,,,right.png,,p,left,615224b6fec95dfc43439c28,2021-10-22_17h01.15.763,arrow_simon_punish,2021.1.2,Win32,59.93048064,,,,,,,,,,,,,,p,1,1.7714,1.827313767,1,5,2,0,8,0,1,,,,,,,,,,,,,,
,,,,,,,,,,,right.png,,p,right,615224b6fec95dfc43439c28,2021-10-22_17h01.15.763,arrow_simon_punish,2021.1.2,Win32,59.93048064,,,,,,,,,,,,,,p,1,1.7633,2.303992225,1,5,2,1,9,1,1,,,,,,,,,,,,,,
,,,,,,,,,,,left.png,,w,right,615224b6fec95dfc43439c28,2021-10-22_17h01.15.763,arrow_simon_punish,2021.1.2,Win32,59.93048064,,,,,,,,,,,,,,p,0,1.685,2.367463442,1,5,2,2,10,3,1,,,,,,,,,,,,,,
,,,,,,,,,,,right.png,,p,left,615224b6fec95dfc43439c28,2021-10-22_17h01.15.763,arrow_simon_punish,2021.1.2,Win32,59.93048064,,,,,,,,,,,,,,p,1,1.872,2.400938368,1,5,2,3,11,0,1,,,,,,,,,,,,,,
,,,,,,,,,,,right.png,,p,left,615224b6fec95dfc43439c28,2021-10-22_17h01.15.763,arrow_simon_punish,2021.1.2,Win32,59.93048064,,,,,,,,,,,,,,p,1,1.5042,1.927505411,0,5,3,0,12,0,1,,,,,,,,,,,,,,
,,,,,,,,,,,left.png,,w,right,615224b6fec95dfc43439c28,2021-10-22_17h01.15.763,arrow_simon_punish,2021.1.2,Win32,59.93048064,,,,,,,,,,,,,,w,1,1.8864,2.027668561,1,5,3,1,13,3,1,,,,,,,,,,,,,,
,,,,,,,,,,,right.png,,p,right,615224b6fec95dfc43439c28,2021-10-22_17h01.15.763,arrow_simon_punish,2021.1.2,Win32,59.93048064,,,,,,,,,,,,,,p,1,1.4881,2.185063058,0,5,3,2,14,1,1,,,,,,,,,,,,,,
,,,,,,,,,,,right.png,,p,left,615224b6fec95dfc43439c28,2021-10-22_17h01.15.763,arrow_simon_punish,2021.1.2,Win32,59.93048064,,,,,,,,,,,,,,w,0,2.004,2.255831265,1,5,3,3,15,0,1,,,,,,,,,,,,,,
,,,,,,,,,,,right.png,,p,right,615224b6fec95dfc43439c28,2021-10-22_17h01.15.763,arrow_simon_punish,2021.1.2,Win32,59.93048064,,,,,,,,,,,,,,p,1,1.7201,2.423890787,1,5,4,0,16,1,1,,,,,,,,,,,,,,
,,,,,,,,,,,left.png,,w,left,615224b6fec95dfc43439c28,2021-10-22_17h01.15.763,arrow_simon_punish,2021.1.2,Win32,59.93048064,,,,,,,,,,,,,,w,1,1.5049,1.521055283,0,5,4,1,17,2,1,,,,,,,,,,,,,,
,,,,,,,,,,,left.png,,w,right,615224b6fec95dfc43439c28,2021-10-22_17h01.15.763,arrow_simon_punish,2021.1.2,Win32,59.93048064,,,,,,,,,,,,,,w,1,1.7209,1.915002307,1,5,4,2,18,3,1,,,,,,,,,,,,,,
,,,,,,,,,,,left.png,,w,right,615224b6fec95dfc43439c28,2021-10-22_17h01.15.763,arrow_simon_punish,2021.1.2,Win32,59.93048064,,,,,,,,,,,,,,w,1,1.9266,1.987704214,1,5,4,3,19,3,1,,,,,,,,,,,,,,
,,,,,,,,,,,left.png,,w,right,615224b6fec95dfc43439c28,2021-10-22_17h01.15.763,arrow_simon_punish,2021.1.2,Win32,59.93048064,,,,,,,,,,,,,,w,1,1.3267,1.563597842,1,5,5,0,20,3,1,,,,,,,,,,,,,,
,,,,,,,,,,,right.png,,p,right,615224b6fec95dfc43439c28,2021-10-22_17h01.15.763,arrow_simon_punish,2021.1.2,Win32,59.93048064,,,,,,,,,,,,,,p,1,1.5377,2.07887496,0,5,5,1,21,1,1,,,,,,,,,,,,,,
,,,,,,,,,,,left.png,,w,left,615224b6fec95dfc43439c28,2021-10-22_17h01.15.763,arrow_simon_punish,2021.1.2,Win32,59.93048064,,,,,,,,,,,,,,w,1,1.9233,2.323715309,1,5,5,2,22,2,1,,,,,,,,,,,,,,
,,,,,,,,,,,right.png,,p,left,615224b6fec95dfc43439c28,2021-10-22_17h01.15.763,arrow_simon_punish,2021.1.2,Win32,59.93048064,,,,,,,,,,,,,,p,1,1.5261,1.829640256,0,5,5,3,23,0,1,,,,,,,,,,,,,,
,,,,,,,,,,,left.png,,w,left,615224b6fec95dfc43439c28,2021-10-22_17h01.15.763,arrow_simon_punish,2021.1.2,Win32,59.93048064,,,,,,,,,,,,,,w,1,1.5225,1.96312324,0,5,6,0,24,2,1,,,,,,,,,,,,,,
,,,,,,,,,,,left.png,,w,left,615224b6fec95dfc43439c28,2021-10-22_17h01.15.763,arrow_simon_punish,2021.1.2,Win32,59.93048064,,,,,,,,,,,,,,p,0,1.5424,2.329240862,1,5,6,1,25,2,1,,,,,,,,,,,,,,
,,,,,,,,,,,right.png,,p,left,615224b6fec95dfc43439c28,2021-10-22_17h01.15.763,arrow_simon_punish,2021.1.2,Win32,59.93048064,,,,,,,,,,,,,,p,1,1.7186,2.096009923,1,5,6,2,26,0,1,,,,,,,,,,,,,,
,,,,,,,,,,,left.png,,w,right,615224b6fec95dfc43439c28,2021-10-22_17h01.15.763,arrow_simon_punish,2021.1.2,Win32,59.93048064,,,,,,,,,,,,,,w,1,1.8038,2.278234218,1,5,6,3,27,3,1,,,,,,,,,,,,,,
,,,,,,,,,,,left.png,,w,right,615224b6fec95dfc43439c28,2021-10-22_17h01.15.763,arrow_simon_punish,2021.1.2,Win32,59.93048064,,,,,,,,,,,,,,p,0,1.6914,1.880982798,1,5,7,0,28,3,1,,,,,,,,,,,,,,
,,,,,,,,,,,left.png,,w,left,615224b6fec95dfc43439c28,2021-10-22_17h01.15.763,arrow_simon_punish,2021.1.2,Win32,59.93048064,,,,,,,,,,,,,,w,1,1.9946,2.190957313,1,5,7,1,29,2,1,,,,,,,,,,,,,,
,,,,,,,,,,,left.png,,w,right,615224b6fec95dfc43439c28,2021-10-22_17h01.15.763,arrow_simon_punish,2021.1.2,Win32,59.93048064,,,,,,,,,,,,,,w,1,1.7178,1.830165017,1,5,7,2,30,3,1,,,,,,,,,,,,,,
,,,,,,,,,,,right.png,,p,left,615224b6fec95dfc43439c28,2021-10-22_17h01.15.763,arrow_simon_punish,2021.1.2,Win32,59.93048064,,,,,,,,,,,,,,p,1,1.8443,2.466824431,1,5,7,3,31,0,1,,,,,,,,,,,,,,
,,,,,,,,,,,right.png,,p,right,615224b6fec95dfc43439c28,2021-10-22_17h01.15.763,arrow_simon_punish,2021.1.2,Win32,59.93048064,,,,,,,,,,,,,,p,1,1.7202,2.351562926,1,5,8,0,32,1,1,,,,,,,,,,,,,,
,,,,,,,,,,,right.png,,p,left,615224b6fec95dfc43439c28,2021-10-22_17h01.15.763,arrow_simon_punish,2021.1.2,Win32,59.93048064,,,,,,,,,,,,,,w,0,1.3387,1.880600487,1,5,8,1,33,0,1,,,,,,,,,,,,,,
,,,,,,,,,,,left.png,,w,right,615224b6fec95dfc43439c28,2021-10-22_17h01.15.763,arrow_simon_punish,2021.1.2,Win32,59.93048064,,,,,,,,,,,,,,w,1,1.4083,1.819331126,0,5,8,2,34,3,1,,,,,,,,,,,,,,
,,,,,,,,,,,right.png,,p,right,615224b6fec95dfc43439c28,2021-10-22_17h01.15.763,arrow_simon_punish,2021.1.2,Win32,59.93048064,,,,,,,,,,,,,,p,1,1.8002,2.477896021,1,5,8,3,35,1,1,,,,,,,,,,,,,,
,,,,,,,,,,,right.png,,p,right,615224b6fec95dfc43439c28,2021-10-22_17h01.15.763,arrow_simon_punish,2021.1.2,Win32,59.93048064,,,,,,,,,,,,,,p,1,1.4883,1.81740998,0,5,9,0,36,1,1,,,,,,,,,,,,,,
,,,,,,,,,,,right.png,,p,right,615224b6fec95dfc43439c28,2021-10-22_17h01.15.763,arrow_simon_punish,2021.1.2,Win32,59.93048064,,,,,,,,,,,,,,p,1,1.9192,2.179971014,1,5,9,1,37,1,1,,,,,,,,,,,,,,
,,,,,,,,,,,right.png,,p,left,615224b6fec95dfc43439c28,2021-10-22_17h01.15.763,arrow_simon_punish,2021.1.2,Win32,59.93048064,,,,,,,,,,,,,,w,0,1.5063,2.13245929,1,5,9,2,38,0,1,,,,,,,,,,,,,,
,,,,,,,,,,,left.png,,w,right,615224b6fec95dfc43439c28,2021-10-22_17h01.15.763,arrow_simon_punish,2021.1.2,Win32,59.93048064,,,,,,,,,,,,,,p,0,1.2739,1.759332662,1,5,9,3,39,3,1,,,,,,,,,,,,,,
,,,,,,,,,,,right.png,,p,left,615224b6fec95dfc43439c28,2021-10-22_17h01.15.763,arrow_simon_punish,2021.1.2,Win32,59.93048064,,,,,,,,,,,,,,w,0,1.7202,2.363251232,1,5,10,0,40,0,1,,,,,,,,,,,,,,
,,,,,,,,,,,right.png,,p,right,615224b6fec95dfc43439c28,2021-10-22_17h01.15.763,arrow_simon_punish,2021.1.2,Win32,59.93048064,,,,,,,,,,,,,,p,1,1.6667,2.061213516,1,5,10,1,41,1,1,,,,,,,,,,,,,,
,,,,,,,,,,,left.png,,w,left,615224b6fec95dfc43439c28,2021-10-22_17h01.15.763,arrow_simon_punish,2021.1.2,Win32,59.93048064,,,,,,,,,,,,,,w,1,2.0944,2.318719068,1,5,10,2,42,2,1,,,,,,,,,,,,,,
,,,,,,,,,,,left.png,,w,right,615224b6fec95dfc43439c28,2021-10-22_17h01.15.763,arrow_simon_punish,2021.1.2,Win32,59.93048064,,,,,,,,,,,,,,w,1,1.8421,2.287528022,1,5,10,3,43,3,1,,,,,,,,,,,,,,
,,,,,,,,,,,left.png,,w,right,615224b6fec95dfc43439c28,2021-10-22_17h01.15.763,arrow_simon_punish,2021.1.2,Win32,59.93048064,,,,,,,,,,,,,,w,1,1.7195,2.139611119,1,5,11,0,44,3,1,,,,,,,,,,,,,,
,,,,,,,,,,,left.png,,w,right,615224b6fec95dfc43439c28,2021-10-22_17h01.15.763,arrow_simon_punish,2021.1.2,Win32,59.93048064,,,,,,,,,,,,,,w,1,1.9899,2.463695594,1,5,11,1,45,3,1,,,,,,,,,,,,,,
,,,,,,,,,,,right.png,,p,right,615224b6fec95dfc43439c28,2021-10-22_17h01.15.763,arrow_simon_punish,2021.1.2,Win32,59.93048064,,,,,,,,,,,,,,w,0,1.7511,2.292970482,1,5,11,2,46,1,1,,,,,,,,,,,,,,
,,,,,,,,,,,right.png,,p,right,615224b6fec95dfc43439c28,2021-10-22_17h01.15.763,arrow_simon_punish,2021.1.2,Win32,59.93048064,,,,,,,,,,,,,,p,1,1.9036,1.688931728,1,5,11,3,47,1,1,,,,,,,,,,,,,,
,,,,,,,,,,,right.png,,p,right,615224b6fec95dfc43439c28,2021-10-22_17h01.15.763,arrow_simon_punish,2021.1.2,Win32,59.93048064,,,,,,,,,,,,,,p,1,1.6707,2.154105863,1,5,12,0,48,1,1,,,,,,,,,,,,,,
,,,,,,,,,,,right.png,,p,left,615224b6fec95dfc43439c28,2021-10-22_17h01.15.763,arrow_simon_punish,2021.1.2,Win32,59.93048064,,,,,,,,,,,,,,w,0,1.1085,1.702353754,1,5,12,1,49,0,1,,,,,,,,,,,,,,
,,,,,,,,,,,right.png,,p,right,615224b6fec95dfc43439c28,2021-10-22_17h01.15.763,arrow_simon_punish,2021.1.2,Win32,59.93048064,,,,,,,,,,,,,,p,1,1.5707,2.167565687,0,5,12,2,50,1,1,,,,,,,,,,,,,,
,,,,,,,,,,,left.png,,w,left,615224b6fec95dfc43439c28,2021-10-22_17h01.15.763,arrow_simon_punish,2021.1.2,Win32,59.93048064,,,,,,,,,,,,,,w,1,1.186,1.662372196,1,5,12,3,51,2,1,,,,,,,,,,,,,,
,,,,,,,,,,,left.png,,w,left,615224b6fec95dfc43439c28,2021-10-22_17h01.15.763,arrow_simon_punish,2021.1.2,Win32,59.93048064,,,,,,,,,,,,,,w,1,1.6753,2.321334105,1,5,13,0,52,2,1,,,,,,,,,,,,,,
,,,,,,,,,,,right.png,,p,left,615224b6fec95dfc43439c28,2021-10-22_17h01.15.763,arrow_simon_punish,2021.1.2,Win32,59.93048064,,,,,,,,,,,,,,p,1,1.5525,1.993663195,0,5,13,1,53,0,1,,,,,,,,,,,,,,
,,,,,,,,,,,left.png,,w,left,615224b6fec95dfc43439c28,2021-10-22_17h01.15.763,arrow_simon_punish,2021.1.2,Win32,59.93048064,,,,,,,,,,,,,,w,1,1.3887,2.051055553,1,5,13,2,54,2,1,,,,,,,,,,,,,,
,,,,,,,,,,,left.png,,w,left,615224b6fec95dfc43439c28,2021-10-22_17h01.15.763,arrow_simon_punish,2021.1.2,Win32,59.93048064,,,,,,,,,,,,,,w,1,1.1879,1.599476804,1,5,13,3,55,2,1,,,,,,,,,,,,,,
,,,,,,,,,,,left.png,,w,right,615224b6fec95dfc43439c28,2021-10-22_17h01.15.763,arrow_simon_punish,2021.1.2,Win32,59.93048064,,,,,,,,,,,,,,w,1,1.9739,2.042001969,1,5,14,0,56,3,1,,,,,,,,,,,,,,
,,,,,,,,,,,right.png,,p,left,615224b6fec95dfc43439c28,2021-10-22_17h01.15.763,arrow_simon_punish,2021.1.2,Win32,59.93048064,,,,,,,,,,,,,,p,1,2.0517,2.39776181,1,5,14,1,57,0,1,,,,,,,,,,,,,,
,,,,,,,,,,,left.png,,w,left,615224b6fec95dfc43439c28,2021-10-22_17h01.15.763,arrow_simon_punish,2021.1.2,Win32,59.93048064,,,,,,,,,,,,,,p,0,0.1393,2.027129928,1,5,14,2,58,2,1,,,,,,,,,,,,,,
,,,,,,,,,,,left.png,,w,right,615224b6fec95dfc43439c28,2021-10-22_17h01.15.763,arrow_simon_punish,2021.1.2,Win32,59.93048064,,,,,,,,,,,,,,w,1,1.8749,2.08716277,1,5,14,3,59,3,1,,,,,,,,,,,,,,
,,,,,,,,,,,,,,,615224b6fec95dfc43439c28,2021-10-22_17h01.15.763,arrow_simon_punish,2021.1.2,Win32,59.93048064,,,,,,,,,,,,,,,,,,,,,,,,,space,12.3036,7,2,1,5,1,1,5,,,,,
,,,,,,,,,,,right.png,,p,right,615224b6fec95dfc43439c28,2021-10-22_17h01.15.763,arrow_simon_punish,2021.1.2,Win32,59.93048064,,,,,,,,,,,,,,p,1,1.2759,1.885477455,1,1,0,0,0,1,1,,,,,,,,,,,,,,
,,,,,,,,,,,left.png,,w,left,615224b6fec95dfc43439c28,2021-10-22_17h01.15.763,arrow_simon_punish,2021.1.2,Win32,59.93048064,,,,,,,,,,,,,,w,1,0.9707,1.63073985,1,1,0,1,1,2,1,,,,,,,,,,,,,,
,,,,,,,,,,,left.png,,w,right,615224b6fec95dfc43439c28,2021-10-22_17h01.15.763,arrow_simon_punish,2021.1.2,Win32,59.93048064,,,,,,,,,,,,,,w,1,1.9251,2.319800322,1,1,0,2,2,3,1,,,,,,,,,,,,,,
,,,,,,,,,,,right.png,,p,left,615224b6fec95dfc43439c28,2021-10-22_17h01.15.763,arrow_simon_punish,2021.1.2,Win32,59.93048064,,,,,,,,,,,,,,p,1,1.8076,1.687098045,1,1,0,3,3,0,1,,,,,,,,,,,,,,
,,,,,,,,,,,left.png,,w,right,615224b6fec95dfc43439c28,2021-10-22_17h01.15.763,arrow_simon_punish,2021.1.2,Win32,59.93048064,,,,,,,,,,,,,,w,1,1.6292,1.744544259,1,1,1,0,4,3,1,,,,,,,,,,,,,,
,,,,,,,,,,,right.png,,p,right,615224b6fec95dfc43439c28,2021-10-22_17h01.15.763,arrow_simon_punish,2021.1.2,Win32,59.93048064,,,,,,,,,,,,,,p,1,1.3548,1.533013819,1,1,1,1,5,1,1,,,,,,,,,,,,,,
,,,,,,,,,,,right.png,,p,left,615224b6fec95dfc43439c28,2021-10-22_17h01.15.763,arrow_simon_punish,2021.1.2,Win32,59.93048064,,,,,,,,,,,,,,p,1,1.9701,2.234521935,1,1,1,2,6,0,1,,,,,,,,,,,,,,
,,,,,,,,,,,right.png,,p,right,615224b6fec95dfc43439c28,2021-10-22_17h01.15.763,arrow_simon_punish,2021.1.2,Win32,59.93048064,,,,,,,,,,,,,,p,1,1.7746,1.531565758,1,1,1,3,7,1,1,,,,,,,,,,,,,,
,,,,,,,,,,,right.png,,p,right,615224b6fec95dfc43439c28,2021-10-22_17h01.15.763,arrow_simon_punish,2021.1.2,Win32,59.93048064,,,,,,,,,,,,,,p,1,1.4263,1.967710165,0,1,2,0,8,1,1,,,,,,,,,,,,,,
,,,,,,,,,,,right.png,,p,right,615224b6fec95dfc43439c28,2021-10-22_17h01.15.763,arrow_simon_punish,2021.1.2,Win32,59.93048064,,,,,,,,,,,,,,p,1,1.8592,2.226667704,1,1,2,1,9,1,1,,,,,,,,,,,,,,
,,,,,,,,,,,right.png,,p,left,615224b6fec95dfc43439c28,2021-10-22_17h01.15.763,arrow_simon_punish,2021.1.2,Win32,59.93048064,,,,,,,,,,,,,,p,1,1.8944,2.300882413,1,1,2,2,10,0,1,,,,,,,,,,,,,,
,,,,,,,,,,,left.png,,w,left,615224b6fec95dfc43439c28,2021-10-22_17h01.15.763,arrow_simon_punish,2021.1.2,Win32,59.93048064,,,,,,,,,,,,,,w,1,2.0677,2.401593232,1,1,2,3,11,2,1,,,,,,,,,,,,,,
,,,,,,,,,,,right.png,,p,right,615224b6fec95dfc43439c28,2021-10-22_17h01.15.763,arrow_simon_punish,2021.1.2,Win32,59.93048064,,,,,,,,,,,,,,p,1,1.6892,2.197731415,1,1,3,0,12,1,1,,,,,,,,,,,,,,
,,,,,,,,,,,right.png,,p,right,615224b6fec95dfc43439c28,2021-10-22_17h01.15.763,arrow_simon_punish,2021.1.2,Win32,59.93048064,,,,,,,,,,,,,,p,1,1.5887,1.903474268,0,1,3,1,13,1,1,,,,,,,,,,,,,,
,,,,,,,,,,,left.png,,w,left,615224b6fec95dfc43439c28,2021-10-22_17h01.15.763,arrow_simon_punish,2021.1.2,Win32,59.93048064,,,,,,,,,,,,,,w,1,1.8915,1.657064194,1,1,3,2,14,2,1,,,,,,,,,,,,,,
,,,,,,,,,,,right.png,,p,left,615224b6fec95dfc43439c28,2021-10-22_17h01.15.763,arrow_simon_punish,2021.1.2,Win32,59.93048064,,,,,,,,,,,,,,p,1,1.4856,1.562755164,0,1,3,3,15,0,1,,,,,,,,,,,,,,
,,,,,,,,,,,left.png,,w,right,615224b6fec95dfc43439c28,2021-10-22_17h01.15.763,arrow_simon_punish,2021.1.2,Win32,59.93048064,,,,,,,,,,,,,,w,1,1.8117,2.357337759,1,1,4,0,16,3,1,,,,,,,,,,,,,,
,,,,,,,,,,,left.png,,w,right,615224b6fec95dfc43439c28,2021-10-22_17h01.15.763,arrow_simon_punish,2021.1.2,Win32,59.93048064,,,,,,,,,,,,,,w,1,1.8679,1.561481472,1,1,4,1,17,3,1,,,,,,,,,,,,,,
,,,,,,,,,,,left.png,,w,left,615224b6fec95dfc43439c28,2021-10-22_17h01.15.763,arrow_simon_punish,2021.1.2,Win32,59.93048064,,,,,,,,,,,,,,w,1,1.3205,1.773781706,1,1,4,2,18,2,1,,,,,,,,,,,,,,
,,,,,,,,,,,left.png,,w,right,615224b6fec95dfc43439c28,2021-10-22_17h01.15.763,arrow_simon_punish,2021.1.2,Win32,59.93048064,,,,,,,,,,,,,,w,1,1.485,1.770968141,0,1,4,3,19,3,1,,,,,,,,,,,,,,
,,,,,,,,,,,left.png,,w,left,615224b6fec95dfc43439c28,2021-10-22_17h01.15.763,arrow_simon_punish,2021.1.2,Win32,59.93048064,,,,,,,,,,,,,,w,1,1.8547,1.50391461,1,1,5,0,20,2,1,,,,,,,,,,,,,,
,,,,,,,,,,,left.png,,w,right,615224b6fec95dfc43439c28,2021-10-22_17h01.15.763,arrow_simon_punish,2021.1.2,Win32,59.93048064,,,,,,,,,,,,,,w,1,1.768,1.944206747,1,1,5,1,21,3,1,,,,,,,,,,,,,,
,,,,,,,,,,,right.png,,p,right,615224b6fec95dfc43439c28,2021-10-22_17h01.15.763,arrow_simon_punish,2021.1.2,Win32,59.93048064,,,,,,,,,,,,,,p,1,1.6202,2.004511183,1,1,5,2,22,1,1,,,,,,,,,,,,,,
,,,,,,,,,,,left.png,,w,left,615224b6fec95dfc43439c28,2021-10-22_17h01.15.763,arrow_simon_punish,2021.1.2,Win32,59.93048064,,,,,,,,,,,,,,w,1,1.5258,2.10492302,0,1,5,3,23,2,1,,,,,,,,,,,,,,
,,,,,,,,,,,right.png,,p,left,615224b6fec95dfc43439c28,2021-10-22_17h01.15.763,arrow_simon_punish,2021.1.2,Win32,59.93048064,,,,,,,,,,,,,,p,1,1.4361,1.701584739,0,1,6,0,24,0,1,,,,,,,,,,,,,,
,,,,,,,,,,,right.png,,p,right,615224b6fec95dfc43439c28,2021-10-22_17h01.15.763,arrow_simon_punish,2021.1.2,Win32,59.93048064,,,,,,,,,,,,,,p,1,1.7938,2.163626542,1,1,6,1,25,1,1,,,,,,,,,,,,,,
,,,,,,,,,,,left.png,,w,right,615224b6fec95dfc43439c28,2021-10-22_17h01.15.763,arrow_simon_punish,2021.1.2,Win32,59.93048064,,,,,,,,,,,,,,w,1,1.9179,1.680113507,1,1,6,2,26,3,1,,,,,,,,,,,,,,
,,,,,,,,,,,left.png,,w,left,615224b6fec95dfc43439c28,2021-10-22_17h01.15.763,arrow_simon_punish,2021.1.2,Win32,59.93048064,,,,,,,,,,,,,,w,1,1.5779,2.176730075,0,1,6,3,27,2,1,,,,,,,,,,,,,,
,,,,,,,,,,,right.png,,p,right,615224b6fec95dfc43439c28,2021-10-22_17h01.15.763,arrow_simon_punish,2021.1.2,Win32,59.93048064,,,,,,,,,,,,,,p,1,1.3464,1.615598272,1,1,7,0,28,1,1,,,,,,,,,,,,,,
,,,,,,,,,,,left.png,,w,left,615224b6fec95dfc43439c28,2021-10-22_17h01.15.763,arrow_simon_punish,2021.1.2,Win32,59.93048064,,,,,,,,,,,,,,w,1,1.9876,2.345775241,1,1,7,1,29,2,1,,,,,,,,,,,,,,
,,,,,,,,,,,right.png,,p,left,615224b6fec95dfc43439c28,2021-10-22_17h01.15.763,arrow_simon_punish,2021.1.2,Win32,59.93048064,,,,,,,,,,,,,,p,1,1.9425,1.655641736,1,1,7,2,30,0,1,,,,,,,,,,,,,,
,,,,,,,,,,,right.png,,p,left,615224b6fec95dfc43439c28,2021-10-22_17h01.15.763,arrow_simon_punish,2021.1.2,Win32,59.93048064,,,,,,,,,,,,,,p,1,2.0539,2.475358845,1,1,7,3,31,0,1,,,,,,,,,,,,,,
,,,,,,,,,,,right.png,,p,left,615224b6fec95dfc43439c28,2021-10-22_17h01.15.763,arrow_simon_punish,2021.1.2,Win32,59.93048064,,,,,,,,,,,,,,p,1,1.6461,2.105859315,1,1,8,0,32,0,1,,,,,,,,,,,,,,
,,,,,,,,,,,right.png,,p,right,615224b6fec95dfc43439c28,2021-10-22_17h01.15.763,arrow_simon_punish,2021.1.2,Win32,59.93048064,,,,,,,,,,,,,,p,1,1.8295,2.019627625,1,1,8,1,33,1,1,,,,,,,,,,,,,,
,,,,,,,,,,,right.png,,p,right,615224b6fec95dfc43439c28,2021-10-22_17h01.15.763,arrow_simon_punish,2021.1.2,Win32,59.93048064,,,,,,,,,,,,,,p,1,1.5037,2.045920342,0,1,8,2,34,1,1,,,,,,,,,,,,,,
,,,,,,,,,,,left.png,,w,left,615224b6fec95dfc43439c28,2021-10-22_17h01.15.763,arrow_simon_punish,2021.1.2,Win32,59.93048064,,,,,,,,,,,,,,w,1,1.6557,1.682192689,1,1,8,3,35,2,1,,,,,,,,,,,,,,
,,,,,,,,,,,right.png,,p,left,615224b6fec95dfc43439c28,2021-10-22_17h01.15.763,arrow_simon_punish,2021.1.2,Win32,59.93048064,,,,,,,,,,,,,,w,0,1.5561,2.252838653,1,1,9,0,36,0,1,,,,,,,,,,,,,,
,,,,,,,,,,,right.png,,p,right,615224b6fec95dfc43439c28,2021-10-22_17h01.15.763,arrow_simon_punish,2021.1.2,Win32,59.93048064,,,,,,,,,,,,,,p,1,1.7881,2.056313344,1,1,9,1,37,1,1,,,,,,,,,,,,,,
,,,,,,,,,,,right.png,,p,right,615224b6fec95dfc43439c28,2021-10-22_17h01.15.763,arrow_simon_punish,2021.1.2,Win32,59.93048064,,,,,,,,,,,,,,p,1,1.2372,1.681779606,1,1,9,2,38,1,1,,,,,,,,,,,,,,
,,,,,,,,,,,left.png,,w,right,615224b6fec95dfc43439c28,2021-10-22_17h01.15.763,arrow_simon_punish,2021.1.2,Win32,59.93048064,,,,,,,,,,,,,,w,1,1.5852,1.715267017,0,1,9,3,39,3,1,,,,,,,,,,,,,,
,,,,,,,,,,,left.png,,w,right,615224b6fec95dfc43439c28,2021-10-22_17h01.15.763,arrow_simon_punish,2021.1.2,Win32,59.93048064,,,,,,,,,,,,,,w,1,1.6188,1.828261897,1,1,10,0,40,3,1,,,,,,,,,,,,,,
,,,,,,,,,,,left.png,,w,left,615224b6fec95dfc43439c28,2021-10-22_17h01.15.763,arrow_simon_punish,2021.1.2,Win32,59.93048064,,,,,,,,,,,,,,w,1,1.8699,2.476660216,1,1,10,1,41,2,1,,,,,,,,,,,,,,
,,,,,,,,,,,left.png,,w,right,615224b6fec95dfc43439c28,2021-10-22_17h01.15.763,arrow_simon_punish,2021.1.2,Win32,59.93048064,,,,,,,,,,,,,,w,1,1.7107,2.092309309,1,1,10,2,42,3,1,,,,,,,,,,,,,,
,,,,,,,,,,,right.png,,p,left,615224b6fec95dfc43439c28,2021-10-22_17h01.15.763,arrow_simon_punish,2021.1.2,Win32,59.93048064,,,,,,,,,,,,,,p,1,1.552,1.623551156,0,1,10,3,43,0,1,,,,,,,,,,,,,,
,,,,,,,,,,,left.png,,w,right,615224b6fec95dfc43439c28,2021-10-22_17h01.15.763,arrow_simon_punish,2021.1.2,Win32,59.93048064,,,,,,,,,,,,,,w,1,1.244,1.637964154,1,1,11,0,44,3,1,,,,,,,,,,,,,,
,,,,,,,,,,,left.png,,w,right,615224b6fec95dfc43439c28,2021-10-22_17h01.15.763,arrow_simon_punish,2021.1.2,Win32,59.93048064,,,,,,,,,,,,,,p,0,2.3129,1.733954851,1,1,11,1,45,3,1,,,,,,,,,,,,,,
,,,,,,,,,,,right.png,,p,left,615224b6fec95dfc43439c28,2021-10-22_17h01.15.763,arrow_simon_punish,2021.1.2,Win32,59.93048064,,,,,,,,,,,,,,p,1,1.7213,1.990145386,1,1,11,2,46,0,1,,,,,,,,,,,,,,
,,,,,,,,,,,right.png,,p,left,615224b6fec95dfc43439c28,2021-10-22_17h01.15.763,arrow_simon_punish,2021.1.2,Win32,59.93048064,,,,,,,,,,,,,,w,0,2.0536,2.417114406,1,1,11,3,47,0,1,,,,,,,,,,,,,,
,,,,,,,,,,,left.png,,w,left,615224b6fec95dfc43439c28,2021-10-22_17h01.15.763,arrow_simon_punish,2021.1.2,Win32,59.93048064,,,,,,,,,,,,,,w,1,1.9593,2.323510235,1,1,12,0,48,2,1,,,,,,,,,,,,,,
,,,,,,,,,,,right.png,,p,left,615224b6fec95dfc43439c28,2021-10-22_17h01.15.763,arrow_simon_punish,2021.1.2,Win32,59.93048064,,,,,,,,,,,,,,p,1,1.7273,1.918921194,1,1,12,1,49,0,1,,,,,,,,,,,,,,
,,,,,,,,,,,right.png,,p,right,615224b6fec95dfc43439c28,2021-10-22_17h01.15.763,arrow_simon_punish,2021.1.2,Win32,59.93048064,,,,,,,,,,,,,,p,1,1.2694,1.705811443,1,1,12,2,50,1,1,,,,,,,,,,,,,,
,,,,,,,,,,,left.png,,w,right,615224b6fec95dfc43439c28,2021-10-22_17h01.15.763,arrow_simon_punish,2021.1.2,Win32,59.93048064,,,,,,,,,,,,,,w,1,1.4209,1.890868382,0,1,12,3,51,3,1,,,,,,,,,,,,,,
,,,,,,,,,,,right.png,,p,left,615224b6fec95dfc43439c28,2021-10-22_17h01.15.763,arrow_simon_punish,2021.1.2,Win32,59.93048064,,,,,,,,,,,,,,p,1,1.6875,2.24665713,1,1,13,0,52,0,1,,,,,,,,,,,,,,
,,,,,,,,,,,left.png,,w,left,615224b6fec95dfc43439c28,2021-10-22_17h01.15.763,arrow_simon_punish,2021.1.2,Win32,59.93048064,,,,,,,,,,,,,,w,1,1.8708,2.441517157,1,1,13,1,53,2,1,,,,,,,,,,,,,,
,,,,,,,,,,,left.png,,w,left,615224b6fec95dfc43439c28,2021-10-22_17h01.15.763,arrow_simon_punish,2021.1.2,Win32,59.93048064,,,,,,,,,,,,,,w,1,1.7515,2.279179873,1,1,13,2,54,2,1,,,,,,,,,,,,,,
,,,,,,,,,,,left.png,,w,right,615224b6fec95dfc43439c28,2021-10-22_17h01.15.763,arrow_simon_punish,2021.1.2,Win32,59.93048064,,,,,,,,,,,,,,p,0,1.7222,2.375484182,1,1,13,3,55,3,1,,,,,,,,,,,,,,
,,,,,,,,,,,left.png,,w,left,615224b6fec95dfc43439c28,2021-10-22_17h01.15.763,arrow_simon_punish,2021.1.2,Win32,59.93048064,,,,,,,,,,,,,,w,1,1.6366,1.771387875,1,1,14,0,56,2,1,,,,,,,,,,,,,,
,,,,,,,,,,,left.png,,w,left,615224b6fec95dfc43439c28,2021-10-22_17h01.15.763,arrow_simon_punish,2021.1.2,Win32,59.93048064,,,,,,,,,,,,,,w,1,1.7446,2.077125318,1,1,14,1,57,2,1,,,,,,,,,,,,,,
,,,,,,,,,,,right.png,,p,left,615224b6fec95dfc43439c28,2021-10-22_17h01.15.763,arrow_simon_punish,2021.1.2,Win32,59.93048064,,,,,,,,,,,,,,w,0,1.7429,2.286531187,1,1,14,2,58,0,1,,,,,,,,,,,,,,
,,,,,,,,,,,left.png,,w,right,615224b6fec95dfc43439c28,2021-10-22_17h01.15.763,arrow_simon_punish,2021.1.2,Win32,59.93048064,,,,,,,,,,,,,,w,1,1.887,2.204650094,1,1,14,3,59,3,1,,,,,,,,,,,,,,
,,,,,,,,,,,,,,,615224b6fec95dfc43439c28,2021-10-22_17h01.15.763,arrow_simon_punish,2021.1.2,Win32,59.93048064,,,,,,,,,,,,,,,,,,,,,,,,,space,11.8018,8,3,0,6,0,1,1,,,,,
,,,,,,,,,,,left.png,,w,right,615224b6fec95dfc43439c28,2021-10-22_17h01.15.763,arrow_simon_punish,2021.1.2,Win32,59.93048064,,,,,,,,,,,,,,w,1,0.1399,2.121644322,1,5,0,0,0,3,1,,,,,,,,,,,,,,
,,,,,,,,,,,left.png,,w,left,615224b6fec95dfc43439c28,2021-10-22_17h01.15.763,arrow_simon_punish,2021.1.2,Win32,59.93048064,,,,,,,,,,,,,,w,1,1.2039,1.746427398,1,5,0,1,1,2,1,,,,,,,,,,,,,,
,,,,,,,,,,,left.png,,w,right,615224b6fec95dfc43439c28,2021-10-22_17h01.15.763,arrow_simon_punish,2021.1.2,Win32,59.93048064,,,,,,,,,,,,,,w,1,1.4848,1.770982635,0,5,0,2,2,3,1,,,,,,,,,,,,,,
,,,,,,,,,,,right.png,,p,right,615224b6fec95dfc43439c28,2021-10-22_17h01.15.763,arrow_simon_punish,2021.1.2,Win32,59.93048064,,,,,,,,,,,,,,p,1,1.5938,1.654329373,0,5,0,3,3,1,1,,,,,,,,,,,,,,
,,,,,,,,,,,right.png,,p,right,615224b6fec95dfc43439c28,2021-10-22_17h01.15.763,arrow_simon_punish,2021.1.2,Win32,59.93048064,,,,,,,,,,,,,,p,1,1.8357,1.874665868,1,5,1,0,4,1,1,,,,,,,,,,,,,,
,,,,,,,,,,,right.png,,p,left,615224b6fec95dfc43439c28,2021-10-22_17h01.15.763,arrow_simon_punish,2021.1.2,Win32,59.93048064,,,,,,,,,,,,,,p,1,1.4929,1.787927065,0,5,1,1,5,0,1,,,,,,,,,,,,,,
,,,,,,,,,,,right.png,,p,left,615224b6fec95dfc43439c28,2021-10-22_17h01.15.763,arrow_simon_punish,2021.1.2,Win32,59.93048064,,,,,,,,,,,,,,w,0,1.5696,2.209614229,1,5,1,2,6,0,1,,,,,,,,,,,,,,
,,,,,,,,,,,right.png,,p,right,615224b6fec95dfc43439c28,2021-10-22_17h01.15.763,arrow_simon_punish,2021.1.2,Win32,59.93048064,,,,,,,,,,,,,,p,1,1.875,2.218766078,1,5,1,3,7,1,1,,,,,,,,,,,,,,
