instruct_resp_simon.keys,instruct_resp_simon.corr,instruct_resp_simon.rt,trial_resp_simon.keys,trial_resp_simon.corr,trial_resp_simon.rt,trials_train_simon.thisRepN,trials_train_simon.thisTrialN,trials_train_simon.thisN,trials_train_simon.thisIndex,trials_train_simon.ran,target_file,target_pos,target_resp,target_side,participant,date,expName,psychopyVersion,OS,frameRate,instruct_resp_timing.keys,instruct_resp_timing.corr,instruct_resp_timing.rt,trial_resp_timing.keys,trial_resp_timing.rt,trials_train_timing.thisRepN,trials_train_timing.thisTrialN,trials_train_timing.thisN,trials_train_timing.thisIndex,trials_train_timing.ran,instruct_resp.keys,instruct_resp.corr,instruct_resp.rt,trial_resp.keys,trial_resp.corr,trial_resp.rt,target_onset,err,pun,trials.thisRepN,trials.thisTrialN,trials.thisN,trials.thisIndex,trials.ran,block_note_resp.keys,block_note_resp.rt,block_num,blocks.thisRepN,blocks.thisTrialN,blocks.thisN,blocks.thisIndex,blocks.ran,punish,complete_resp.keys,complete_resp.rt,raffle_trial,raffle_err,raffle_rew
space,0,27.1838,w,1,0.8235,0,0,0,2,1,left.png,,w,left,6153b8fd26f1f8772f9a05da,2021-10-27_12h21.23.744,arrow_simon_punish,2021.1.2,Win32,60.07449237,,,,,,,,,,,,,,,,,,,,,,,,,,,,,,,,,,,,,,
,,,w,0,1.2342,0,1,1,0,1,right.png,,p,left,6153b8fd26f1f8772f9a05da,2021-10-27_12h21.23.744,arrow_simon_punish,2021.1.2,Win32,60.07449237,,,,,,,,,,,,,,,,,,,,,,,,,,,,,,,,,,,,,,
,,,w,1,1.6672,0,2,2,3,1,left.png,,w,right,6153b8fd26f1f8772f9a05da,2021-10-27_12h21.23.744,arrow_simon_punish,2021.1.2,Win32,60.07449237,,,,,,,,,,,,,,,,,,,,,,,,,,,,,,,,,,,,,,
,,,p,1,1.517,0,3,3,1,1,right.png,,p,right,6153b8fd26f1f8772f9a05da,2021-10-27_12h21.23.744,arrow_simon_punish,2021.1.2,Win32,60.07449237,,,,,,,,,,,,,,,,,,,,,,,,,,,,,,,,,,,,,,
,,,w,1,1.4186,1,0,4,3,1,left.png,,w,right,6153b8fd26f1f8772f9a05da,2021-10-27_12h21.23.744,arrow_simon_punish,2021.1.2,Win32,60.07449237,,,,,,,,,,,,,,,,,,,,,,,,,,,,,,,,,,,,,,
,,,p,1,1.5513,1,1,5,0,1,right.png,,p,left,6153b8fd26f1f8772f9a05da,2021-10-27_12h21.23.744,arrow_simon_punish,2021.1.2,Win32,60.07449237,,,,,,,,,,,,,,,,,,,,,,,,,,,,,,,,,,,,,,
,,,w,1,1.2345,1,2,6,2,1,left.png,,w,left,6153b8fd26f1f8772f9a05da,2021-10-27_12h21.23.744,arrow_simon_punish,2021.1.2,Win32,60.07449237,,,,,,,,,,,,,,,,,,,,,,,,,,,,,,,,,,,,,,
,,,p,1,1.0845,1,3,7,1,1,right.png,,p,right,6153b8fd26f1f8772f9a05da,2021-10-27_12h21.23.744,arrow_simon_punish,2021.1.2,Win32,60.07449237,,,,,,,,,,,,,,,,,,,,,,,,,,,,,,,,,,,,,,
,,,p,1,0.9848,2,0,8,1,1,right.png,,p,right,6153b8fd26f1f8772f9a05da,2021-10-27_12h21.23.744,arrow_simon_punish,2021.1.2,Win32,60.07449237,,,,,,,,,,,,,,,,,,,,,,,,,,,,,,,,,,,,,,
,,,p,1,1.468,2,1,9,0,1,right.png,,p,left,6153b8fd26f1f8772f9a05da,2021-10-27_12h21.23.744,arrow_simon_punish,2021.1.2,Win32,60.07449237,,,,,,,,,,,,,,,,,,,,,,,,,,,,,,,,,,,,,,
,,,w,1,1.251,2,2,10,3,1,left.png,,w,right,6153b8fd26f1f8772f9a05da,2021-10-27_12h21.23.744,arrow_simon_punish,2021.1.2,Win32,60.07449237,,,,,,,,,,,,,,,,,,,,,,,,,,,,,,,,,,,,,,
,,,w,1,1.3513,2,3,11,2,1,left.png,,w,left,6153b8fd26f1f8772f9a05da,2021-10-27_12h21.23.744,arrow_simon_punish,2021.1.2,Win32,60.07449237,,,,,,,,,,,,,,,,,,,,,,,,,,,,,,,,,,,,,,
,,,w,1,1.1011,3,0,12,3,1,left.png,,w,right,6153b8fd26f1f8772f9a05da,2021-10-27_12h21.23.744,arrow_simon_punish,2021.1.2,Win32,60.07449237,,,,,,,,,,,,,,,,,,,,,,,,,,,,,,,,,,,,,,
,,,w,1,0.7678,3,1,13,2,1,left.png,,w,left,6153b8fd26f1f8772f9a05da,2021-10-27_12h21.23.744,arrow_simon_punish,2021.1.2,Win32,60.07449237,,,,,,,,,,,,,,,,,,,,,,,,,,,,,,,,,,,,,,
,,,p,1,0.6509,3,2,14,0,1,right.png,,p,left,6153b8fd26f1f8772f9a05da,2021-10-27_12h21.23.744,arrow_simon_punish,2021.1.2,Win32,60.07449237,,,,,,,,,,,,,,,,,,,,,,,,,,,,,,,,,,,,,,
,,,p,1,0.8346,3,3,15,1,1,right.png,,p,right,6153b8fd26f1f8772f9a05da,2021-10-27_12h21.23.744,arrow_simon_punish,2021.1.2,Win32,60.07449237,,,,,,,,,,,,,,,,,,,,,,,,,,,,,,,,,,,,,,
,,,p,1,0.7511,4,0,16,1,1,right.png,,p,right,6153b8fd26f1f8772f9a05da,2021-10-27_12h21.23.744,arrow_simon_punish,2021.1.2,Win32,60.07449237,,,,,,,,,,,,,,,,,,,,,,,,,,,,,,,,,,,,,,
,,,w,1,0.6677,4,1,17,3,1,left.png,,w,right,6153b8fd26f1f8772f9a05da,2021-10-27_12h21.23.744,arrow_simon_punish,2021.1.2,Win32,60.07449237,,,,,,,,,,,,,,,,,,,,,,,,,,,,,,,,,,,,,,
,,,w,1,0.6841,4,2,18,2,1,left.png,,w,left,6153b8fd26f1f8772f9a05da,2021-10-27_12h21.23.744,arrow_simon_punish,2021.1.2,Win32,60.07449237,,,,,,,,,,,,,,,,,,,,,,,,,,,,,,,,,,,,,,
,,,p,1,0.7179,4,3,19,0,1,right.png,,p,left,6153b8fd26f1f8772f9a05da,2021-10-27_12h21.23.744,arrow_simon_punish,2021.1.2,Win32,60.07449237,,,,,,,,,,,,,,,,,,,,,,,,,,,,,,,,,,,,,,
,,,p,1,1.4172,5,0,20,0,1,right.png,,p,left,6153b8fd26f1f8772f9a05da,2021-10-27_12h21.23.744,arrow_simon_punish,2021.1.2,Win32,60.07449237,,,,,,,,,,,,,,,,,,,,,,,,,,,,,,,,,,,,,,
,,,w,1,0.6012,5,1,21,3,1,left.png,,w,right,6153b8fd26f1f8772f9a05da,2021-10-27_12h21.23.744,arrow_simon_punish,2021.1.2,Win32,60.07449237,,,,,,,,,,,,,,,,,,,,,,,,,,,,,,,,,,,,,,
,,,w,1,1.0846,5,2,22,2,1,left.png,,w,left,6153b8fd26f1f8772f9a05da,2021-10-27_12h21.23.744,arrow_simon_punish,2021.1.2,Win32,60.07449237,,,,,,,,,,,,,,,,,,,,,,,,,,,,,,,,,,,,,,
,,,p,1,1.0467,5,3,23,1,1,right.png,,p,right,6153b8fd26f1f8772f9a05da,2021-10-27_12h21.23.744,arrow_simon_punish,2021.1.2,Win32,60.07449237,,,,,,,,,,,,,,,,,,,,,,,,,,,,,,,,,,,,,,
,,,w,1,1.4538,6,0,24,3,1,left.png,,w,right,6153b8fd26f1f8772f9a05da,2021-10-27_12h21.23.744,arrow_simon_punish,2021.1.2,Win32,60.07449237,,,,,,,,,,,,,,,,,,,,,,,,,,,,,,,,,,,,,,
,,,p,1,1.4567,6,1,25,0,1,right.png,,p,left,6153b8fd26f1f8772f9a05da,2021-10-27_12h21.23.744,arrow_simon_punish,2021.1.2,Win32,60.07449237,,,,,,,,,,,,,,,,,,,,,,,,,,,,,,,,,,,,,,
,,,p,1,0.5906,6,2,26,1,1,right.png,,p,right,6153b8fd26f1f8772f9a05da,2021-10-27_12h21.23.744,arrow_simon_punish,2021.1.2,Win32,60.07449237,,,,,,,,,,,,,,,,,,,,,,,,,,,,,,,,,,,,,,
,,,w,1,1.3843,6,3,27,2,1,left.png,,w,left,6153b8fd26f1f8772f9a05da,2021-10-27_12h21.23.744,arrow_simon_punish,2021.1.2,Win32,60.07449237,,,,,,,,,,,,,,,,,,,,,,,,,,,,,,,,,,,,,,
,,,w,1,1.3057,7,0,28,2,1,left.png,,w,left,6153b8fd26f1f8772f9a05da,2021-10-27_12h21.23.744,arrow_simon_punish,2021.1.2,Win32,60.07449237,,,,,,,,,,,,,,,,,,,,,,,,,,,,,,,,,,,,,,
,,,p,1,1.1764,7,1,29,1,1,right.png,,p,right,6153b8fd26f1f8772f9a05da,2021-10-27_12h21.23.744,arrow_simon_punish,2021.1.2,Win32,60.07449237,,,,,,,,,,,,,,,,,,,,,,,,,,,,,,,,,,,,,,
,,,w,1,1.2133,7,2,30,3,1,left.png,,w,right,6153b8fd26f1f8772f9a05da,2021-10-27_12h21.23.744,arrow_simon_punish,2021.1.2,Win32,60.07449237,,,,,,,,,,,,,,,,,,,,,,,,,,,,,,,,,,,,,,
,,,p,1,1.4265,7,3,31,0,1,right.png,,p,left,6153b8fd26f1f8772f9a05da,2021-10-27_12h21.23.744,arrow_simon_punish,2021.1.2,Win32,60.07449237,,,,,,,,,,,,,,,,,,,,,,,,,,,,,,,,,,,,,,
,,,p,1,1.0572,8,0,32,1,1,right.png,,p,right,6153b8fd26f1f8772f9a05da,2021-10-27_12h21.23.744,arrow_simon_punish,2021.1.2,Win32,60.07449237,,,,,,,,,,,,,,,,,,,,,,,,,,,,,,,,,,,,,,
,,,w,0,0.6417,8,1,33,0,1,right.png,,p,left,6153b8fd26f1f8772f9a05da,2021-10-27_12h21.23.744,arrow_simon_punish,2021.1.2,Win32,60.07449237,,,,,,,,,,,,,,,,,,,,,,,,,,,,,,,,,,,,,,
,,,w,1,0.6694,8,2,34,2,1,left.png,,w,left,6153b8fd26f1f8772f9a05da,2021-10-27_12h21.23.744,arrow_simon_punish,2021.1.2,Win32,60.07449237,,,,,,,,,,,,,,,,,,,,,,,,,,,,,,,,,,,,,,
,,,w,1,1.2017,8,3,35,3,1,left.png,,w,right,6153b8fd26f1f8772f9a05da,2021-10-27_12h21.23.744,arrow_simon_punish,2021.1.2,Win32,60.07449237,,,,,,,,,,,,,,,,,,,,,,,,,,,,,,,,,,,,,,
,,,p,1,1.0844,9,0,36,0,1,right.png,,p,left,6153b8fd26f1f8772f9a05da,2021-10-27_12h21.23.744,arrow_simon_punish,2021.1.2,Win32,60.07449237,,,,,,,,,,,,,,,,,,,,,,,,,,,,,,,,,,,,,,
,,,w,1,0.9576,9,1,37,3,1,left.png,,w,right,6153b8fd26f1f8772f9a05da,2021-10-27_12h21.23.744,arrow_simon_punish,2021.1.2,Win32,60.07449237,,,,,,,,,,,,,,,,,,,,,,,,,,,,,,,,,,,,,,
,,,p,1,1.4943,9,2,38,1,1,right.png,,p,right,6153b8fd26f1f8772f9a05da,2021-10-27_12h21.23.744,arrow_simon_punish,2021.1.2,Win32,60.07449237,,,,,,,,,,,,,,,,,,,,,,,,,,,,,,,,,,,,,,
,,,w,1,0.8887,9,3,39,2,1,left.png,,w,left,6153b8fd26f1f8772f9a05da,2021-10-27_12h21.23.744,arrow_simon_punish,2021.1.2,Win32,60.07449237,,,,,,,,,,,,,,,,,,,,,,,,,,,,,,,,,,,,,,
,,,,,,,,,,,,,,,6153b8fd26f1f8772f9a05da,2021-10-27_12h21.23.744,arrow_simon_punish,2021.1.2,Win32,60.07449237,space,0,36.7952,w,2.7564,0,0,0,0,1,,,,,,,,,,,,,,,,,,,,,,,,,,,,
,,,,,,,,,,,,,,,6153b8fd26f1f8772f9a05da,2021-10-27_12h21.23.744,arrow_simon_punish,2021.1.2,Win32,60.07449237,,,,w,2.4343,1,0,1,0,1,,,,,,,,,,,,,,,,,,,,,,,,,,,,
,,,,,,,,,,,,,,,6153b8fd26f1f8772f9a05da,2021-10-27_12h21.23.744,arrow_simon_punish,2021.1.2,Win32,60.07449237,,,,w,2.591,2,0,2,0,1,,,,,,,,,,,,,,,,,,,,,,,,,,,,
,,,,,,,,,,,,,,,6153b8fd26f1f8772f9a05da,2021-10-27_12h21.23.744,arrow_simon_punish,2021.1.2,Win32,60.07449237,,,,w,2.7562,3,0,3,0,1,,,,,,,,,,,,,,,,,,,,,,,,,,,,
,,,,,,,,,,,,,,,6153b8fd26f1f8772f9a05da,2021-10-27_12h21.23.744,arrow_simon_punish,2021.1.2,Win32,60.07449237,,,,p,2.5259,4,0,4,0,1,,,,,,,,,,,,,,,,,,,,,,,,,,,,
,,,,,,,,,,,,,,,6153b8fd26f1f8772f9a05da,2021-10-27_12h21.23.744,arrow_simon_punish,2021.1.2,Win32,60.07449237,,,,w,2.3999,5,0,5,0,1,,,,,,,,,,,,,,,,,,,,,,,,,,,,
,,,,,,,,,,,,,,,6153b8fd26f1f8772f9a05da,2021-10-27_12h21.23.744,arrow_simon_punish,2021.1.2,Win32,60.07449237,,,,p,2.4092,6,0,6,0,1,,,,,,,,,,,,,,,,,,,,,,,,,,,,
,,,,,,,,,,,,,,,6153b8fd26f1f8772f9a05da,2021-10-27_12h21.23.744,arrow_simon_punish,2021.1.2,Win32,60.07449237,,,,w,2.4611,7,0,7,0,1,,,,,,,,,,,,,,,,,,,,,,,,,,,,
,,,,,,,,,,,,,,,6153b8fd26f1f8772f9a05da,2021-10-27_12h21.23.744,arrow_simon_punish,2021.1.2,Win32,60.07449237,,,,p,2.389,8,0,8,0,1,,,,,,,,,,,,,,,,,,,,,,,,,,,,
,,,,,,,,,,,,,,,6153b8fd26f1f8772f9a05da,2021-10-27_12h21.23.744,arrow_simon_punish,2021.1.2,Win32,60.07449237,,,,w,2.4241,9,0,9,0,1,,,,,,,,,,,,,,,,,,,,,,,,,,,,
,,,,,,,,,,,,,,,6153b8fd26f1f8772f9a05da,2021-10-27_12h21.23.744,arrow_simon_punish,2021.1.2,Win32,60.07449237,,,,p,2.4244,10,0,10,0,1,,,,,,,,,,,,,,,,,,,,,,,,,,,,
,,,,,,,,,,,,,,,6153b8fd26f1f8772f9a05da,2021-10-27_12h21.23.744,arrow_simon_punish,2021.1.2,Win32,60.07449237,,,,w,2.4177,11,0,11,0,1,,,,,,,,,,,,,,,,,,,,,,,,,,,,
,,,,,,,,,,,,,,,6153b8fd26f1f8772f9a05da,2021-10-27_12h21.23.744,arrow_simon_punish,2021.1.2,Win32,60.07449237,,,,p,2.4072,12,0,12,0,1,,,,,,,,,,,,,,,,,,,,,,,,,,,,
,,,,,,,,,,,,,,,6153b8fd26f1f8772f9a05da,2021-10-27_12h21.23.744,arrow_simon_punish,2021.1.2,Win32,60.07449237,,,,w,2.4176,13,0,13,0,1,,,,,,,,,,,,,,,,,,,,,,,,,,,,
,,,,,,,,,,,,,,,6153b8fd26f1f8772f9a05da,2021-10-27_12h21.23.744,arrow_simon_punish,2021.1.2,Win32,60.07449237,,,,p,2.4232,14,0,14,0,1,,,,,,,,,,,,,,,,,,,,,,,,,,,,
,,,,,,,,,,,,,,,6153b8fd26f1f8772f9a05da,2021-10-27_12h21.23.744,arrow_simon_punish,2021.1.2,Win32,60.07449237,,,,w,2.3413,15,0,15,0,1,,,,,,,,,,,,,,,,,,,,,,,,,,,,
,,,,,,,,,,,,,,,6153b8fd26f1f8772f9a05da,2021-10-27_12h21.23.744,arrow_simon_punish,2021.1.2,Win32,60.07449237,,,,p,2.4481,16,0,16,0,1,,,,,,,,,,,,,,,,,,,,,,,,,,,,
,,,,,,,,,,,,,,,6153b8fd26f1f8772f9a05da,2021-10-27_12h21.23.744,arrow_simon_punish,2021.1.2,Win32,60.07449237,,,,w,2.4522,17,0,17,0,1,,,,,,,,,,,,,,,,,,,,,,,,,,,,
,,,,,,,,,,,,,,,6153b8fd26f1f8772f9a05da,2021-10-27_12h21.23.744,arrow_simon_punish,2021.1.2,Win32,60.07449237,,,,p,2.4335,18,0,18,0,1,,,,,,,,,,,,,,,,,,,,,,,,,,,,
,,,,,,,,,,,,,,,6153b8fd26f1f8772f9a05da,2021-10-27_12h21.23.744,arrow_simon_punish,2021.1.2,Win32,60.07449237,,,,w,2.4016,19,0,19,0,1,,,,,,,,,,,,,,,,,,,,,,,,,,,,
,,,,,,,,,,,,,,,6153b8fd26f1f8772f9a05da,2021-10-27_12h21.23.744,arrow_simon_punish,2021.1.2,Win32,60.07449237,,,,p,2.4752,20,0,20,0,1,,,,,,,,,,,,,,,,,,,,,,,,,,,,
,,,,,,,,,,,,,,,6153b8fd26f1f8772f9a05da,2021-10-27_12h21.23.744,arrow_simon_punish,2021.1.2,Win32,60.07449237,,,,w,2.4272,21,0,21,0,1,,,,,,,,,,,,,,,,,,,,,,,,,,,,
,,,,,,,,,,,,,,,6153b8fd26f1f8772f9a05da,2021-10-27_12h21.23.744,arrow_simon_punish,2021.1.2,Win32,60.07449237,,,,p,2.3395,22,0,22,0,1,,,,,,,,,,,,,,,,,,,,,,,,,,,,
,,,,,,,,,,,,,,,6153b8fd26f1f8772f9a05da,2021-10-27_12h21.23.744,arrow_simon_punish,2021.1.2,Win32,60.07449237,,,,w,2.3545,23,0,23,0,1,,,,,,,,,,,,,,,,,,,,,,,,,,,,
,,,,,,,,,,,,,,,6153b8fd26f1f8772f9a05da,2021-10-27_12h21.23.744,arrow_simon_punish,2021.1.2,Win32,60.07449237,,,,p,2.4517,24,0,24,0,1,,,,,,,,,,,,,,,,,,,,,,,,,,,,
,,,,,,,,,,,,,,,6153b8fd26f1f8772f9a05da,2021-10-27_12h21.23.744,arrow_simon_punish,2021.1.2,Win32,60.07449237,,,,w,2.4632,25,0,25,0,1,,,,,,,,,,,,,,,,,,,,,,,,,,,,
,,,,,,,,,,,,,,,6153b8fd26f1f8772f9a05da,2021-10-27_12h21.23.744,arrow_simon_punish,2021.1.2,Win32,60.07449237,,,,p,2.4838,26,0,26,0,1,,,,,,,,,,,,,,,,,,,,,,,,,,,,
,,,,,,,,,,,,,,,6153b8fd26f1f8772f9a05da,2021-10-27_12h21.23.744,arrow_simon_punish,2021.1.2,Win32,60.07449237,,,,w,2.4664,27,0,27,0,1,,,,,,,,,,,,,,,,,,,,,,,,,,,,
,,,,,,,,,,,,,,,6153b8fd26f1f8772f9a05da,2021-10-27_12h21.23.744,arrow_simon_punish,2021.1.2,Win32,60.07449237,,,,p,2.4248,28,0,28,0,1,,,,,,,,,,,,,,,,,,,,,,,,,,,,
,,,,,,,,,,,,,,,6153b8fd26f1f8772f9a05da,2021-10-27_12h21.23.744,arrow_simon_punish,2021.1.2,Win32,60.07449237,,,,w,2.5607,29,0,29,0,1,,,,,,,,,,,,,,,,,,,,,,,,,,,,
,,,,,,,,,,,,,,,6153b8fd26f1f8772f9a05da,2021-10-27_12h21.23.744,arrow_simon_punish,2021.1.2,Win32,60.07449237,,,,p,2.4509,30,0,30,0,1,,,,,,,,,,,,,,,,,,,,,,,,,,,,
,,,,,,,,,,,,,,,6153b8fd26f1f8772f9a05da,2021-10-27_12h21.23.744,arrow_simon_punish,2021.1.2,Win32,60.07449237,,,,w,2.4391,31,0,31,0,1,,,,,,,,,,,,,,,,,,,,,,,,,,,,
,,,,,,,,,,,,,,,6153b8fd26f1f8772f9a05da,2021-10-27_12h21.23.744,arrow_simon_punish,2021.1.2,Win32,60.07449237,,,,p,2.4685,32,0,32,0,1,,,,,,,,,,,,,,,,,,,,,,,,,,,,
,,,,,,,,,,,,,,,6153b8fd26f1f8772f9a05da,2021-10-27_12h21.23.744,arrow_simon_punish,2021.1.2,Win32,60.07449237,,,,w,2.4264,33,0,33,0,1,,,,,,,,,,,,,,,,,,,,,,,,,,,,
,,,,,,,,,,,,,,,6153b8fd26f1f8772f9a05da,2021-10-27_12h21.23.744,arrow_simon_punish,2021.1.2,Win32,60.07449237,,,,p,2.5048,34,0,34,0,1,,,,,,,,,,,,,,,,,,,,,,,,,,,,
,,,,,,,,,,,,,,,6153b8fd26f1f8772f9a05da,2021-10-27_12h21.23.744,arrow_simon_punish,2021.1.2,Win32,60.07449237,,,,w,2.472,35,0,35,0,1,,,,,,,,,,,,,,,,,,,,,,,,,,,,
,,,,,,,,,,,,,,,6153b8fd26f1f8772f9a05da,2021-10-27_12h21.23.744,arrow_simon_punish,2021.1.2,Win32,60.07449237,,,,p,2.408,36,0,36,0,1,,,,,,,,,,,,,,,,,,,,,,,,,,,,
,,,,,,,,,,,,,,,6153b8fd26f1f8772f9a05da,2021-10-27_12h21.23.744,arrow_simon_punish,2021.1.2,Win32,60.07449237,,,,w,2.5167,37,0,37,0,1,,,,,,,,,,,,,,,,,,,,,,,,,,,,
,,,,,,,,,,,,,,,6153b8fd26f1f8772f9a05da,2021-10-27_12h21.23.744,arrow_simon_punish,2021.1.2,Win32,60.07449237,,,,p,2.4697,38,0,38,0,1,,,,,,,,,,,,,,,,,,,,,,,,,,,,
,,,,,,,,,,,,,,,6153b8fd26f1f8772f9a05da,2021-10-27_12h21.23.744,arrow_simon_punish,2021.1.2,Win32,60.07449237,,,,w,2.446,39,0,39,0,1,,,,,,,,,,,,,,,,,,,,,,,,,,,,
,,,,,,,,,,,,,,,6153b8fd26f1f8772f9a05da,2021-10-27_12h21.23.744,arrow_simon_punish,2021.1.2,Win32,60.07449237,,,,p,2.4565,40,0,40,0,1,,,,,,,,,,,,,,,,,,,,,,,,,,,,
,,,,,,,,,,,,,,,6153b8fd26f1f8772f9a05da,2021-10-27_12h21.23.744,arrow_simon_punish,2021.1.2,Win32,60.07449237,,,,w,2.4043,41,0,41,0,1,,,,,,,,,,,,,,,,,,,,,,,,,,,,
,,,,,,,,,,,,,,,6153b8fd26f1f8772f9a05da,2021-10-27_12h21.23.744,arrow_simon_punish,2021.1.2,Win32,60.07449237,,,,p,2.4175,42,0,42,0,1,,,,,,,,,,,,,,,,,,,,,,,,,,,,
,,,,,,,,,,,,,,,6153b8fd26f1f8772f9a05da,2021-10-27_12h21.23.744,arrow_simon_punish,2021.1.2,Win32,60.07449237,,,,w,2.371,43,0,43,0,1,,,,,,,,,,,,,,,,,,,,,,,,,,,,
,,,,,,,,,,,,,,,6153b8fd26f1f8772f9a05da,2021-10-27_12h21.23.744,arrow_simon_punish,2021.1.2,Win32,60.07449237,,,,p,2.4093,44,0,44,0,1,,,,,,,,,,,,,,,,,,,,,,,,,,,,
,,,,,,,,,,,,,,,6153b8fd26f1f8772f9a05da,2021-10-27_12h21.23.744,arrow_simon_punish,2021.1.2,Win32,60.07449237,,,,w,2.369,45,0,45,0,1,,,,,,,,,,,,,,,,,,,,,,,,,,,,
,,,,,,,,,,,,,,,6153b8fd26f1f8772f9a05da,2021-10-27_12h21.23.744,arrow_simon_punish,2021.1.2,Win32,60.07449237,,,,w,2.4366,46,0,46,0,1,,,,,,,,,,,,,,,,,,,,,,,,,,,,
,,,,,,,,,,,,,,,6153b8fd26f1f8772f9a05da,2021-10-27_12h21.23.744,arrow_simon_punish,2021.1.2,Win32,60.07449237,,,,p,2.4844,47,0,47,0,1,,,,,,,,,,,,,,,,,,,,,,,,,,,,
,,,,,,,,,,,,,,,6153b8fd26f1f8772f9a05da,2021-10-27_12h21.23.744,arrow_simon_punish,2021.1.2,Win32,60.07449237,,,,w,2.4415,48,0,48,0,1,,,,,,,,,,,,,,,,,,,,,,,,,,,,
,,,,,,,,,,,,,,,6153b8fd26f1f8772f9a05da,2021-10-27_12h21.23.744,arrow_simon_punish,2021.1.2,Win32,60.07449237,,,,p,2.536,49,0,49,0,1,,,,,,,,,,,,,,,,,,,,,,,,,,,,
,,,,,,,,,,,,,,,6153b8fd26f1f8772f9a05da,2021-10-27_12h21.23.744,arrow_simon_punish,2021.1.2,Win32,60.07449237,,,,w,2.5041,50,0,50,0,1,,,,,,,,,,,,,,,,,,,,,,,,,,,,
,,,,,,,,,,,,,,,6153b8fd26f1f8772f9a05da,2021-10-27_12h21.23.744,arrow_simon_punish,2021.1.2,Win32,60.07449237,,,,p,2.4449,51,0,51,0,1,,,,,,,,,,,,,,,,,,,,,,,,,,,,
,,,,,,,,,,,,,,,6153b8fd26f1f8772f9a05da,2021-10-27_12h21.23.744,arrow_simon_punish,2021.1.2,Win32,60.07449237,,,,w,2.4676,52,0,52,0,1,,,,,,,,,,,,,,,,,,,,,,,,,,,,
,,,,,,,,,,,,,,,6153b8fd26f1f8772f9a05da,2021-10-27_12h21.23.744,arrow_simon_punish,2021.1.2,Win32,60.07449237,,,,p,2.4121,53,0,53,0,1,,,,,,,,,,,,,,,,,,,,,,,,,,,,
,,,,,,,,,,,,,,,6153b8fd26f1f8772f9a05da,2021-10-27_12h21.23.744,arrow_simon_punish,2021.1.2,Win32,60.07449237,,,,w,2.4959,54,0,54,0,1,,,,,,,,,,,,,,,,,,,,,,,,,,,,
,,,,,,,,,,,,,,,6153b8fd26f1f8772f9a05da,2021-10-27_12h21.23.744,arrow_simon_punish,2021.1.2,Win32,60.07449237,,,,p,2.413,55,0,55,0,1,,,,,,,,,,,,,,,,,,,,,,,,,,,,
,,,,,,,,,,,,,,,6153b8fd26f1f8772f9a05da,2021-10-27_12h21.23.744,arrow_simon_punish,2021.1.2,Win32,60.07449237,,,,w,2.4374,56,0,56,0,1,,,,,,,,,,,,,,,,,,,,,,,,,,,,
,,,,,,,,,,,,,,,6153b8fd26f1f8772f9a05da,2021-10-27_12h21.23.744,arrow_simon_punish,2021.1.2,Win32,60.07449237,,,,p,2.4095,57,0,57,0,1,,,,,,,,,,,,,,,,,,,,,,,,,,,,
,,,,,,,,,,,,,,,6153b8fd26f1f8772f9a05da,2021-10-27_12h21.23.744,arrow_simon_punish,2021.1.2,Win32,60.07449237,,,,w,2.5449,58,0,58,0,1,,,,,,,,,,,,,,,,,,,,,,,,,,,,
,,,,,,,,,,,,,,,6153b8fd26f1f8772f9a05da,2021-10-27_12h21.23.744,arrow_simon_punish,2021.1.2,Win32,60.07449237,,,,p,2.4023,59,0,59,0,1,,,,,,,,,,,,,,,,,,,,,,,,,,,,
,,,,,,,,,,,left.png,,w,right,6153b8fd26f1f8772f9a05da,2021-10-27_12h21.23.744,arrow_simon_punish,2021.1.2,Win32,60.07449237,,,,,,,,,,,space,0,79.468,w,1,1.2687,1.726457536,1,1,0,0,0,3,1,,,,,,,,,,,,,,
,,,,,,,,,,,left.png,,w,left,6153b8fd26f1f8772f9a05da,2021-10-27_12h21.23.744,arrow_simon_punish,2021.1.2,Win32,60.07449237,,,,,,,,,,,,,,w,1,1.484,1.855175171,0,1,0,1,1,2,1,,,,,,,,,,,,,,
,,,,,,,,,,,left.png,,w,right,6153b8fd26f1f8772f9a05da,2021-10-27_12h21.23.744,arrow_simon_punish,2021.1.2,Win32,60.07449237,,,,,,,,,,,,,,w,1,1.9327,1.976181449,1,1,0,2,2,3,1,,,,,,,,,,,,,,
,,,,,,,,,,,right.png,,p,right,6153b8fd26f1f8772f9a05da,2021-10-27_12h21.23.744,arrow_simon_punish,2021.1.2,Win32,60.07449237,,,,,,,,,,,,,,p,1,1.635,1.5759523,1,1,0,3,3,1,1,,,,,,,,,,,,,,
,,,,,,,,,,,right.png,,p,left,6153b8fd26f1f8772f9a05da,2021-10-27_12h21.23.744,arrow_simon_punish,2021.1.2,Win32,60.07449237,,,,,,,,,,,,,,p,1,1.6019,1.58036858,1,1,1,0,4,0,1,,,,,,,,,,,,,,
,,,,,,,,,,,right.png,,p,right,6153b8fd26f1f8772f9a05da,2021-10-27_12h21.23.744,arrow_simon_punish,2021.1.2,Win32,60.07449237,,,,,,,,,,,,,,p,1,1.6192,1.651399346,1,1,1,1,5,1,1,,,,,,,,,,,,,,
,,,,,,,,,,,left.png,,w,right,6153b8fd26f1f8772f9a05da,2021-10-27_12h21.23.744,arrow_simon_punish,2021.1.2,Win32,60.07449237,,,,,,,,,,,,,,w,1,1.4684,1.534801128,0,1,1,2,6,3,1,,,,,,,,,,,,,,
,,,,,,,,,,,left.png,,w,right,6153b8fd26f1f8772f9a05da,2021-10-27_12h21.23.744,arrow_simon_punish,2021.1.2,Win32,60.07449237,,,,,,,,,,,,,,w,1,1.3677,1.578888801,1,1,1,3,7,3,1,,,,,,,,,,,,,,
,,,,,,,,,,,left.png,,w,left,6153b8fd26f1f8772f9a05da,2021-10-27_12h21.23.744,arrow_simon_punish,2021.1.2,Win32,60.07449237,,,,,,,,,,,,,,p,0,1.5857,2.475411836,1,1,2,0,8,2,1,,,,,,,,,,,,,,
,,,,,,,,,,,left.png,,w,left,6153b8fd26f1f8772f9a05da,2021-10-27_12h21.23.744,arrow_simon_punish,2021.1.2,Win32,60.07449237,,,,,,,,,,,,,,w,1,1.8184,2.487275346,1,1,2,1,9,2,1,,,,,,,,,,,,,,
,,,,,,,,,,,left.png,,w,left,6153b8fd26f1f8772f9a05da,2021-10-27_12h21.23.744,arrow_simon_punish,2021.1.2,Win32,60.07449237,,,,,,,,,,,,,,w,1,1.7164,2.452705354,1,1,2,2,10,2,1,,,,,,,,,,,,,,
,,,,,,,,,,,right.png,,p,left,6153b8fd26f1f8772f9a05da,2021-10-27_12h21.23.744,arrow_simon_punish,2021.1.2,Win32,60.07449237,,,,,,,,,,,,,,p,1,1.301,1.849857471,1,1,2,3,11,0,1,,,,,,,,,,,,,,
,,,,,,,,,,,left.png,,w,left,6153b8fd26f1f8772f9a05da,2021-10-27_12h21.23.744,arrow_simon_punish,2021.1.2,Win32,60.07449237,,,,,,,,,,,,,,w,1,3.1279,2.400440379,1,1,3,0,12,2,1,,,,,,,,,,,,,,
,,,,,,,,,,,right.png,,p,left,6153b8fd26f1f8772f9a05da,2021-10-27_12h21.23.744,arrow_simon_punish,2021.1.2,Win32,60.07449237,,,,,,,,,,,,,,w,0,1.4844,2.229764765,1,1,3,1,13,0,1,,,,,,,,,,,,,,
,,,,,,,,,,,left.png,,w,left,6153b8fd26f1f8772f9a05da,2021-10-27_12h21.23.744,arrow_simon_punish,2021.1.2,Win32,60.07449237,,,,,,,,,,,,,,p,0,1.4627,2.335898617,1,1,3,2,14,2,1,,,,,,,,,,,,,,
,,,,,,,,,,,left.png,,w,right,6153b8fd26f1f8772f9a05da,2021-10-27_12h21.23.744,arrow_simon_punish,2021.1.2,Win32,60.07449237,,,,,,,,,,,,,,w,1,1.2403,1.805618177,1,1,3,3,15,3,1,,,,,,,,,,,,,,
,,,,,,,,,,,left.png,,w,left,6153b8fd26f1f8772f9a05da,2021-10-27_12h21.23.744,arrow_simon_punish,2021.1.2,Win32,60.07449237,,,,,,,,,,,,,,w,1,2.2349,2.094031694,1,1,4,0,16,2,1,,,,,,,,,,,,,,
,,,,,,,,,,,left.png,,w,right,6153b8fd26f1f8772f9a05da,2021-10-27_12h21.23.744,arrow_simon_punish,2021.1.2,Win32,60.07449237,,,,,,,,,,,,,,w,1,1.1674,1.948687968,1,1,4,1,17,3,1,,,,,,,,,,,,,,
,,,,,,,,,,,right.png,,p,right,6153b8fd26f1f8772f9a05da,2021-10-27_12h21.23.744,arrow_simon_punish,2021.1.2,Win32,60.07449237,,,,,,,,,,,,,,w,0,1.3872,2.184678674,1,1,4,2,18,1,1,,,,,,,,,,,,,,
,,,,,,,,,,,left.png,,w,right,6153b8fd26f1f8772f9a05da,2021-10-27_12h21.23.744,arrow_simon_punish,2021.1.2,Win32,60.07449237,,,,,,,,,,,,,,p,0,1.3738,2.008085035,1,1,4,3,19,3,1,,,,,,,,,,,,,,
,,,,,,,,,,,right.png,,p,right,6153b8fd26f1f8772f9a05da,2021-10-27_12h21.23.744,arrow_simon_punish,2021.1.2,Win32,60.07449237,,,,,,,,,,,,,,w,0,1.4043,2.294645146,1,1,5,0,20,1,1,,,,,,,,,,,,,,
,,,,,,,,,,,left.png,,w,left,6153b8fd26f1f8772f9a05da,2021-10-27_12h21.23.744,arrow_simon_punish,2021.1.2,Win32,60.07449237,,,,,,,,,,,,,,w,1,1.435,1.953181142,0,1,5,1,21,2,1,,,,,,,,,,,,,,
,,,,,,,,,,,left.png,,w,right,6153b8fd26f1f8772f9a05da,2021-10-27_12h21.23.744,arrow_simon_punish,2021.1.2,Win32,60.07449237,,,,,,,,,,,,,,w,1,1.0786,1.641723065,1,1,5,2,22,3,1,,,,,,,,,,,,,,
,,,,,,,,,,,right.png,,p,left,6153b8fd26f1f8772f9a05da,2021-10-27_12h21.23.744,arrow_simon_punish,2021.1.2,Win32,60.07449237,,,,,,,,,,,,,,p,1,1.2847,1.874778575,1,1,5,3,23,0,1,,,,,,,,,,,,,,
,,,,,,,,,,,right.png,,p,right,6153b8fd26f1f8772f9a05da,2021-10-27_12h21.23.744,arrow_simon_punish,2021.1.2,Win32,60.07449237,,,,,,,,,,,,,,p,1,1.4499,1.990268238,0,1,6,0,24,1,1,,,,,,,,,,,,,,
,,,,,,,,,,,left.png,,w,left,6153b8fd26f1f8772f9a05da,2021-10-27_12h21.23.744,arrow_simon_punish,2021.1.2,Win32,60.07449237,,,,,,,,,,,,,,w,1,1.3177,1.974030529,1,1,6,1,25,2,1,,,,,,,,,,,,,,
,,,,,,,,,,,right.png,,p,right,6153b8fd26f1f8772f9a05da,2021-10-27_12h21.23.744,arrow_simon_punish,2021.1.2,Win32,60.07449237,,,,,,,,,,,,,,p,1,1.3265,2.000888478,1,1,6,2,26,1,1,,,,,,,,,,,,,,
,,,,,,,,,,,right.png,,p,right,6153b8fd26f1f8772f9a05da,2021-10-27_12h21.23.744,arrow_simon_punish,2021.1.2,Win32,60.07449237,,,,,,,,,,,,,,p,1,1.6622,2.226881141,1,1,6,3,27,1,1,,,,,,,,,,,,,,
,,,,,,,,,,,left.png,,w,left,6153b8fd26f1f8772f9a05da,2021-10-27_12h21.23.744,arrow_simon_punish,2021.1.2,Win32,60.07449237,,,,,,,,,,,,,,w,1,1.2009,1.81179048,1,1,7,0,28,2,1,,,,,,,,,,,,,,
,,,,,,,,,,,right.png,,p,right,6153b8fd26f1f8772f9a05da,2021-10-27_12h21.23.744,arrow_simon_punish,2021.1.2,Win32,60.07449237,,,,,,,,,,,,,,p,1,0.9711,1.568913399,1,1,7,1,29,1,1,,,,,,,,,,,,,,
,,,,,,,,,,,right.png,,p,right,6153b8fd26f1f8772f9a05da,2021-10-27_12h21.23.744,arrow_simon_punish,2021.1.2,Win32,60.07449237,,,,,,,,,,,,,,p,1,1.0606,1.616111467,1,1,7,2,30,1,1,,,,,,,,,,,,,,
,,,,,,,,,,,right.png,,p,left,6153b8fd26f1f8772f9a05da,2021-10-27_12h21.23.744,arrow_simon_punish,2021.1.2,Win32,60.07449237,,,,,,,,,,,,,,w,0,1.556,2.280274888,1,1,7,3,31,0,1,,,,,,,,,,,,,,
,,,,,,,,,,,right.png,,p,left,6153b8fd26f1f8772f9a05da,2021-10-27_12h21.23.744,arrow_simon_punish,2021.1.2,Win32,60.07449237,,,,,,,,,,,,,,p,1,1.2774,1.951607396,1,1,8,0,32,0,1,,,,,,,,,,,,,,
,,,,,,,,,,,right.png,,p,right,6153b8fd26f1f8772f9a05da,2021-10-27_12h21.23.744,arrow_simon_punish,2021.1.2,Win32,60.07449237,,,,,,,,,,,,,,p,1,1.4425,2.145684243,0,1,8,1,33,1,1,,,,,,,,,,,,,,
,,,,,,,,,,,right.png,,p,left,6153b8fd26f1f8772f9a05da,2021-10-27_12h21.23.744,arrow_simon_punish,2021.1.2,Win32,60.07449237,,,,,,,,,,,,,,p,1,1.4085,1.903400273,0,1,8,2,34,0,1,,,,,,,,,,,,,,
,,,,,,,,,,,left.png,,w,right,6153b8fd26f1f8772f9a05da,2021-10-27_12h21.23.744,arrow_simon_punish,2021.1.2,Win32,60.07449237,,,,,,,,,,,,,,p,0,1.4671,2.173747326,1,1,8,3,35,3,1,,,,,,,,,,,,,,
,,,,,,,,,,,right.png,,p,right,6153b8fd26f1f8772f9a05da,2021-10-27_12h21.23.744,arrow_simon_punish,2021.1.2,Win32,60.07449237,,,,,,,,,,,,,,p,1,1.502,2.111104247,0,1,9,0,36,1,1,,,,,,,,,,,,,,
,,,,,,,,,,,right.png,,p,left,6153b8fd26f1f8772f9a05da,2021-10-27_12h21.23.744,arrow_simon_punish,2021.1.2,Win32,60.07449237,,,,,,,,,,,,,,p,1,1.1628,1.527496161,1,1,9,1,37,0,1,,,,,,,,,,,,,,
,,,,,,,,,,,right.png,,p,right,6153b8fd26f1f8772f9a05da,2021-10-27_12h21.23.744,arrow_simon_punish,2021.1.2,Win32,60.07449237,,,,,,,,,,,,,,p,1,1.6106,2.428265187,1,1,9,2,38,1,1,,,,,,,,,,,,,,
,,,,,,,,,,,left.png,,w,left,6153b8fd26f1f8772f9a05da,2021-10-27_12h21.23.744,arrow_simon_punish,2021.1.2,Win32,60.07449237,,,,,,,,,,,,,,p,0,1.4075,2.440126279,1,1,9,3,39,2,1,,,,,,,,,,,,,,
,,,,,,,,,,,left.png,,w,left,6153b8fd26f1f8772f9a05da,2021-10-27_12h21.23.744,arrow_simon_punish,2021.1.2,Win32,60.07449237,,,,,,,,,,,,,,w,1,1.6716,2.435778393,1,1,10,0,40,2,1,,,,,,,,,,,,,,
,,,,,,,,,,,right.png,,p,left,6153b8fd26f1f8772f9a05da,2021-10-27_12h21.23.744,arrow_simon_punish,2021.1.2,Win32,60.07449237,,,,,,,,,,,,,,p,1,1.4845,2.414596882,0,1,10,1,41,0,1,,,,,,,,,,,,,,
,,,,,,,,,,,right.png,,p,right,6153b8fd26f1f8772f9a05da,2021-10-27_12h21.23.744,arrow_simon_punish,2021.1.2,Win32,60.07449237,,,,,,,,,,,,,,p,1,1.5032,2.199232812,0,1,10,2,42,1,1,,,,,,,,,,,,,,
,,,,,,,,,,,left.png,,w,left,6153b8fd26f1f8772f9a05da,2021-10-27_12h21.23.744,arrow_simon_punish,2021.1.2,Win32,60.07449237,,,,,,,,,,,,,,w,1,1.1032,1.594246347,1,1,10,3,43,2,1,,,,,,,,,,,,,,
,,,,,,,,,,,right.png,,p,left,6153b8fd26f1f8772f9a05da,2021-10-27_12h21.23.744,arrow_simon_punish,2021.1.2,Win32,60.07449237,,,,,,,,,,,,,,p,1,1.3568,1.979326298,1,1,11,0,44,0,1,,,,,,,,,,,,,,
,,,,,,,,,,,left.png,,w,right,6153b8fd26f1f8772f9a05da,2021-10-27_12h21.23.744,arrow_simon_punish,2021.1.2,Win32,60.07449237,,,,,,,,,,,,,,w,1,1.5375,2.468257785,0,1,11,1,45,3,1,,,,,,,,,,,,,,
,,,,,,,,,,,right.png,,p,right,6153b8fd26f1f8772f9a05da,2021-10-27_12h21.23.744,arrow_simon_punish,2021.1.2,Win32,60.07449237,,,,,,,,,,,,,,p,1,1.3298,1.864494966,1,1,11,2,46,1,1,,,,,,,,,,,,,,
,,,,,,,,,,,left.png,,w,left,6153b8fd26f1f8772f9a05da,2021-10-27_12h21.23.744,arrow_simon_punish,2021.1.2,Win32,60.07449237,,,,,,,,,,,,,,w,1,1.1964,1.804144774,1,1,11,3,47,2,1,,,,,,,,,,,,,,
,,,,,,,,,,,right.png,,p,left,6153b8fd26f1f8772f9a05da,2021-10-27_12h21.23.744,arrow_simon_punish,2021.1.2,Win32,60.07449237,,,,,,,,,,,,,,p,1,1.4682,2.284740684,0,1,12,0,48,0,1,,,,,,,,,,,,,,
,,,,,,,,,,,left.png,,w,right,6153b8fd26f1f8772f9a05da,2021-10-27_12h21.23.744,arrow_simon_punish,2021.1.2,Win32,60.07449237,,,,,,,,,,,,,,w,1,1.126,1.550313104,1,1,12,1,49,3,1,,,,,,,,,,,,,,
,,,,,,,,,,,left.png,,w,right,6153b8fd26f1f8772f9a05da,2021-10-27_12h21.23.744,arrow_simon_punish,2021.1.2,Win32,60.07449237,,,,,,,,,,,,,,p,0,1.4682,2.477846359,1,1,12,2,50,3,1,,,,,,,,,,,,,,
,,,,,,,,,,,right.png,,p,right,6153b8fd26f1f8772f9a05da,2021-10-27_12h21.23.744,arrow_simon_punish,2021.1.2,Win32,60.07449237,,,,,,,,,,,,,,w,0,1.4743,2.339033727,1,1,12,3,51,1,1,,,,,,,,,,,,,,
,,,,,,,,,,,right.png,,p,left,6153b8fd26f1f8772f9a05da,2021-10-27_12h21.23.744,arrow_simon_punish,2021.1.2,Win32,60.07449237,,,,,,,,,,,,,,p,1,1.3708,2.38213209,1,1,13,0,52,0,1,,,,,,,,,,,,,,
,,,,,,,,,,,right.png,,p,left,6153b8fd26f1f8772f9a05da,2021-10-27_12h21.23.744,arrow_simon_punish,2021.1.2,Win32,60.07449237,,,,,,,,,,,,,,p,1,1.2842,1.859632766,1,1,13,1,53,0,1,,,,,,,,,,,,,,
,,,,,,,,,,,right.png,,p,left,6153b8fd26f1f8772f9a05da,2021-10-27_12h21.23.744,arrow_simon_punish,2021.1.2,Win32,60.07449237,,,,,,,,,,,,,,p,1,1.4003,2.048019332,0,1,13,2,54,0,1,,,,,,,,,,,,,,
,,,,,,,,,,,left.png,,w,right,6153b8fd26f1f8772f9a05da,2021-10-27_12h21.23.744,arrow_simon_punish,2021.1.2,Win32,60.07449237,,,,,,,,,,,,,,w,1,1.3015,1.830778669,1,1,13,3,55,3,1,,,,,,,,,,,,,,
,,,,,,,,,,,left.png,,w,right,6153b8fd26f1f8772f9a05da,2021-10-27_12h21.23.744,arrow_simon_punish,2021.1.2,Win32,60.07449237,,,,,,,,,,,,,,p,0,1.3677,2.436840376,1,1,14,0,56,3,1,,,,,,,,,,,,,,
,,,,,,,,,,,left.png,,w,left,6153b8fd26f1f8772f9a05da,2021-10-27_12h21.23.744,arrow_simon_punish,2021.1.2,Win32,60.07449237,,,,,,,,,,,,,,w,1,1.4846,2.105447495,0,1,14,1,57,2,1,,,,,,,,,,,,,,
,,,,,,,,,,,right.png,,p,left,6153b8fd26f1f8772f9a05da,2021-10-27_12h21.23.744,arrow_simon_punish,2021.1.2,Win32,60.07449237,,,,,,,,,,,,,,p,1,1.2695,1.606744422,1,1,14,2,58,0,1,,,,,,,,,,,,,,
,,,,,,,,,,,left.png,,w,right,6153b8fd26f1f8772f9a05da,2021-10-27_12h21.23.744,arrow_simon_punish,2021.1.2,Win32,60.07449237,,,,,,,,,,,,,,p,0,1.6344,2.350709581,1,1,14,3,59,3,1,,,,,,,,,,,,,,
,,,,,,,,,,,,,,,6153b8fd26f1f8772f9a05da,2021-10-27_12h21.23.744,arrow_simon_punish,2021.1.2,Win32,60.07449237,,,,,,,,,,,,,,,,,,,,,,,,,space,25.3295,2,0,0,0,0,1,1,,,,,
,,,,,,,,,,,right.png,,p,right,6153b8fd26f1f8772f9a05da,2021-10-27_12h21.23.744,arrow_simon_punish,2021.1.2,Win32,60.07449237,,,,,,,,,,,,,,p,1,1.4436,2.077462421,0,5,0,0,0,1,1,,,,,,,,,,,,,,
,,,,,,,,,,,right.png,,p,right,6153b8fd26f1f8772f9a05da,2021-10-27_12h21.23.744,arrow_simon_punish,2021.1.2,Win32,60.07449237,,,,,,,,,,,,,,p,1,1.3286,1.899739678,1,5,0,1,1,1,1,,,,,,,,,,,,,,
,,,,,,,,,,,right.png,,p,right,6153b8fd26f1f8772f9a05da,2021-10-27_12h21.23.744,arrow_simon_punish,2021.1.2,Win32,60.07449237,,,,,,,,,,,,,,p,1,1.4912,2.062839252,0,5,0,2,2,1,1,,,,,,,,,,,,,,
,,,,,,,,,,,left.png,,w,left,6153b8fd26f1f8772f9a05da,2021-10-27_12h21.23.744,arrow_simon_punish,2021.1.2,Win32,60.07449237,,,,,,,,,,,,,,w,1,1.4088,2.069975535,0,5,0,3,3,2,1,,,,,,,,,,,,,,
,,,,,,,,,,,left.png,,w,right,6153b8fd26f1f8772f9a05da,2021-10-27_12h21.23.744,arrow_simon_punish,2021.1.2,Win32,60.07449237,,,,,,,,,,,,,,w,1,1.3896,1.753770413,1,5,1,0,4,3,1,,,,,,,,,,,,,,
,,,,,,,,,,,left.png,,w,left,6153b8fd26f1f8772f9a05da,2021-10-27_12h21.23.744,arrow_simon_punish,2021.1.2,Win32,60.07449237,,,,,,,,,,,,,,w,1,1.1039,1.645343652,1,5,1,1,5,2,1,,,,,,,,,,,,,,
,,,,,,,,,,,right.png,,p,right,6153b8fd26f1f8772f9a05da,2021-10-27_12h21.23.744,arrow_simon_punish,2021.1.2,Win32,60.07449237,,,,,,,,,,,,,,p,1,1.3125,1.958648451,1,5,1,2,6,1,1,,,,,,,,,,,,,,
,,,,,,,,,,,right.png,,p,left,6153b8fd26f1f8772f9a05da,2021-10-27_12h21.23.744,arrow_simon_punish,2021.1.2,Win32,60.07449237,,,,,,,,,,,,,,p,1,1.5507,1.922463118,0,5,1,3,7,0,1,,,,,,,,,,,,,,
,,,,,,,,,,,right.png,,p,left,6153b8fd26f1f8772f9a05da,2021-10-27_12h21.23.744,arrow_simon_punish,2021.1.2,Win32,60.07449237,,,,,,,,,,,,,,p,1,1.5459,1.97037287,0,5,2,0,8,0,1,,,,,,,,,,,,,,
,,,,,,,,,,,left.png,,w,left,6153b8fd26f1f8772f9a05da,2021-10-27_12h21.23.744,arrow_simon_punish,2021.1.2,Win32,60.07449237,,,,,,,,,,,,,,w,1,1.5275,1.730558866,0,5,2,1,9,2,1,,,,,,,,,,,,,,
,,,,,,,,,,,left.png,,w,right,6153b8fd26f1f8772f9a05da,2021-10-27_12h21.23.744,arrow_simon_punish,2021.1.2,Win32,60.07449237,,,,,,,,,,,,,,w,1,1.5429,1.931590004,0,5,2,2,10,3,1,,,,,,,,,,,,,,
,,,,,,,,,,,left.png,,w,right,6153b8fd26f1f8772f9a05da,2021-10-27_12h21.23.744,arrow_simon_punish,2021.1.2,Win32,60.07449237,,,,,,,,,,,,,,p,0,1.5185,2.1203832,1,5,2,3,11,3,1,,,,,,,,,,,,,,
,,,,,,,,,,,right.png,,p,left,6153b8fd26f1f8772f9a05da,2021-10-27_12h21.23.744,arrow_simon_punish,2021.1.2,Win32,60.07449237,,,,,,,,,,,,,,p,1,1.6345,2.190658603,1,5,3,0,12,0,1,,,,,,,,,,,,,,
,,,,,,,,,,,left.png,,w,left,6153b8fd26f1f8772f9a05da,2021-10-27_12h21.23.744,arrow_simon_punish,2021.1.2,Win32,60.07449237,,,,,,,,,,,,,,w,1,1.5583,2.27872554,0,5,3,1,13,2,1,,,,,,,,,,,,,,
,,,,,,,,,,,right.png,,p,left,6153b8fd26f1f8772f9a05da,2021-10-27_12h21.23.744,arrow_simon_punish,2021.1.2,Win32,60.07449237,,,,,,,,,,,,,,w,0,1.6579,2.413054377,1,5,3,2,14,0,1,,,,,,,,,,,,,,
,,,,,,,,,,,right.png,,p,left,6153b8fd26f1f8772f9a05da,2021-10-27_12h21.23.744,arrow_simon_punish,2021.1.2,Win32,60.07449237,,,,,,,,,,,,,,p,1,1.7765,2.417358997,1,5,3,3,15,0,1,,,,,,,,,,,,,,
,,,,,,,,,,,left.png,,w,left,6153b8fd26f1f8772f9a05da,2021-10-27_12h21.23.744,arrow_simon_punish,2021.1.2,Win32,60.07449237,,,,,,,,,,,,,,w,1,1.8426,2.449720711,1,5,4,0,16,2,1,,,,,,,,,,,,,,
,,,,,,,,,,,left.png,,w,left,6153b8fd26f1f8772f9a05da,2021-10-27_12h21.23.744,arrow_simon_punish,2021.1.2,Win32,60.07449237,,,,,,,,,,,,,,w,1,1.1011,1.595788249,1,5,4,1,17,2,1,,,,,,,,,,,,,,
,,,,,,,,,,,left.png,,w,right,6153b8fd26f1f8772f9a05da,2021-10-27_12h21.23.744,arrow_simon_punish,2021.1.2,Win32,60.07449237,,,,,,,,,,,,,,w,1,1.3394,1.80904214,1,5,4,2,18,3,1,,,,,,,,,,,,,,
,,,,,,,,,,,left.png,,w,right,6153b8fd26f1f8772f9a05da,2021-10-27_12h21.23.744,arrow_simon_punish,2021.1.2,Win32,60.07449237,,,,,,,,,,,,,,w,1,1.5464,2.149320833,0,5,4,3,19,3,1,,,,,,,,,,,,,,
,,,,,,,,,,,right.png,,p,left,6153b8fd26f1f8772f9a05da,2021-10-27_12h21.23.744,arrow_simon_punish,2021.1.2,Win32,60.07449237,,,,,,,,,,,,,,w,0,1.6214,2.369806143,1,5,5,0,20,0,1,,,,,,,,,,,,,,
,,,,,,,,,,,left.png,,w,left,6153b8fd26f1f8772f9a05da,2021-10-27_12h21.23.744,arrow_simon_punish,2021.1.2,Win32,60.07449237,,,,,,,,,,,,,,w,1,1.3391,1.637528751,1,5,5,1,21,2,1,,,,,,,,,,,,,,
,,,,,,,,,,,right.png,,p,right,6153b8fd26f1f8772f9a05da,2021-10-27_12h21.23.744,arrow_simon_punish,2021.1.2,Win32,60.07449237,,,,,,,,,,,,,,p,1,1.7336,2.410811901,1,5,5,2,22,1,1,,,,,,,,,,,,,,
,,,,,,,,,,,left.png,,w,right,6153b8fd26f1f8772f9a05da,2021-10-27_12h21.23.744,arrow_simon_punish,2021.1.2,Win32,60.07449237,,,,,,,,,,,,,,w,1,1.3035,1.679793729,1,5,5,3,23,3,1,,,,,,,,,,,,,,
,,,,,,,,,,,right.png,,p,left,6153b8fd26f1f8772f9a05da,2021-10-27_12h21.23.744,arrow_simon_punish,2021.1.2,Win32,60.07449237,,,,,,,,,,,,,,p,1,1.5456,1.818991062,0,5,6,0,24,0,1,,,,,,,,,,,,,,
,,,,,,,,,,,right.png,,p,right,6153b8fd26f1f8772f9a05da,2021-10-27_12h21.23.744,arrow_simon_punish,2021.1.2,Win32,60.07449237,,,,,,,,,,,,,,p,1,1.4834,1.981386696,0,5,6,1,25,1,1,,,,,,,,,,,,,,
,,,,,,,,,,,right.png,,p,left,6153b8fd26f1f8772f9a05da,2021-10-27_12h21.23.744,arrow_simon_punish,2021.1.2,Win32,60.07449237,,,,,,,,,,,,,,p,1,1.5426,1.56817706,0,5,6,2,26,0,1,,,,,,,,,,,,,,
,,,,,,,,,,,left.png,,w,right,6153b8fd26f1f8772f9a05da,2021-10-27_12h21.23.744,arrow_simon_punish,2021.1.2,Win32,60.07449237,,,,,,,,,,,,,,w,1,1.5859,2.099217025,0,5,6,3,27,3,1,,,,,,,,,,,,,,
,,,,,,,,,,,right.png,,p,left,6153b8fd26f1f8772f9a05da,2021-10-27_12h21.23.744,arrow_simon_punish,2021.1.2,Win32,60.07449237,,,,,,,,,,,,,,p,1,1.7017,2.298614624,1,5,7,0,28,0,1,,,,,,,,,,,,,,
,,,,,,,,,,,right.png,,p,left,6153b8fd26f1f8772f9a05da,2021-10-27_12h21.23.744,arrow_simon_punish,2021.1.2,Win32,60.07449237,,,,,,,,,,,,,,p,1,1.5844,2.147857306,0,5,7,1,29,0,1,,,,,,,,,,,,,,
,,,,,,,,,,,right.png,,p,right,6153b8fd26f1f8772f9a05da,2021-10-27_12h21.23.744,arrow_simon_punish,2021.1.2,Win32,60.07449237,,,,,,,,,,,,,,p,1,1.3909,1.911730725,1,5,7,2,30,1,1,,,,,,,,,,,,,,
,,,,,,,,,,,right.png,,p,right,6153b8fd26f1f8772f9a05da,2021-10-27_12h21.23.744,arrow_simon_punish,2021.1.2,Win32,60.07449237,,,,,,,,,,,,,,p,1,1.4569,1.715147718,0,5,7,3,31,1,1,,,,,,,,,,,,,,
,,,,,,,,,,,right.png,,p,right,6153b8fd26f1f8772f9a05da,2021-10-27_12h21.23.744,arrow_simon_punish,2021.1.2,Win32,60.07449237,,,,,,,,,,,,,,p,1,1.5844,2.117618439,0,5,8,0,32,1,1,,,,,,,,,,,,,,
,,,,,,,,,,,right.png,,p,left,6153b8fd26f1f8772f9a05da,2021-10-27_12h21.23.744,arrow_simon_punish,2021.1.2,Win32,60.07449237,,,,,,,,,,,,,,w,0,1.6522,2.308700666,1,5,8,1,33,0,1,,,,,,,,,,,,,,
,,,,,,,,,,,left.png,,w,right,6153b8fd26f1f8772f9a05da,2021-10-27_12h21.23.744,arrow_simon_punish,2021.1.2,Win32,60.07449237,,,,,,,,,,,,,,w,1,1.5889,2.070773439,0,5,8,2,34,3,1,,,,,,,,,,,,,,
,,,,,,,,,,,right.png,,p,right,6153b8fd26f1f8772f9a05da,2021-10-27_12h21.23.744,arrow_simon_punish,2021.1.2,Win32,60.07449237,,,,,,,,,,,,,,p,1,1.4184,1.538221268,0,5,8,3,35,1,1,,,,,,,,,,,,,,
,,,,,,,,,,,right.png,,p,right,6153b8fd26f1f8772f9a05da,2021-10-27_12h21.23.744,arrow_simon_punish,2021.1.2,Win32,60.07449237,,,,,,,,,,,,,,p,1,1.6684,2.316328963,1,5,9,0,36,1,1,,,,,,,,,,,,,,
,,,,,,,,,,,right.png,,p,left,6153b8fd26f1f8772f9a05da,2021-10-27_12h21.23.744,arrow_simon_punish,2021.1.2,Win32,60.07449237,,,,,,,,,,,,,,p,1,1.5568,2.124978975,0,5,9,1,37,0,1,,,,,,,,,,,,,,
,,,,,,,,,,,right.png,,p,left,6153b8fd26f1f8772f9a05da,2021-10-27_12h21.23.744,arrow_simon_punish,2021.1.2,Win32,60.07449237,,,,,,,,,,,,,,p,1,1.3247,1.824568071,1,5,9,2,38,0,1,,,,,,,,,,,,,,
,,,,,,,,,,,right.png,,p,right,6153b8fd26f1f8772f9a05da,2021-10-27_12h21.23.744,arrow_simon_punish,2021.1.2,Win32,60.07449237,,,,,,,,,,,,,,p,1,1.4182,2.009870602,0,5,9,3,39,1,1,,,,,,,,,,,,,,
,,,,,,,,,,,left.png,,w,right,6153b8fd26f1f8772f9a05da,2021-10-27_12h21.23.744,arrow_simon_punish,2021.1.2,Win32,60.07449237,,,,,,,,,,,,,,w,1,1.7521,2.206081605,1,5,10,0,40,3,1,,,,,,,,,,,,,,
,,,,,,,,,,,right.png,,p,right,6153b8fd26f1f8772f9a05da,2021-10-27_12h21.23.744,arrow_simon_punish,2021.1.2,Win32,60.07449237,,,,,,,,,,,,,,p,1,1.2008,1.825289412,1,5,10,1,41,1,1,,,,,,,,,,,,,,
,,,,,,,,,,,left.png,,w,left,6153b8fd26f1f8772f9a05da,2021-10-27_12h21.23.744,arrow_simon_punish,2021.1.2,Win32,60.07449237,,,,,,,,,,,,,,w,1,1.5535,2.062722719,0,5,10,2,42,2,1,,,,,,,,,,,,,,
,,,,,,,,,,,left.png,,w,left,6153b8fd26f1f8772f9a05da,2021-10-27_12h21.23.744,arrow_simon_punish,2021.1.2,Win32,60.07449237,,,,,,,,,,,,,,w,1,1.4356,1.677987838,0,5,10,3,43,2,1,,,,,,,,,,,,,,
,,,,,,,,,,,left.png,,w,right,6153b8fd26f1f8772f9a05da,2021-10-27_12h21.23.744,arrow_simon_punish,2021.1.2,Win32,60.07449237,,,,,,,,,,,,,,p,0,1.6235,2.384258535,1,5,11,0,44,3,1,,,,,,,,,,,,,,
,,,,,,,,,,,left.png,,w,left,6153b8fd26f1f8772f9a05da,2021-10-27_12h21.23.744,arrow_simon_punish,2021.1.2,Win32,60.07449237,,,,,,,,,,,,,,w,1,1.7042,2.37290985,1,5,11,1,45,2,1,,,,,,,,,,,,,,
,,,,,,,,,,,left.png,,w,right,6153b8fd26f1f8772f9a05da,2021-10-27_12h21.23.744,arrow_simon_punish,2021.1.2,Win32,60.07449237,,,,,,,,,,,,,,w,1,1.4853,2.016455328,0,5,11,2,46,3,1,,,,,,,,,,,,,,
,,,,,,,,,,,left.png,,w,left,6153b8fd26f1f8772f9a05da,2021-10-27_12h21.23.744,arrow_simon_punish,2021.1.2,Win32,60.07449237,,,,,,,,,,,,,,w,1,1.463,2.026781075,0,5,11,3,47,2,1,,,,,,,,,,,,,,
,,,,,,,,,,,left.png,,w,left,6153b8fd26f1f8772f9a05da,2021-10-27_12h21.23.744,arrow_simon_punish,2021.1.2,Win32,60.07449237,,,,,,,,,,,,,,w,1,1.506,1.865346426,0,5,12,0,48,2,1,,,,,,,,,,,,,,
,,,,,,,,,,,left.png,,w,left,6153b8fd26f1f8772f9a05da,2021-10-27_12h21.23.744,arrow_simon_punish,2021.1.2,Win32,60.07449237,,,,,,,,,,,,,,w,1,1.5767,1.733291478,0,5,12,1,49,2,1,,,,,,,,,,,,,,
,,,,,,,,,,,left.png,,w,left,6153b8fd26f1f8772f9a05da,2021-10-27_12h21.23.744,arrow_simon_punish,2021.1.2,Win32,60.07449237,,,,,,,,,,,,,,w,1,1.4794,1.684871818,0,5,12,2,50,2,1,,,,,,,,,,,,,,
,,,,,,,,,,,left.png,,w,right,6153b8fd26f1f8772f9a05da,2021-10-27_12h21.23.744,arrow_simon_punish,2021.1.2,Win32,60.07449237,,,,,,,,,,,,,,w,1,1.6432,1.54515328,1,5,12,3,51,3,1,,,,,,,,,,,,,,
,,,,,,,,,,,right.png,,p,left,6153b8fd26f1f8772f9a05da,2021-10-27_12h21.23.744,arrow_simon_punish,2021.1.2,Win32,60.07449237,,,,,,,,,,,,,,p,1,1.6512,1.678321772,1,5,13,0,52,0,1,,,,,,,,,,,,,,
,,,,,,,,,,,left.png,,w,left,6153b8fd26f1f8772f9a05da,2021-10-27_12h21.23.744,arrow_simon_punish,2021.1.2,Win32,60.07449237,,,,,,,,,,,,,,w,1,1.6508,1.951127809,1,5,13,1,53,2,1,,,,,,,,,,,,,,
,,,,,,,,,,,left.png,,w,right,6153b8fd26f1f8772f9a05da,2021-10-27_12h21.23.744,arrow_simon_punish,2021.1.2,Win32,60.07449237,,,,,,,,,,,,,,w,1,1.6178,1.98571032,1,5,13,2,54,3,1,,,,,,,,,,,,,,
,,,,,,,,,,,left.png,,w,right,6153b8fd26f1f8772f9a05da,2021-10-27_12h21.23.744,arrow_simon_punish,2021.1.2,Win32,60.07449237,,,,,,,,,,,,,,w,1,1.4546,2.217568591,0,5,13,3,55,3,1,,,,,,,,,,,,,,
,,,,,,,,,,,right.png,,p,right,6153b8fd26f1f8772f9a05da,2021-10-27_12h21.23.744,arrow_simon_punish,2021.1.2,Win32,60.07449237,,,,,,,,,,,,,,w,0,1.5119,2.419553719,1,5,14,0,56,1,1,,,,,,,,,,,,,,
,,,,,,,,,,,right.png,,p,left,6153b8fd26f1f8772f9a05da,2021-10-27_12h21.23.744,arrow_simon_punish,2021.1.2,Win32,60.07449237,,,,,,,,,,,,,,p,1,1.4088,1.630842761,0,5,14,1,57,0,1,,,,,,,,,,,,,,
,,,,,,,,,,,right.png,,p,right,6153b8fd26f1f8772f9a05da,2021-10-27_12h21.23.744,arrow_simon_punish,2021.1.2,Win32,60.07449237,,,,,,,,,,,,,,p,1,1.4506,1.907047676,0,5,14,2,58,1,1,,,,,,,,,,,,,,
,,,,,,,,,,,left.png,,w,right,6153b8fd26f1f8772f9a05da,2021-10-27_12h21.23.744,arrow_simon_punish,2021.1.2,Win32,60.07449237,,,,,,,,,,,,,,w,1,1.3272,1.784403248,1,5,14,3,59,3,1,,,,,,,,,,,,,,
,,,,,,,,,,,,,,,6153b8fd26f1f8772f9a05da,2021-10-27_12h21.23.744,arrow_simon_punish,2021.1.2,Win32,60.07449237,,,,,,,,,,,,,,,,,,,,,,,,,space,57.9161,3,0,1,1,1,1,5,,,,,
,,,,,,,,,,,right.png,,p,left,6153b8fd26f1f8772f9a05da,2021-10-27_12h21.23.744,arrow_simon_punish,2021.1.2,Win32,60.07449237,,,,,,,,,,,,,,w,0,1.7171,2.367031464,1,1,0,0,0,0,1,,,,,,,,,,,,,,
,,,,,,,,,,,right.png,,p,right,6153b8fd26f1f8772f9a05da,2021-10-27_12h21.23.744,arrow_simon_punish,2021.1.2,Win32,60.07449237,,,,,,,,,,,,,,p,1,1.134,1.639633669,1,1,0,1,1,1,1,,,,,,,,,,,,,,
,,,,,,,,,,,left.png,,w,left,6153b8fd26f1f8772f9a05da,2021-10-27_12h21.23.744,arrow_simon_punish,2021.1.2,Win32,60.07449237,,,,,,,,,,,,,,w,1,1.3509,1.579476877,1,1,0,2,2,2,1,,,,,,,,,,,,,,
,,,,,,,,,,,left.png,,w,right,6153b8fd26f1f8772f9a05da,2021-10-27_12h21.23.744,arrow_simon_punish,2021.1.2,Win32,60.07449237,,,,,,,,,,,,,,w,1,1.518,1.921447676,0,1,0,3,3,3,1,,,,,,,,,,,,,,
,,,,,,,,,,,left.png,,w,right,6153b8fd26f1f8772f9a05da,2021-10-27_12h21.23.744,arrow_simon_punish,2021.1.2,Win32,60.07449237,,,,,,,,,,,,,,w,1,1.5958,1.563182746,0,1,1,0,4,3,1,,,,,,,,,,,,,,
,,,,,,,,,,,left.png,,w,left,6153b8fd26f1f8772f9a05da,2021-10-27_12h21.23.744,arrow_simon_punish,2021.1.2,Win32,60.07449237,,,,,,,,,,,,,,w,1,1.6109,2.060283751,1,1,1,1,5,2,1,,,,,,,,,,,,,,
,,,,,,,,,,,right.png,,p,left,6153b8fd26f1f8772f9a05da,2021-10-27_12h21.23.744,arrow_simon_punish,2021.1.2,Win32,60.07449237,,,,,,,,,,,,,,p,1,1.6786,2.091971542,1,1,1,2,6,0,1,,,,,,,,,,,,,,
,,,,,,,,,,,left.png,,w,left,6153b8fd26f1f8772f9a05da,2021-10-27_12h21.23.744,arrow_simon_punish,2021.1.2,Win32,60.07449237,,,,,,,,,,,,,,w,1,1.5671,1.701921417,0,1,1,3,7,2,1,,,,,,,,,,,,,,
,,,,,,,,,,,right.png,,p,right,6153b8fd26f1f8772f9a05da,2021-10-27_12h21.23.744,arrow_simon_punish,2021.1.2,Win32,60.07449237,,,,,,,,,,,,,,p,1,1.2852,1.823630922,1,1,2,0,8,1,1,,,,,,,,,,,,,,
,,,,,,,,,,,right.png,,p,right,6153b8fd26f1f8772f9a05da,2021-10-27_12h21.23.744,arrow_simon_punish,2021.1.2,Win32,60.07449237,,,,,,,,,,,,,,w,0,1.7955,2.427734184,1,1,2,1,9,1,1,,,,,,,,,,,,,,
,,,,,,,,,,,left.png,,w,left,6153b8fd26f1f8772f9a05da,2021-10-27_12h21.23.744,arrow_simon_punish,2021.1.2,Win32,60.07449237,,,,,,,,,,,,,,w,1,1.5051,2.044203646,0,1,2,2,10,2,1,,,,,,,,,,,,,,
,,,,,,,,,,,left.png,,w,right,6153b8fd26f1f8772f9a05da,2021-10-27_12h21.23.744,arrow_simon_punish,2021.1.2,Win32,60.07449237,,,,,,,,,,,,,,w,1,1.9103,2.421910367,1,1,2,3,11,3,1,,,,,,,,,,,,,,
,,,,,,,,,,,right.png,,p,right,6153b8fd26f1f8772f9a05da,2021-10-27_12h21.23.744,arrow_simon_punish,2021.1.2,Win32,60.07449237,,,,,,,,,,,,,,p,1,1.2577,1.751288616,1,1,3,0,12,1,1,,,,,,,,,,,,,,
,,,,,,,,,,,left.png,,w,right,6153b8fd26f1f8772f9a05da,2021-10-27_12h21.23.744,arrow_simon_punish,2021.1.2,Win32,60.07449237,,,,,,,,,,,,,,w,1,1.8676,2.455876445,1,1,3,1,13,3,1,,,,,,,,,,,,,,
,,,,,,,,,,,left.png,,w,right,6153b8fd26f1f8772f9a05da,2021-10-27_12h21.23.744,arrow_simon_punish,2021.1.2,Win32,60.07449237,,,,,,,,,,,,,,w,1,1.6569,1.778135595,1,1,3,2,14,3,1,,,,,,,,,,,,,,
,,,,,,,,,,,right.png,,p,right,6153b8fd26f1f8772f9a05da,2021-10-27_12h21.23.744,arrow_simon_punish,2021.1.2,Win32,60.07449237,,,,,,,,,,,,,,w,0,1.6176,2.399535212,1,1,3,3,15,1,1,,,,,,,,,,,,,,
,,,,,,,,,,,right.png,,p,right,6153b8fd26f1f8772f9a05da,2021-10-27_12h21.23.744,arrow_simon_punish,2021.1.2,Win32,60.07449237,,,,,,,,,,,,,,p,1,1.5072,2.235540285,0,1,4,0,16,1,1,,,,,,,,,,,,,,
,,,,,,,,,,,left.png,,w,right,6153b8fd26f1f8772f9a05da,2021-10-27_12h21.23.744,arrow_simon_punish,2021.1.2,Win32,60.07449237,,,,,,,,,,,,,,p,0,1.5671,2.373726492,1,1,4,1,17,3,1,,,,,,,,,,,,,,
,,,,,,,,,,,right.png,,p,left,6153b8fd26f1f8772f9a05da,2021-10-27_12h21.23.744,arrow_simon_punish,2021.1.2,Win32,60.07449237,,,,,,,,,,,,,,p,1,1.5344,1.722156339,0,1,4,2,18,0,1,,,,,,,,,,,,,,
,,,,,,,,,,,left.png,,w,right,6153b8fd26f1f8772f9a05da,2021-10-27_12h21.23.744,arrow_simon_punish,2021.1.2,Win32,60.07449237,,,,,,,,,,,,,,p,0,1.6855,2.326494432,1,1,4,3,19,3,1,,,,,,,,,,,,,,
,,,,,,,,,,,left.png,,w,right,6153b8fd26f1f8772f9a05da,2021-10-27_12h21.23.744,arrow_simon_punish,2021.1.2,Win32,60.07449237,,,,,,,,,,,,,,w,1,1.5909,2.23879287,0,1,5,0,20,3,1,,,,,,,,,,,,,,
,,,,,,,,,,,right.png,,p,right,6153b8fd26f1f8772f9a05da,2021-10-27_12h21.23.744,arrow_simon_punish,2021.1.2,Win32,60.07449237,,,,,,,,,,,,,,p,1,1.1887,1.60519199,1,1,5,1,21,1,1,,,,,,,,,,,,,,
,,,,,,,,,,,right.png,,p,right,6153b8fd26f1f8772f9a05da,2021-10-27_12h21.23.744,arrow_simon_punish,2021.1.2,Win32,60.07449237,,,,,,,,,,,,,,p,1,1.2377,1.749421732,1,1,5,2,22,1,1,,,,,,,,,,,,,,
,,,,,,,,,,,right.png,,p,left,6153b8fd26f1f8772f9a05da,2021-10-27_12h21.23.744,arrow_simon_punish,2021.1.2,Win32,60.07449237,,,,,,,,,,,,,,w,0,1.7058,2.34377658,1,1,5,3,23,0,1,,,,,,,,,,,,,,
,,,,,,,,,,,left.png,,w,left,6153b8fd26f1f8772f9a05da,2021-10-27_12h21.23.744,arrow_simon_punish,2021.1.2,Win32,60.07449237,,,,,,,,,,,,,,w,1,4.5901,1.651815916,1,1,6,0,24,2,1,,,,,,,,,,,,,,
,,,,,,,,,,,left.png,,w,right,6153b8fd26f1f8772f9a05da,2021-10-27_12h21.23.744,arrow_simon_punish,2021.1.2,Win32,60.07449237,,,,,,,,,,,,,,p,0,1.7495,2.158938495,1,1,6,1,25,3,1,,,,,,,,,,,,,,
,,,,,,,,,,,right.png,,p,right,6153b8fd26f1f8772f9a05da,2021-10-27_12h21.23.744,arrow_simon_punish,2021.1.2,Win32,60.07449237,,,,,,,,,,,,,,w,0,1.6176,2.327990322,1,1,6,2,26,1,1,,,,,,,,,,,,,,
,,,,,,,,,,,right.png,,p,left,6153b8fd26f1f8772f9a05da,2021-10-27_12h21.23.744,arrow_simon_punish,2021.1.2,Win32,60.07449237,,,,,,,,,,,,,,p,1,1.4736,2.454945354,0,1,6,3,27,0,1,,,,,,,,,,,,,,
,,,,,,,,,,,right.png,,p,left,6153b8fd26f1f8772f9a05da,2021-10-27_12h21.23.744,arrow_simon_punish,2021.1.2,Win32,60.07449237,,,,,,,,,,,,,,p,1,1.3844,1.519441265,1,1,7,0,28,0,1,,,,,,,,,,,,,,
,,,,,,,,,,,left.png,,w,left,6153b8fd26f1f8772f9a05da,2021-10-27_12h21.23.744,arrow_simon_punish,2021.1.2,Win32,60.07449237,,,,,,,,,,,,,,w,1,1.4601,1.652644741,0,1,7,1,29,2,1,,,,,,,,,,,,,,
,,,,,,,,,,,right.png,,p,left,6153b8fd26f1f8772f9a05da,2021-10-27_12h21.23.744,arrow_simon_punish,2021.1.2,Win32,60.07449237,,,,,,,,,,,,,,p,1,1.5534,1.953535955,0,1,7,2,30,0,1,,,,,,,,,,,,,,
,,,,,,,,,,,left.png,,w,right,6153b8fd26f1f8772f9a05da,2021-10-27_12h21.23.744,arrow_simon_punish,2021.1.2,Win32,60.07449237,,,,,,,,,,,,,,w,1,1.8084,2.325138806,1,1,7,3,31,3,1,,,,,,,,,,,,,,
,,,,,,,,,,,left.png,,w,left,6153b8fd26f1f8772f9a05da,2021-10-27_12h21.23.744,arrow_simon_punish,2021.1.2,Win32,60.07449237,,,,,,,,,,,,,,w,1,1.4731,1.921921902,0,1,8,0,32,2,1,,,,,,,,,,,,,,
,,,,,,,,,,,right.png,,p,right,6153b8fd26f1f8772f9a05da,2021-10-27_12h21.23.744,arrow_simon_punish,2021.1.2,Win32,60.07449237,,,,,,,,,,,,,,w,0,1.5356,2.336580466,1,1,8,1,33,1,1,,,,,,,,,,,,,,
,,,,,,,,,,,left.png,,w,left,6153b8fd26f1f8772f9a05da,2021-10-27_12h21.23.744,arrow_simon_punish,2021.1.2,Win32,60.07449237,,,,,,,,,,,,,,w,1,1.5214,2.122624729,0,1,8,2,34,2,1,,,,,,,,,,,,,,
,,,,,,,,,,,right.png,,p,left,6153b8fd26f1f8772f9a05da,2021-10-27_12h21.23.744,arrow_simon_punish,2021.1.2,Win32,60.07449237,,,,,,,,,,,,,,p,1,1.4251,1.53539651,0,1,8,3,35,0,1,,,,,,,,,,,,,,
,,,,,,,,,,,right.png,,p,left,6153b8fd26f1f8772f9a05da,2021-10-27_12h21.23.744,arrow_simon_punish,2021.1.2,Win32,60.07449237,,,,,,,,,,,,,,p,1,1.7238,2.390903568,1,1,9,0,36,0,1,,,,,,,,,,,,,,
,,,,,,,,,,,right.png,,p,left,6153b8fd26f1f8772f9a05da,2021-10-27_12h21.23.744,arrow_simon_punish,2021.1.2,Win32,60.07449237,,,,,,,,,,,,,,p,1,1.7969,2.472803033,1,1,9,1,37,0,1,,,,,,,,,,,,,,
,,,,,,,,,,,right.png,,p,left,6153b8fd26f1f8772f9a05da,2021-10-27_12h21.23.744,arrow_simon_punish,2021.1.2,Win32,60.07449237,,,,,,,,,,,,,,p,1,1.5453,2.442790222,0,1,9,2,38,0,1,,,,,,,,,,,,,,
,,,,,,,,,,,right.png,,p,left,6153b8fd26f1f8772f9a05da,2021-10-27_12h21.23.744,arrow_simon_punish,2021.1.2,Win32,60.07449237,,,,,,,,,,,,,,p,1,1.6132,2.053945983,1,1,9,3,39,0,1,,,,,,,,,,,,,,
,,,,,,,,,,,left.png,,w,right,6153b8fd26f1f8772f9a05da,2021-10-27_12h21.23.744,arrow_simon_punish,2021.1.2,Win32,60.07449237,,,,,,,,,,,,,,p,0,1.9177,2.498144203,1,1,10,0,40,3,1,,,,,,,,,,,,,,
,,,,,,,,,,,left.png,,w,right,6153b8fd26f1f8772f9a05da,2021-10-27_12h21.23.744,arrow_simon_punish,2021.1.2,Win32,60.07449237,,,,,,,,,,,,,,w,1,1.5956,2.15294549,0,1,10,1,41,3,1,,,,,,,,,,,,,,
,,,,,,,,,,,left.png,,w,left,6153b8fd26f1f8772f9a05da,2021-10-27_12h21.23.744,arrow_simon_punish,2021.1.2,Win32,60.07449237,,,,,,,,,,,,,,w,1,1.5274,2.041843128,0,1,10,2,42,2,1,,,,,,,,,,,,,,
,,,,,,,,,,,left.png,,w,left,6153b8fd26f1f8772f9a05da,2021-10-27_12h21.23.744,arrow_simon_punish,2021.1.2,Win32,60.07449237,,,,,,,,,,,,,,w,1,1.5377,2.181054939,0,1,10,3,43,2,1,,,,,,,,,,,,,,
,,,,,,,,,,,left.png,,w,left,6153b8fd26f1f8772f9a05da,2021-10-27_12h21.23.744,arrow_simon_punish,2021.1.2,Win32,60.07449237,,,,,,,,,,,,,,w,1,1.3453,1.992349169,1,1,11,0,44,2,1,,,,,,,,,,,,,,
,,,,,,,,,,,left.png,,w,right,6153b8fd26f1f8772f9a05da,2021-10-27_12h21.23.744,arrow_simon_punish,2021.1.2,Win32,60.07449237,,,,,,,,,,,,,,p,0,1.6615,2.252031581,1,1,11,1,45,3,1,,,,,,,,,,,,,,
,,,,,,,,,,,right.png,,p,left,6153b8fd26f1f8772f9a05da,2021-10-27_12h21.23.744,arrow_simon_punish,2021.1.2,Win32,60.07449237,,,,,,,,,,,,,,w,0,1.4429,2.456656167,1,1,11,2,46,0,1,,,,,,,,,,,,,,
,,,,,,,,,,,right.png,,p,right,6153b8fd26f1f8772f9a05da,2021-10-27_12h21.23.744,arrow_simon_punish,2021.1.2,Win32,60.07449237,,,,,,,,,,,,,,p,1,1.0893,1.536725616,1,1,11,3,47,1,1,,,,,,,,,,,,,,
,,,,,,,,,,,right.png,,p,right,6153b8fd26f1f8772f9a05da,2021-10-27_12h21.23.744,arrow_simon_punish,2021.1.2,Win32,60.07449237,,,,,,,,,,,,,,p,1,1.5096,2.292326873,0,1,12,0,48,1,1,,,,,,,,,,,,,,
,,,,,,,,,,,left.png,,w,left,6153b8fd26f1f8772f9a05da,2021-10-27_12h21.23.744,arrow_simon_punish,2021.1.2,Win32,60.07449237,,,,,,,,,,,,,,w,1,1.904,2.357726528,1,1,12,1,49,2,1,,,,,,,,,,,,,,
,,,,,,,,,,,right.png,,p,right,6153b8fd26f1f8772f9a05da,2021-10-27_12h21.23.744,arrow_simon_punish,2021.1.2,Win32,60.07449237,,,,,,,,,,,,,,p,1,1.1504,1.591942369,1,1,12,2,50,1,1,,,,,,,,,,,,,,
,,,,,,,,,,,right.png,,p,left,6153b8fd26f1f8772f9a05da,2021-10-27_12h21.23.744,arrow_simon_punish,2021.1.2,Win32,60.07449237,,,,,,,,,,,,,,p,1,1.2532,1.860035342,1,1,12,3,51,0,1,,,,,,,,,,,,,,
,,,,,,,,,,,left.png,,w,right,6153b8fd26f1f8772f9a05da,2021-10-27_12h21.23.744,arrow_simon_punish,2021.1.2,Win32,60.07449237,,,,,,,,,,,,,,w,1,1.335,1.81096641,1,1,13,0,52,3,1,,,,,,,,,,,,,,
,,,,,,,,,,,left.png,,w,left,6153b8fd26f1f8772f9a05da,2021-10-27_12h21.23.744,arrow_simon_punish,2021.1.2,Win32,60.07449237,,,,,,,,,,,,,,w,1,1.5906,2.27645883,0,1,13,1,53,2,1,,,,,,,,,,,,,,
,,,,,,,,,,,right.png,,p,right,6153b8fd26f1f8772f9a05da,2021-10-27_12h21.23.744,arrow_simon_punish,2021.1.2,Win32,60.07449237,,,,,,,,,,,,,,p,1,0.9193,1.505143272,1,1,13,2,54,1,1,,,,,,,,,,,,,,
,,,,,,,,,,,left.png,,w,right,6153b8fd26f1f8772f9a05da,2021-10-27_12h21.23.744,arrow_simon_punish,2021.1.2,Win32,60.07449237,,,,,,,,,,,,,,w,1,1.2005,2.081137924,1,1,13,3,55,3,1,,,,,,,,,,,,,,
,,,,,,,,,,,right.png,,p,right,6153b8fd26f1f8772f9a05da,2021-10-27_12h21.23.744,arrow_simon_punish,2021.1.2,Win32,60.07449237,,,,,,,,,,,,,,p,1,1.0838,1.716446553,1,1,14,0,56,1,1,,,,,,,,,,,,,,
,,,,,,,,,,,left.png,,w,left,6153b8fd26f1f8772f9a05da,2021-10-27_12h21.23.744,arrow_simon_punish,2021.1.2,Win32,60.07449237,,,,,,,,,,,,,,w,1,1.1382,1.741278072,1,1,14,1,57,2,1,,,,,,,,,,,,,,
,,,,,,,,,,,right.png,,p,left,6153b8fd26f1f8772f9a05da,2021-10-27_12h21.23.744,arrow_simon_punish,2021.1.2,Win32,60.07449237,,,,,,,,,,,,,,p,1,1.2214,1.631182309,1,1,14,2,58,0,1,,,,,,,,,,,,,,
,,,,,,,,,,,left.png,,w,left,6153b8fd26f1f8772f9a05da,2021-10-27_12h21.23.744,arrow_simon_punish,2021.1.2,Win32,60.07449237,,,,,,,,,,,,,,w,1,1.3435,2.011559821,1,1,14,3,59,2,1,,,,,,,,,,,,,,
,,,,,,,,,,,,,,,6153b8fd26f1f8772f9a05da,2021-10-27_12h21.23.744,arrow_simon_punish,2021.1.2,Win32,60.07449237,,,,,,,,,,,,,,,,,,,,,,,,,space,5.6304,4,1,0,2,0,1,1,,,,,
,,,,,,,,,,,left.png,,w,right,6153b8fd26f1f8772f9a05da,2021-10-27_12h21.23.744,arrow_simon_punish,2021.1.2,Win32,60.07449237,,,,,,,,,,,,,,w,1,1.5038,1.854246032,0,5,0,0,0,3,1,,,,,,,,,,,,,,
,,,,,,,,,,,right.png,,p,left,6153b8fd26f1f8772f9a05da,2021-10-27_12h21.23.744,arrow_simon_punish,2021.1.2,Win32,60.07449237,,,,,,,,,,,,,,p,1,1.8345,1.97048165,1,5,0,1,1,0,1,,,,,,,,,,,,,,
,,,,,,,,,,,left.png,,w,right,6153b8fd26f1f8772f9a05da,2021-10-27_12h21.23.744,arrow_simon_punish,2021.1.2,Win32,60.07449237,,,,,,,,,,,,,,w,1,1.4747,1.983903352,0,5,0,2,2,3,1,,,,,,,,,,,,,,
,,,,,,,,,,,right.png,,p,left,6153b8fd26f1f8772f9a05da,2021-10-27_12h21.23.744,arrow_simon_punish,2021.1.2,Win32,60.07449237,,,,,,,,,,,,,,p,1,1.2338,1.515928115,1,5,0,3,3,0,1,,,,,,,,,,,,,,
,,,,,,,,,,,right.png,,p,left,6153b8fd26f1f8772f9a05da,2021-10-27_12h21.23.744,arrow_simon_punish,2021.1.2,Win32,60.07449237,,,,,,,,,,,,,,p,1,1.8534,2.09819756,1,5,1,0,4,0,1,,,,,,,,,,,,,,
,,,,,,,,,,,left.png,,w,left,6153b8fd26f1f8772f9a05da,2021-10-27_12h21.23.744,arrow_simon_punish,2021.1.2,Win32,60.07449237,,,,,,,,,,,,,,p,0,1.1895,2.100731583,1,5,1,1,5,2,1,,,,,,,,,,,,,,
,,,,,,,,,,,left.png,,w,left,6153b8fd26f1f8772f9a05da,2021-10-27_12h21.23.744,arrow_simon_punish,2021.1.2,Win32,60.07449237,,,,,,,,,,,,,,w,1,1.275,2.494697431,1,5,1,2,6,2,1,,,,,,,,,,,,,,
,,,,,,,,,,,left.png,,w,left,6153b8fd26f1f8772f9a05da,2021-10-27_12h21.23.744,arrow_simon_punish,2021.1.2,Win32,60.07449237,,,,,,,,,,,,,,w,1,1.2092,1.579459613,1,5,1,3,7,2,1,,,,,,,,,,,,,,
,,,,,,,,,,,right.png,,p,left,6153b8fd26f1f8772f9a05da,2021-10-27_12h21.23.744,arrow_simon_punish,2021.1.2,Win32,60.07449237,,,,,,,,,,,,,,p,1,1.3334,1.630040518,1,5,2,0,8,0,1,,,,,,,,,,,,,,
,,,,,,,,,,,right.png,,p,right,6153b8fd26f1f8772f9a05da,2021-10-27_12h21.23.744,arrow_simon_punish,2021.1.2,Win32,60.07449237,,,,,,,,,,,,,,p,1,1.6015,2.242490651,1,5,2,1,9,1,1,,,,,,,,,,,,,,
,,,,,,,,,,,right.png,,p,left,6153b8fd26f1f8772f9a05da,2021-10-27_12h21.23.744,arrow_simon_punish,2021.1.2,Win32,60.07449237,,,,,,,,,,,,,,p,1,1.7363,2.304779878,1,5,2,2,10,0,1,,,,,,,,,,,,,,
,,,,,,,,,,,right.png,,p,right,6153b8fd26f1f8772f9a05da,2021-10-27_12h21.23.744,arrow_simon_punish,2021.1.2,Win32,60.07449237,,,,,,,,,,,,,,p,1,0.9432,1.694262597,1,5,2,3,11,1,1,,,,,,,,,,,,,,
,,,,,,,,,,,right.png,,p,right,6153b8fd26f1f8772f9a05da,2021-10-27_12h21.23.744,arrow_simon_punish,2021.1.2,Win32,60.07449237,,,,,,,,,,,,,,p,1,1.2085,1.847756915,1,5,3,0,12,1,1,,,,,,,,,,,,,,
,,,,,,,,,,,right.png,,p,left,6153b8fd26f1f8772f9a05da,2021-10-27_12h21.23.744,arrow_simon_punish,2021.1.2,Win32,60.07449237,,,,,,,,,,,,,,p,1,1.8544,1.64937814,1,5,3,1,13,0,1,,,,,,,,,,,,,,
,,,,,,,,,,,left.png,,w,left,6153b8fd26f1f8772f9a05da,2021-10-27_12h21.23.744,arrow_simon_punish,2021.1.2,Win32,60.07449237,,,,,,,,,,,,,,p,0,1.5368,2.159722428,1,5,3,2,14,2,1,,,,,,,,,,,,,,
,,,,,,,,,,,left.png,,w,right,6153b8fd26f1f8772f9a05da,2021-10-27_12h21.23.744,arrow_simon_punish,2021.1.2,Win32,60.07449237,,,,,,,,,,,,,,p,0,1.5956,2.363186735,1,5,3,3,15,3,1,,,,,,,,,,,,,,
,,,,,,,,,,,left.png,,w,right,6153b8fd26f1f8772f9a05da,2021-10-27_12h21.23.744,arrow_simon_punish,2021.1.2,Win32,60.07449237,,,,,,,,,,,,,,w,1,1.4368,2.080739386,0,5,4,0,16,3,1,,,,,,,,,,,,,,
,,,,,,,,,,,right.png,,p,right,6153b8fd26f1f8772f9a05da,2021-10-27_12h21.23.744,arrow_simon_punish,2021.1.2,Win32,60.07449237,,,,,,,,,,,,,,p,1,1.6344,1.565771212,1,5,4,1,17,1,1,,,,,,,,,,,,,,
,,,,,,,,,,,left.png,,w,left,6153b8fd26f1f8772f9a05da,2021-10-27_12h21.23.744,arrow_simon_punish,2021.1.2,Win32,60.07449237,,,,,,,,,,,,,,w,1,1.5962,2.246562206,0,5,4,2,18,2,1,,,,,,,,,,,,,,
,,,,,,,,,,,right.png,,p,right,6153b8fd26f1f8772f9a05da,2021-10-27_12h21.23.744,arrow_simon_punish,2021.1.2,Win32,60.07449237,,,,,,,,,,,,,,p,1,1.3974,1.976360164,1,5,4,3,19,1,1,,,,,,,,,,,,,,
,,,,,,,,,,,left.png,,w,left,6153b8fd26f1f8772f9a05da,2021-10-27_12h21.23.744,arrow_simon_punish,2021.1.2,Win32,60.07449237,,,,,,,,,,,,,,w,1,1.3918,1.998220619,1,5,5,0,20,2,1,,,,,,,,,,,,,,
,,,,,,,,,,,left.png,,w,left,6153b8fd26f1f8772f9a05da,2021-10-27_12h21.23.744,arrow_simon_punish,2021.1.2,Win32,60.07449237,,,,,,,,,,,,,,w,1,1.3525,1.924158724,1,5,5,1,21,2,1,,,,,,,,,,,,,,
,,,,,,,,,,,right.png,,p,left,6153b8fd26f1f8772f9a05da,2021-10-27_12h21.23.744,arrow_simon_punish,2021.1.2,Win32,60.07449237,,,,,,,,,,,,,,w,0,0.5343,2.180079593,1,5,5,2,22,0,1,,,,,,,,,,,,,,
,,,,,,,,,,,left.png,,w,right,6153b8fd26f1f8772f9a05da,2021-10-27_12h21.23.744,arrow_simon_punish,2021.1.2,Win32,60.07449237,,,,,,,,,,,,,,p,0,1.7702,2.461629427,1,5,5,3,23,3,1,,,,,,,,,,,,,,
,,,,,,,,,,,right.png,,p,right,6153b8fd26f1f8772f9a05da,2021-10-27_12h21.23.744,arrow_simon_punish,2021.1.2,Win32,60.07449237,,,,,,,,,,,,,,p,1,1.8434,2.270176938,1,5,6,0,24,1,1,,,,,,,,,,,,,,
,,,,,,,,,,,left.png,,w,left,6153b8fd26f1f8772f9a05da,2021-10-27_12h21.23.744,arrow_simon_punish,2021.1.2,Win32,60.07449237,,,,,,,,,,,,,,w,1,1.1907,1.596129951,1,5,6,1,25,2,1,,,,,,,,,,,,,,
,,,,,,,,,,,left.png,,w,left,6153b8fd26f1f8772f9a05da,2021-10-27_12h21.23.744,arrow_simon_punish,2021.1.2,Win32,60.07449237,,,,,,,,,,,,,,w,1,1.688,2.313988836,1,5,6,2,26,2,1,,,,,,,,,,,,,,
,,,,,,,,,,,left.png,,w,right,6153b8fd26f1f8772f9a05da,2021-10-27_12h21.23.744,arrow_simon_punish,2021.1.2,Win32,60.07449237,,,,,,,,,,,,,,w,1,1.8346,2.446385783,1,5,6,3,27,3,1,,,,,,,,,,,,,,
,,,,,,,,,,,right.png,,p,right,6153b8fd26f1f8772f9a05da,2021-10-27_12h21.23.744,arrow_simon_punish,2021.1.2,Win32,60.07449237,,,,,,,,,,,,,,w,0,1.7237,2.494381442,1,5,7,0,28,1,1,,,,,,,,,,,,,,
,,,,,,,,,,,left.png,,w,left,6153b8fd26f1f8772f9a05da,2021-10-27_12h21.23.744,arrow_simon_punish,2021.1.2,Win32,60.07449237,,,,,,,,,,,,,,w,1,1.4567,1.853005011,0,5,7,1,29,2,1,,,,,,,,,,,,,,
,,,,,,,,,,,right.png,,p,left,6153b8fd26f1f8772f9a05da,2021-10-27_12h21.23.744,arrow_simon_punish,2021.1.2,Win32,60.07449237,,,,,,,,,,,,,,p,1,1.2036,1.582670135,1,5,7,2,30,0,1,,,,,,,,,,,,,,
,,,,,,,,,,,right.png,,p,right,6153b8fd26f1f8772f9a05da,2021-10-27_12h21.23.744,arrow_simon_punish,2021.1.2,Win32,60.07449237,,,,,,,,,,,,,,p,1,1.7836,2.461161294,1,5,7,3,31,1,1,,,,,,,,,,,,,,
,,,,,,,,,,,right.png,,p,left,6153b8fd26f1f8772f9a05da,2021-10-27_12h21.23.744,arrow_simon_punish,2021.1.2,Win32,60.07449237,,,,,,,,,,,,,,p,1,1.7176,2.347511819,1,5,8,0,32,0,1,,,,,,,,,,,,,,
,,,,,,,,,,,right.png,,p,right,6153b8fd26f1f8772f9a05da,2021-10-27_12h21.23.744,arrow_simon_punish,2021.1.2,Win32,60.07449237,,,,,,,,,,,,,,p,1,1.3341,1.946708197,1,5,8,1,33,1,1,,,,,,,,,,,,,,
,,,,,,,,,,,left.png,,w,right,6153b8fd26f1f8772f9a05da,2021-10-27_12h21.23.744,arrow_simon_punish,2021.1.2,Win32,60.07449237,,,,,,,,,,,,,,p,0,1.5894,2.313913314,1,5,8,2,34,3,1,,,,,,,,,,,,,,
,,,,,,,,,,,left.png,,w,left,6153b8fd26f1f8772f9a05da,2021-10-27_12h21.23.744,arrow_simon_punish,2021.1.2,Win32,60.07449237,,,,,,,,,,,,,,w,1,1.4505,2.10556922,0,5,8,3,35,2,1,,,,,,,,,,,,,,
,,,,,,,,,,,right.png,,p,left,6153b8fd26f1f8772f9a05da,2021-10-27_12h21.23.744,arrow_simon_punish,2021.1.2,Win32,60.07449237,,,,,,,,,,,,,,w,0,1.355,2.031686377,1,5,9,0,36,0,1,,,,,,,,,,,,,,
,,,,,,,,,,,right.png,,p,right,6153b8fd26f1f8772f9a05da,2021-10-27_12h21.23.744,arrow_simon_punish,2021.1.2,Win32,60.07449237,,,,,,,,,,,,,,p,1,1.3176,1.918055114,1,5,9,1,37,1,1,,,,,,,,,,,,,,
,,,,,,,,,,,right.png,,p,left,6153b8fd26f1f8772f9a05da,2021-10-27_12h21.23.744,arrow_simon_punish,2021.1.2,Win32,60.07449237,,,,,,,,,,,,,,w,0,1.7838,2.442493427,1,5,9,2,38,0,1,,,,,,,,,,,,,,
,,,,,,,,,,,left.png,,w,left,6153b8fd26f1f8772f9a05da,2021-10-27_12h21.23.744,arrow_simon_punish,2021.1.2,Win32,60.07449237,,,,,,,,,,,,,,w,1,1.6223,2.20270076,1,5,9,3,39,2,1,,,,,,,,,,,,,,
,,,,,,,,,,,right.png,,p,left,6153b8fd26f1f8772f9a05da,2021-10-27_12h21.23.744,arrow_simon_punish,2021.1.2,Win32,60.07449237,,,,,,,,,,,,,,p,1,1.4277,2.021194222,0,5,10,0,40,0,1,,,,,,,,,,,,,,
,,,,,,,,,,,left.png,,w,left,6153b8fd26f1f8772f9a05da,2021-10-27_12h21.23.744,arrow_simon_punish,2021.1.2,Win32,60.07449237,,,,,,,,,,,,,,w,1,1.9203,2.493360568,1,5,10,1,41,2,1,,,,,,,,,,,,,,
,,,,,,,,,,,right.png,,p,right,6153b8fd26f1f8772f9a05da,2021-10-27_12h21.23.744,arrow_simon_punish,2021.1.2,Win32,60.07449237,,,,,,,,,,,,,,p,1,1.5032,2.133086115,0,5,10,2,42,1,1,,,,,,,,,,,,,,
,,,,,,,,,,,left.png,,w,right,6153b8fd26f1f8772f9a05da,2021-10-27_12h21.23.744,arrow_simon_punish,2021.1.2,Win32,60.07449237,,,,,,,,,,,,,,w,1,1.7174,2.294220734,1,5,10,3,43,3,1,,,,,,,,,,,,,,
,,,,,,,,,,,left.png,,w,left,6153b8fd26f1f8772f9a05da,2021-10-27_12h21.23.744,arrow_simon_punish,2021.1.2,Win32,60.07449237,,,,,,,,,,,,,,w,1,1.7702,2.314193295,1,5,11,0,44,2,1,,,,,,,,,,,,,,
,,,,,,,,,,,right.png,,p,right,6153b8fd26f1f8772f9a05da,2021-10-27_12h21.23.744,arrow_simon_punish,2021.1.2,Win32,60.07449237,,,,,,,,,,,,,,p,1,1.4353,2.027739836,0,5,11,1,45,1,1,,,,,,,,,,,,,,
,,,,,,,,,,,right.png,,p,right,6153b8fd26f1f8772f9a05da,2021-10-27_12h21.23.744,arrow_simon_punish,2021.1.2,Win32,60.07449237,,,,,,,,,,,,,,w,0,1.4219,2.188424155,1,5,11,2,46,1,1,,,,,,,,,,,,,,
,,,,,,,,,,,right.png,,p,left,6153b8fd26f1f8772f9a05da,2021-10-27_12h21.23.744,arrow_simon_punish,2021.1.2,Win32,60.07449237,,,,,,,,,,,,,,p,1,1.2298,1.513813107,1,5,11,3,47,0,1,,,,,,,,,,,,,,
,,,,,,,,,,,right.png,,p,left,6153b8fd26f1f8772f9a05da,2021-10-27_12h21.23.744,arrow_simon_punish,2021.1.2,Win32,60.07449237,,,,,,,,,,,,,,p,1,1.6067,2.139985071,1,5,12,0,48,0,1,,,,,,,,,,,,,,
,,,,,,,,,,,left.png,,w,right,6153b8fd26f1f8772f9a05da,2021-10-27_12h21.23.744,arrow_simon_punish,2021.1.2,Win32,60.07449237,,,,,,,,,,,,,,w,1,1.0555,1.628062846,1,5,12,1,49,3,1,,,,,,,,,,,,,,
,,,,,,,,,,,left.png,,w,right,6153b8fd26f1f8772f9a05da,2021-10-27_12h21.23.744,arrow_simon_punish,2021.1.2,Win32,60.07449237,,,,,,,,,,,,,,w,1,1.3604,1.653829914,1,5,12,2,50,3,1,,,,,,,,,,,,,,
,,,,,,,,,,,left.png,,w,right,6153b8fd26f1f8772f9a05da,2021-10-27_12h21.23.744,arrow_simon_punish,2021.1.2,Win32,60.07449237,,,,,,,,,,,,,,w,1,1.7226,2.244842021,1,5,12,3,51,3,1,,,,,,,,,,,,,,
,,,,,,,,,,,left.png,,w,right,6153b8fd26f1f8772f9a05da,2021-10-27_12h21.23.744,arrow_simon_punish,2021.1.2,Win32,60.07449237,,,,,,,,,,,,,,w,1,1.5839,1.641732887,0,5,13,0,52,3,1,,,,,,,,,,,,,,
,,,,,,,,,,,left.png,,w,right,6153b8fd26f1f8772f9a05da,2021-10-27_12h21.23.744,arrow_simon_punish,2021.1.2,Win32,60.07449237,,,,,,,,,,,,,,w,1,1.4673,2.00080571,0,5,13,1,53,3,1,,,,,,,,,,,,,,
,,,,,,,,,,,right.png,,p,right,6153b8fd26f1f8772f9a05da,2021-10-27_12h21.23.744,arrow_simon_punish,2021.1.2,Win32,60.07449237,,,,,,,,,,,,,,w,0,1.6691,2.449603023,1,5,13,2,54,1,1,,,,,,,,,,,,,,
,,,,,,,,,,,right.png,,p,right,6153b8fd26f1f8772f9a05da,2021-10-27_12h21.23.744,arrow_simon_punish,2021.1.2,Win32,60.07449237,,,,,,,,,,,,,,p,1,1.4674,2.178614642,0,5,13,3,55,1,1,,,,,,,,,,,,,,
,,,,,,,,,,,left.png,,w,right,6153b8fd26f1f8772f9a05da,2021-10-27_12h21.23.744,arrow_simon_punish,2021.1.2,Win32,60.07449237,,,,,,,,,,,,,,w,1,1.5593,2.19343432,0,5,14,0,56,3,1,,,,,,,,,,,,,,
,,,,,,,,,,,left.png,,w,left,6153b8fd26f1f8772f9a05da,2021-10-27_12h21.23.744,arrow_simon_punish,2021.1.2,Win32,60.07449237,,,,,,,,,,,,,,w,1,1.6063,2.275107339,1,5,14,1,57,2,1,,,,,,,,,,,,,,
,,,,,,,,,,,left.png,,w,right,6153b8fd26f1f8772f9a05da,2021-10-27_12h21.23.744,arrow_simon_punish,2021.1.2,Win32,60.07449237,,,,,,,,,,,,,,p,0,1.5917,2.222654193,1,5,14,2,58,3,1,,,,,,,,,,,,,,
,,,,,,,,,,,right.png,,p,left,6153b8fd26f1f8772f9a05da,2021-10-27_12h21.23.744,arrow_simon_punish,2021.1.2,Win32,60.07449237,,,,,,,,,,,,,,p,1,1.3081,1.656291349,1,5,14,3,59,0,1,,,,,,,,,,,,,,
,,,,,,,,,,,,,,,6153b8fd26f1f8772f9a05da,2021-10-27_12h21.23.744,arrow_simon_punish,2021.1.2,Win32,60.07449237,,,,,,,,,,,,,,,,,,,,,,,,,space,53.3674,5,1,1,3,1,1,5,,,,,
,,,,,,,,,,,right.png,,p,right,6153b8fd26f1f8772f9a05da,2021-10-27_12h21.23.744,arrow_simon_punish,2021.1.2,Win32,60.07449237,,,,,,,,,,,,,,p,1,1.4028,1.972595866,0,1,0,0,0,1,1,,,,,,,,,,,,,,
,,,,,,,,,,,right.png,,p,right,6153b8fd26f1f8772f9a05da,2021-10-27_12h21.23.744,arrow_simon_punish,2021.1.2,Win32,60.07449237,,,,,,,,,,,,,,p,1,1.7381,2.38077293,1,1,0,1,1,1,1,,,,,,,,,,,,,,
,,,,,,,,,,,left.png,,w,right,6153b8fd26f1f8772f9a05da,2021-10-27_12h21.23.744,arrow_simon_punish,2021.1.2,Win32,60.07449237,,,,,,,,,,,,,,w,1,1.4339,1.699921126,0,1,0,2,2,3,1,,,,,,,,,,,,,,
,,,,,,,,,,,right.png,,p,right,6153b8fd26f1f8772f9a05da,2021-10-27_12h21.23.744,arrow_simon_punish,2021.1.2,Win32,60.07449237,,,,,,,,,,,,,,p,1,1.1186,1.514534691,1,1,0,3,3,1,1,,,,,,,,,,,,,,
,,,,,,,,,,,right.png,,p,left,6153b8fd26f1f8772f9a05da,2021-10-27_12h21.23.744,arrow_simon_punish,2021.1.2,Win32,60.07449237,,,,,,,,,,,,,,p,1,1.5838,2.052494371,0,1,1,0,4,0,1,,,,,,,,,,,,,,
,,,,,,,,,,,right.png,,p,left,6153b8fd26f1f8772f9a05da,2021-10-27_12h21.23.744,arrow_simon_punish,2021.1.2,Win32,60.07449237,,,,,,,,,,,,,,p,1,1.7133,2.193697673,1,1,1,1,5,0,1,,,,,,,,,,,,,,
,,,,,,,,,,,left.png,,w,left,6153b8fd26f1f8772f9a05da,2021-10-27_12h21.23.744,arrow_simon_punish,2021.1.2,Win32,60.07449237,,,,,,,,,,,,,,w,1,1.3847,1.57013665,1,1,1,2,6,2,1,,,,,,,,,,,,,,
,,,,,,,,,,,right.png,,p,left,6153b8fd26f1f8772f9a05da,2021-10-27_12h21.23.744,arrow_simon_punish,2021.1.2,Win32,60.07449237,,,,,,,,,,,,,,p,1,1.445,1.691191709,0,1,1,3,7,0,1,,,,,,,,,,,,,,
,,,,,,,,,,,left.png,,w,left,6153b8fd26f1f8772f9a05da,2021-10-27_12h21.23.744,arrow_simon_punish,2021.1.2,Win32,60.07449237,,,,,,,,,,,,,,w,1,1.6174,1.987308165,1,1,2,0,8,2,1,,,,,,,,,,,,,,
,,,,,,,,,,,left.png,,w,right,6153b8fd26f1f8772f9a05da,2021-10-27_12h21.23.744,arrow_simon_punish,2021.1.2,Win32,60.07449237,,,,,,,,,,,,,,w,1,1.6089,1.884015631,1,1,2,1,9,3,1,,,,,,,,,,,,,,
,,,,,,,,,,,left.png,,w,right,6153b8fd26f1f8772f9a05da,2021-10-27_12h21.23.744,arrow_simon_punish,2021.1.2,Win32,60.07449237,,,,,,,,,,,,,,w,1,1.667,2.424295243,1,1,2,2,10,3,1,,,,,,,,,,,,,,
,,,,,,,,,,,left.png,,w,right,6153b8fd26f1f8772f9a05da,2021-10-27_12h21.23.744,arrow_simon_punish,2021.1.2,Win32,60.07449237,,,,,,,,,,,,,,w,1,1.4055,1.882469585,0,1,2,3,11,3,1,,,,,,,,,,,,,,
,,,,,,,,,,,right.png,,p,left,6153b8fd26f1f8772f9a05da,2021-10-27_12h21.23.744,arrow_simon_punish,2021.1.2,Win32,60.07449237,,,,,,,,,,,,,,p,1,1.4034,1.820016202,0,1,3,0,12,0,1,,,,,,,,,,,,,,
,,,,,,,,,,,left.png,,w,left,6153b8fd26f1f8772f9a05da,2021-10-27_12h21.23.744,arrow_simon_punish,2021.1.2,Win32,60.07449237,,,,,,,,,,,,,,w,1,1.2031,1.677601876,1,1,3,1,13,2,1,,,,,,,,,,,,,,
,,,,,,,,,,,right.png,,p,left,6153b8fd26f1f8772f9a05da,2021-10-27_12h21.23.744,arrow_simon_punish,2021.1.2,Win32,60.07449237,,,,,,,,,,,,,,p,1,1.4885,1.661905839,0,1,3,2,14,0,1,,,,,,,,,,,,,,
,,,,,,,,,,,left.png,,w,right,6153b8fd26f1f8772f9a05da,2021-10-27_12h21.23.744,arrow_simon_punish,2021.1.2,Win32,60.07449237,,,,,,,,,,,,,,w,1,1.3352,1.737833968,1,1,3,3,15,3,1,,,,,,,,,,,,,,
,,,,,,,,,,,left.png,,w,left,6153b8fd26f1f8772f9a05da,2021-10-27_12h21.23.744,arrow_simon_punish,2021.1.2,Win32,60.07449237,,,,,,,,,,,,,,w,1,1.5203,2.269320659,0,1,4,0,16,2,1,,,,,,,,,,,,,,
,,,,,,,,,,,left.png,,w,left,6153b8fd26f1f8772f9a05da,2021-10-27_12h21.23.744,arrow_simon_punish,2021.1.2,Win32,60.07449237,,,,,,,,,,,,,,w,1,1.45,2.033730301,0,1,4,1,17,2,1,,,,,,,,,,,,,,
,,,,,,,,,,,right.png,,p,left,6153b8fd26f1f8772f9a05da,2021-10-27_12h21.23.744,arrow_simon_punish,2021.1.2,Win32,60.07449237,,,,,,,,,,,,,,p,1,1.7347,2.230639432,1,1,4,2,18,0,1,,,,,,,,,,,,,,
,,,,,,,,,,,right.png,,p,right,6153b8fd26f1f8772f9a05da,2021-10-27_12h21.23.744,arrow_simon_punish,2021.1.2,Win32,60.07449237,,,,,,,,,,,,,,w,0,1.4958,2.424464287,1,1,4,3,19,1,1,,,,,,,,,,,,,,
,,,,,,,,,,,left.png,,w,right,6153b8fd26f1f8772f9a05da,2021-10-27_12h21.23.744,arrow_simon_punish,2021.1.2,Win32,60.07449237,,,,,,,,,,,,,,w,1,1.4624,1.886547981,0,1,5,0,20,3,1,,,,,,,,,,,,,,
,,,,,,,,,,,left.png,,w,left,6153b8fd26f1f8772f9a05da,2021-10-27_12h21.23.744,arrow_simon_punish,2021.1.2,Win32,60.07449237,,,,,,,,,,,,,,w,1,1.819,2.495418059,1,1,5,1,21,2,1,,,,,,,,,,,,,,
,,,,,,,,,,,right.png,,p,left,6153b8fd26f1f8772f9a05da,2021-10-27_12h21.23.744,arrow_simon_punish,2021.1.2,Win32,60.07449237,,,,,,,,,,,,,,w,0,1.5333,2.143678924,1,1,5,2,22,0,1,,,,,,,,,,,,,,
,,,,,,,,,,,right.png,,p,left,6153b8fd26f1f8772f9a05da,2021-10-27_12h21.23.744,arrow_simon_punish,2021.1.2,Win32,60.07449237,,,,,,,,,,,,,,p,1,1.4885,2.007857609,0,1,5,3,23,0,1,,,,,,,,,,,,,,
,,,,,,,,,,,right.png,,p,left,6153b8fd26f1f8772f9a05da,2021-10-27_12h21.23.744,arrow_simon_punish,2021.1.2,Win32,60.07449237,,,,,,,,,,,,,,p,1,1.3043,1.827825742,1,1,6,0,24,0,1,,,,,,,,,,,,,,
,,,,,,,,,,,right.png,,p,left,6153b8fd26f1f8772f9a05da,2021-10-27_12h21.23.744,arrow_simon_punish,2021.1.2,Win32,60.07449237,,,,,,,,,,,,,,p,1,1.6049,2.183197358,1,1,6,1,25,0,1,,,,,,,,,,,,,,
,,,,,,,,,,,right.png,,p,right,6153b8fd26f1f8772f9a05da,2021-10-27_12h21.23.744,arrow_simon_punish,2021.1.2,Win32,60.07449237,,,,,,,,,,,,,,p,1,1.5734,2.043139458,0,1,6,2,26,1,1,,,,,,,,,,,,,,
,,,,,,,,,,,right.png,,p,left,6153b8fd26f1f8772f9a05da,2021-10-27_12h21.23.744,arrow_simon_punish,2021.1.2,Win32,60.07449237,,,,,,,,,,,,,,p,1,1.506,1.500727682,0,1,6,3,27,0,1,,,,,,,,,,,,,,
,,,,,,,,,,,left.png,,w,right,6153b8fd26f1f8772f9a05da,2021-10-27_12h21.23.744,arrow_simon_punish,2021.1.2,Win32,60.07449237,,,,,,,,,,,,,,w,1,1.3843,1.679586368,1,1,7,0,28,3,1,,,,,,,,,,,,,,
,,,,,,,,,,,left.png,,w,left,6153b8fd26f1f8772f9a05da,2021-10-27_12h21.23.744,arrow_simon_punish,2021.1.2,Win32,60.07449237,,,,,,,,,,,,,,w,1,1.304,1.793389822,1,1,7,1,29,2,1,,,,,,,,,,,,,,
,,,,,,,,,,,right.png,,p,right,6153b8fd26f1f8772f9a05da,2021-10-27_12h21.23.744,arrow_simon_punish,2021.1.2,Win32,60.07449237,,,,,,,,,,,,,,p,1,1.5866,1.975883857,0,1,7,2,30,1,1,,,,,,,,,,,,,,
,,,,,,,,,,,right.png,,p,right,6153b8fd26f1f8772f9a05da,2021-10-27_12h21.23.744,arrow_simon_punish,2021.1.2,Win32,60.07449237,,,,,,,,,,,,,,p,1,1.8453,2.453019347,1,1,7,3,31,1,1,,,,,,,,,,,,,,
,,,,,,,,,,,left.png,,w,left,6153b8fd26f1f8772f9a05da,2021-10-27_12h21.23.744,arrow_simon_punish,2021.1.2,Win32,60.07449237,,,,,,,,,,,,,,w,1,1.5879,2.244346556,0,1,8,0,32,2,1,,,,,,,,,,,,,,
,,,,,,,,,,,right.png,,p,right,6153b8fd26f1f8772f9a05da,2021-10-27_12h21.23.744,arrow_simon_punish,2021.1.2,Win32,60.07449237,,,,,,,,,,,,,,p,1,1.4794,2.108504495,0,1,8,1,33,1,1,,,,,,,,,,,,,,
,,,,,,,,,,,left.png,,w,right,6153b8fd26f1f8772f9a05da,2021-10-27_12h21.23.744,arrow_simon_punish,2021.1.2,Win32,60.07449237,,,,,,,,,,,,,,w,1,1.6503,2.175435592,1,1,8,2,34,3,1,,,,,,,,,,,,,,
,,,,,,,,,,,left.png,,w,right,6153b8fd26f1f8772f9a05da,2021-10-27_12h21.23.744,arrow_simon_punish,2021.1.2,Win32,60.07449237,,,,,,,,,,,,,,w,1,2.934,2.136841919,1,1,8,3,35,3,1,,,,,,,,,,,,,,
,,,,,,,,,,,left.png,,w,right,6153b8fd26f1f8772f9a05da,2021-10-27_12h21.23.744,arrow_simon_punish,2021.1.2,Win32,60.07449237,,,,,,,,,,,,,,w,1,0.9578,1.589957867,1,1,9,0,36,3,1,,,,,,,,,,,,,,
,,,,,,,,,,,right.png,,p,right,6153b8fd26f1f8772f9a05da,2021-10-27_12h21.23.744,arrow_simon_punish,2021.1.2,Win32,60.07449237,,,,,,,,,,,,,,w,0,1.2511,2.339509002,1,1,9,1,37,1,1,,,,,,,,,,,,,,
,,,,,,,,,,,right.png,,p,right,6153b8fd26f1f8772f9a05da,2021-10-27_12h21.23.744,arrow_simon_punish,2021.1.2,Win32,60.07449237,,,,,,,,,,,,,,p,1,1.5344,2.181115066,0,1,9,2,38,1,1,,,,,,,,,,,,,,
,,,,,,,,,,,left.png,,w,left,6153b8fd26f1f8772f9a05da,2021-10-27_12h21.23.744,arrow_simon_punish,2021.1.2,Win32,60.07449237,,,,,,,,,,,,,,w,1,1.9613,2.494904555,1,1,9,3,39,2,1,,,,,,,,,,,,,,
,,,,,,,,,,,right.png,,p,left,6153b8fd26f1f8772f9a05da,2021-10-27_12h21.23.744,arrow_simon_punish,2021.1.2,Win32,60.07449237,,,,,,,,,,,,,,p,1,1.3941,1.831163154,1,1,10,0,40,0,1,,,,,,,,,,,,,,
,,,,,,,,,,,left.png,,w,left,6153b8fd26f1f8772f9a05da,2021-10-27_12h21.23.744,arrow_simon_punish,2021.1.2,Win32,60.07449237,,,,,,,,,,,,,,w,1,1.451,2.198028861,0,1,10,1,41,2,1,,,,,,,,,,,,,,
,,,,,,,,,,,right.png,,p,right,6153b8fd26f1f8772f9a05da,2021-10-27_12h21.23.744,arrow_simon_punish,2021.1.2,Win32,60.07449237,,,,,,,,,,,,,,p,1,1.4168,2.039790092,0,1,10,2,42,1,1,,,,,,,,,,,,,,
,,,,,,,,,,,left.png,,w,right,6153b8fd26f1f8772f9a05da,2021-10-27_12h21.23.744,arrow_simon_punish,2021.1.2,Win32,60.07449237,,,,,,,,,,,,,,w,1,1.4881,2.055077115,0,1,10,3,43,3,1,,,,,,,,,,,,,,
,,,,,,,,,,,left.png,,w,right,6153b8fd26f1f8772f9a05da,2021-10-27_12h21.23.744,arrow_simon_punish,2021.1.2,Win32,60.07449237,,,,,,,,,,,,,,w,1,1.318,1.676063314,1,1,11,0,44,3,1,,,,,,,,,,,,,,
,,,,,,,,,,,left.png,,w,left,6153b8fd26f1f8772f9a05da,2021-10-27_12h21.23.744,arrow_simon_punish,2021.1.2,Win32,60.07449237,,,,,,,,,,,,,,w,1,1.5746,2.199028117,0,1,11,1,45,2,1,,,,,,,,,,,,,,
,,,,,,,,,,,left.png,,w,left,6153b8fd26f1f8772f9a05da,2021-10-27_12h21.23.744,arrow_simon_punish,2021.1.2,Win32,60.07449237,,,,,,,,,,,,,,w,1,1.4104,2.01675917,0,1,11,2,46,2,1,,,,,,,,,,,,,,
,,,,,,,,,,,left.png,,w,left,6153b8fd26f1f8772f9a05da,2021-10-27_12h21.23.744,arrow_simon_punish,2021.1.2,Win32,60.07449237,,,,,,,,,,,,,,w,1,1.5176,2.103316866,0,1,11,3,47,2,1,,,,,,,,,,,,,,
,,,,,,,,,,,right.png,,p,left,6153b8fd26f1f8772f9a05da,2021-10-27_12h21.23.744,arrow_simon_punish,2021.1.2,Win32,60.07449237,,,,,,,,,,,,,,p,1,1.3952,1.935626343,1,1,12,0,48,0,1,,,,,,,,,,,,,,
,,,,,,,,,,,left.png,,w,right,6153b8fd26f1f8772f9a05da,2021-10-27_12h21.23.744,arrow_simon_punish,2021.1.2,Win32,60.07449237,,,,,,,,,,,,,,w,1,1.4075,1.708633787,0,1,12,1,49,3,1,,,,,,,,,,,,,,
,,,,,,,,,,,left.png,,w,right,6153b8fd26f1f8772f9a05da,2021-10-27_12h21.23.744,arrow_simon_punish,2021.1.2,Win32,60.07449237,,,,,,,,,,,,,,w,1,1.5845,1.995096807,0,1,12,2,50,3,1,,,,,,,,,,,,,,
,,,,,,,,,,,right.png,,p,right,6153b8fd26f1f8772f9a05da,2021-10-27_12h21.23.744,arrow_simon_punish,2021.1.2,Win32,60.07449237,,,,,,,,,,,,,,p,1,1.6293,2.027219492,1,1,12,3,51,1,1,,,,,,,,,,,,,,
,,,,,,,,,,,right.png,,p,right,6153b8fd26f1f8772f9a05da,2021-10-27_12h21.23.744,arrow_simon_punish,2021.1.2,Win32,60.07449237,,,,,,,,,,,,,,p,1,1.8674,2.401812953,1,1,13,0,52,1,1,,,,,,,,,,,,,,
,,,,,,,,,,,left.png,,w,left,6153b8fd26f1f8772f9a05da,2021-10-27_12h21.23.744,arrow_simon_punish,2021.1.2,Win32,60.07449237,,,,,,,,,,,,,,w,1,1.4519,1.91199206,0,1,13,1,53,2,1,,,,,,,,,,,,,,
,,,,,,,,,,,right.png,,p,right,6153b8fd26f1f8772f9a05da,2021-10-27_12h21.23.744,arrow_simon_punish,2021.1.2,Win32,60.07449237,,,,,,,,,,,,,,p,1,1.6547,2.047126467,1,1,13,2,54,1,1,,,,,,,,,,,,,,
,,,,,,,,,,,left.png,,w,left,6153b8fd26f1f8772f9a05da,2021-10-27_12h21.23.744,arrow_simon_punish,2021.1.2,Win32,60.07449237,,,,,,,,,,,,,,w,1,1.4694,1.936870925,0,1,13,3,55,2,1,,,,,,,,,,,,,,
,,,,,,,,,,,right.png,,p,right,6153b8fd26f1f8772f9a05da,2021-10-27_12h21.23.744,arrow_simon_punish,2021.1.2,Win32,60.07449237,,,,,,,,,,,,,,p,1,1.5008,2.137032971,0,1,14,0,56,1,1,,,,,,,,,,,,,,
,,,,,,,,,,,right.png,,p,left,6153b8fd26f1f8772f9a05da,2021-10-27_12h21.23.744,arrow_simon_punish,2021.1.2,Win32,60.07449237,,,,,,,,,,,,,,w,0,1.7259,2.469977781,1,1,14,1,57,0,1,,,,,,,,,,,,,,
,,,,,,,,,,,right.png,,p,left,6153b8fd26f1f8772f9a05da,2021-10-27_12h21.23.744,arrow_simon_punish,2021.1.2,Win32,60.07449237,,,,,,,,,,,,,,p,1,1.5419,2.145351,0,1,14,2,58,0,1,,,,,,,,,,,,,,
,,,,,,,,,,,left.png,,w,right,6153b8fd26f1f8772f9a05da,2021-10-27_12h21.23.744,arrow_simon_punish,2021.1.2,Win32,60.07449237,,,,,,,,,,,,,,w,1,1.3916,1.667952639,1,1,14,3,59,3,1,,,,,,,,,,,,,,
,,,,,,,,,,,,,,,6153b8fd26f1f8772f9a05da,2021-10-27_12h21.23.744,arrow_simon_punish,2021.1.2,Win32,60.07449237,,,,,,,,,,,,,,,,,,,,,,,,,space,16.1698,6,2,0,4,0,1,1,,,,,
,,,,,,,,,,,right.png,,p,left,6153b8fd26f1f8772f9a05da,2021-10-27_12h21.23.744,arrow_simon_punish,2021.1.2,Win32,60.07449237,,,,,,,,,,,,,,p,1,1.5852,2.002312752,0,5,0,0,0,0,1,,,,,,,,,,,,,,
,,,,,,,,,,,left.png,,w,right,6153b8fd26f1f8772f9a05da,2021-10-27_12h21.23.744,arrow_simon_punish,2021.1.2,Win32,60.07449237,,,,,,,,,,,,,,w,1,1.701,2.314271712,1,5,0,1,1,3,1,,,,,,,,,,,,,,
,,,,,,,,,,,right.png,,p,left,6153b8fd26f1f8772f9a05da,2021-10-27_12h21.23.744,arrow_simon_punish,2021.1.2,Win32,60.07449237,,,,,,,,,,,,,,p,1,1.4559,1.994844889,0,5,0,2,2,0,1,,,,,,,,,,,,,,
,,,,,,,,,,,left.png,,w,left,6153b8fd26f1f8772f9a05da,2021-10-27_12h21.23.744,arrow_simon_punish,2021.1.2,Win32,60.07449237,,,,,,,,,,,,,,w,1,1.255,1.817348203,1,5,0,3,3,2,1,,,,,,,,,,,,,,
,,,,,,,,,,,left.png,,w,right,6153b8fd26f1f8772f9a05da,2021-10-27_12h21.23.744,arrow_simon_punish,2021.1.2,Win32,60.07449237,,,,,,,,,,,,,,p,0,1.7903,2.404501968,1,5,1,0,4,3,1,,,,,,,,,,,,,,
,,,,,,,,,,,right.png,,p,left,6153b8fd26f1f8772f9a05da,2021-10-27_12h21.23.744,arrow_simon_punish,2021.1.2,Win32,60.07449237,,,,,,,,,,,,,,p,1,1.7011,2.26586897,1,5,1,1,5,0,1,,,,,,,,,,,,,,
,,,,,,,,,,,left.png,,w,right,6153b8fd26f1f8772f9a05da,2021-10-27_12h21.23.744,arrow_simon_punish,2021.1.2,Win32,60.07449237,,,,,,,,,,,,,,w,1,1.1524,1.690122458,1,5,1,2,6,3,1,,,,,,,,,,,,,,
,,,,,,,,,,,left.png,,w,left,6153b8fd26f1f8772f9a05da,2021-10-27_12h21.23.744,arrow_simon_punish,2021.1.2,Win32,60.07449237,,,,,,,,,,,,,,w,1,1.351,1.76647146,1,5,1,3,7,2,1,,,,,,,,,,,,,,
,,,,,,,,,,,left.png,,w,left,6153b8fd26f1f8772f9a05da,2021-10-27_12h21.23.744,arrow_simon_punish,2021.1.2,Win32,60.07449237,,,,,,,,,,,,,,w,1,0.9271,1.505617795,1,5,2,0,8,2,1,,,,,,,,,,,,,,
,,,,,,,,,,,left.png,,w,right,6153b8fd26f1f8772f9a05da,2021-10-27_12h21.23.744,arrow_simon_punish,2021.1.2,Win32,60.07449237,,,,,,,,,,,,,,w,1,1.3025,1.801750076,1,5,2,1,9,3,1,,,,,,,,,,,,,,
,,,,,,,,,,,right.png,,p,right,6153b8fd26f1f8772f9a05da,2021-10-27_12h21.23.744,arrow_simon_punish,2021.1.2,Win32,60.07449237,,,,,,,,,,,,,,p,1,1.4004,1.878228697,0,5,2,2,10,1,1,,,,,,,,,,,,,,
,,,,,,,,,,,left.png,,w,left,6153b8fd26f1f8772f9a05da,2021-10-27_12h21.23.744,arrow_simon_punish,2021.1.2,Win32,60.07449237,,,,,,,,,,,,,,w,1,1.8046,2.438864351,1,5,2,3,11,2,1,,,,,,,,,,,,,,
,,,,,,,,,,,left.png,,w,right,6153b8fd26f1f8772f9a05da,2021-10-27_12h21.23.744,arrow_simon_punish,2021.1.2,Win32,60.07449237,,,,,,,,,,,,,,p,0,1.3293,1.81749585,1,5,3,0,12,3,1,,,,,,,,,,,,,,
,,,,,,,,,,,left.png,,w,left,6153b8fd26f1f8772f9a05da,2021-10-27_12h21.23.744,arrow_simon_punish,2021.1.2,Win32,60.07449237,,,,,,,,,,,,,,w,1,1.7578,2.253115909,1,5,3,1,13,2,1,,,,,,,,,,,,,,
,,,,,,,,,,,left.png,,w,left,6153b8fd26f1f8772f9a05da,2021-10-27_12h21.23.744,arrow_simon_punish,2021.1.2,Win32,60.07449237,,,,,,,,,,,,,,w,1,1.2006,1.77024131,1,5,3,2,14,2,1,,,,,,,,,,,,,,
,,,,,,,,,,,left.png,,w,right,6153b8fd26f1f8772f9a05da,2021-10-27_12h21.23.744,arrow_simon_punish,2021.1.2,Win32,60.07449237,,,,,,,,,,,,,,w,1,1.889,2.449250306,1,5,3,3,15,3,1,,,,,,,,,,,,,,
,,,,,,,,,,,left.png,,w,left,6153b8fd26f1f8772f9a05da,2021-10-27_12h21.23.744,arrow_simon_punish,2021.1.2,Win32,60.07449237,,,,,,,,,,,,,,w,1,1.6349,2.004144304,1,5,4,0,16,2,1,,,,,,,,,,,,,,
,,,,,,,,,,,right.png,,p,left,6153b8fd26f1f8772f9a05da,2021-10-27_12h21.23.744,arrow_simon_punish,2021.1.2,Win32,60.07449237,,,,,,,,,,,,,,p,1,1.3706,1.886704938,1,5,4,1,17,0,1,,,,,,,,,,,,,,
,,,,,,,,,,,right.png,,p,left,6153b8fd26f1f8772f9a05da,2021-10-27_12h21.23.744,arrow_simon_punish,2021.1.2,Win32,60.07449237,,,,,,,,,,,,,,w,0,1.5508,2.263627708,1,5,4,2,18,0,1,,,,,,,,,,,,,,
,,,,,,,,,,,right.png,,p,left,6153b8fd26f1f8772f9a05da,2021-10-27_12h21.23.744,arrow_simon_punish,2021.1.2,Win32,60.07449237,,,,,,,,,,,,,,p,1,1.3244,1.737074127,1,5,4,3,19,0,1,,,,,,,,,,,,,,
,,,,,,,,,,,left.png,,w,right,6153b8fd26f1f8772f9a05da,2021-10-27_12h21.23.744,arrow_simon_punish,2021.1.2,Win32,60.07449237,,,,,,,,,,,,,,w,1,1.4291,1.967516884,0,5,5,0,20,3,1,,,,,,,,,,,,,,
,,,,,,,,,,,left.png,,w,right,6153b8fd26f1f8772f9a05da,2021-10-27_12h21.23.744,arrow_simon_punish,2021.1.2,Win32,60.07449237,,,,,,,,,,,,,,w,1,1.2217,1.713337371,1,5,5,1,21,3,1,,,,,,,,,,,,,,
,,,,,,,,,,,right.png,,p,left,6153b8fd26f1f8772f9a05da,2021-10-27_12h21.23.744,arrow_simon_punish,2021.1.2,Win32,60.07449237,,,,,,,,,,,,,,p,1,1.2273,1.673884354,1,5,5,2,22,0,1,,,,,,,,,,,,,,
,,,,,,,,,,,right.png,,p,right,6153b8fd26f1f8772f9a05da,2021-10-27_12h21.23.744,arrow_simon_punish,2021.1.2,Win32,60.07449237,,,,,,,,,,,,,,p,1,0.1249,2.210536557,1,5,5,3,23,1,1,,,,,,,,,,,,,,
,,,,,,,,,,,left.png,,w,right,6153b8fd26f1f8772f9a05da,2021-10-27_12h21.23.744,arrow_simon_punish,2021.1.2,Win32,60.07449237,,,,,,,,,,,,,,w,1,1.4509,2.049852372,0,5,6,0,24,3,1,,,,,,,,,,,,,,
,,,,,,,,,,,left.png,,w,left,6153b8fd26f1f8772f9a05da,2021-10-27_12h21.23.744,arrow_simon_punish,2021.1.2,Win32,60.07449237,,,,,,,,,,,,,,w,1,1.7014,2.220737061,1,5,6,1,25,2,1,,,,,,,,,,,,,,
,,,,,,,,,,,right.png,,p,left,6153b8fd26f1f8772f9a05da,2021-10-27_12h21.23.744,arrow_simon_punish,2021.1.2,Win32,60.07449237,,,,,,,,,,,,,,w,0,1.7841,2.434053575,1,5,6,2,26,0,1,,,,,,,,,,,,,,
,,,,,,,,,,,left.png,,w,right,6153b8fd26f1f8772f9a05da,2021-10-27_12h21.23.744,arrow_simon_punish,2021.1.2,Win32,60.07449237,,,,,,,,,,,,,,w,1,1.3343,1.869197985,1,5,6,3,27,3,1,,,,,,,,,,,,,,
,,,,,,,,,,,right.png,,p,right,6153b8fd26f1f8772f9a05da,2021-10-27_12h21.23.744,arrow_simon_punish,2021.1.2,Win32,60.07449237,,,,,,,,,,,,,,p,1,1.3545,1.919620823,1,5,7,0,28,1,1,,,,,,,,,,,,,,
,,,,,,,,,,,left.png,,w,right,6153b8fd26f1f8772f9a05da,2021-10-27_12h21.23.744,arrow_simon_punish,2021.1.2,Win32,60.07449237,,,,,,,,,,,,,,w,1,1.1677,1.695419218,1,5,7,1,29,3,1,,,,,,,,,,,,,,
,,,,,,,,,,,right.png,,p,left,6153b8fd26f1f8772f9a05da,2021-10-27_12h21.23.744,arrow_simon_punish,2021.1.2,Win32,60.07449237,,,,,,,,,,,,,,p,1,1.5849,2.274437755,0,5,7,2,30,0,1,,,,,,,,,,,,,,
,,,,,,,,,,,right.png,,p,left,6153b8fd26f1f8772f9a05da,2021-10-27_12h21.23.744,arrow_simon_punish,2021.1.2,Win32,60.07449237,,,,,,,,,,,,,,p,1,1.6344,2.254415341,1,5,7,3,31,0,1,,,,,,,,,,,,,,
,,,,,,,,,,,right.png,,p,right,6153b8fd26f1f8772f9a05da,2021-10-27_12h21.23.744,arrow_simon_punish,2021.1.2,Win32,60.07449237,,,,,,,,,,,,,,p,1,1.8366,2.378015159,1,5,8,0,32,1,1,,,,,,,,,,,,,,
,,,,,,,,,,,left.png,,w,left,6153b8fd26f1f8772f9a05da,2021-10-27_12h21.23.744,arrow_simon_punish,2021.1.2,Win32,60.07449237,,,,,,,,,,,,,,w,1,1.2256,1.781724416,1,5,8,1,33,2,1,,,,,,,,,,,,,,
,,,,,,,,,,,right.png,,p,right,6153b8fd26f1f8772f9a05da,2021-10-27_12h21.23.744,arrow_simon_punish,2021.1.2,Win32,60.07449237,,,,,,,,,,,,,,p,1,1.3291,1.515272952,1,5,8,2,34,1,1,,,,,,,,,,,,,,
,,,,,,,,,,,right.png,,p,right,6153b8fd26f1f8772f9a05da,2021-10-27_12h21.23.744,arrow_simon_punish,2021.1.2,Win32,60.07449237,,,,,,,,,,,,,,p,1,1.5717,2.10439435,0,5,8,3,35,1,1,,,,,,,,,,,,,,
,,,,,,,,,,,right.png,,p,left,6153b8fd26f1f8772f9a05da,2021-10-27_12h21.23.744,arrow_simon_punish,2021.1.2,Win32,60.07449237,,,,,,,,,,,,,,p,1,1.3401,1.51974042,1,5,9,0,36,0,1,,,,,,,,,,,,,,
,,,,,,,,,,,left.png,,w,right,6153b8fd26f1f8772f9a05da,2021-10-27_12h21.23.744,arrow_simon_punish,2021.1.2,Win32,60.07449237,,,,,,,,,,,,,,p,0,1.635,2.494461699,1,5,9,1,37,3,1,,,,,,,,,,,,,,
,,,,,,,,,,,right.png,,p,left,6153b8fd26f1f8772f9a05da,2021-10-27_12h21.23.744,arrow_simon_punish,2021.1.2,Win32,60.07449237,,,,,,,,,,,,,,p,1,1.3841,1.880541302,1,5,9,2,38,0,1,,,,,,,,,,,,,,
,,,,,,,,,,,left.png,,w,left,6153b8fd26f1f8772f9a05da,2021-10-27_12h21.23.744,arrow_simon_punish,2021.1.2,Win32,60.07449237,,,,,,,,,,,,,,p,0,1.6858,2.42011157,1,5,9,3,39,2,1,,,,,,,,,,,,,,
,,,,,,,,,,,right.png,,p,left,6153b8fd26f1f8772f9a05da,2021-10-27_12h21.23.744,arrow_simon_punish,2021.1.2,Win32,60.07449237,,,,,,,,,,,,,,p,1,1.5254,1.950557957,0,5,10,0,40,0,1,,,,,,,,,,,,,,
,,,,,,,,,,,right.png,,p,right,6153b8fd26f1f8772f9a05da,2021-10-27_12h21.23.744,arrow_simon_punish,2021.1.2,Win32,60.07449237,,,,,,,,,,,,,,p,1,1.3344,1.522524099,1,5,10,1,41,1,1,,,,,,,,,,,,,,
,,,,,,,,,,,left.png,,w,left,6153b8fd26f1f8772f9a05da,2021-10-27_12h21.23.744,arrow_simon_punish,2021.1.2,Win32,60.07449237,,,,,,,,,,,,,,w,1,1.6675,2.31925579,1,5,10,2,42,2,1,,,,,,,,,,,,,,
,,,,,,,,,,,left.png,,w,right,6153b8fd26f1f8772f9a05da,2021-10-27_12h21.23.744,arrow_simon_punish,2021.1.2,Win32,60.07449237,,,,,,,,,,,,,,w,1,1.713,1.953407398,1,5,10,3,43,3,1,,,,,,,,,,,,,,
,,,,,,,,,,,right.png,,p,right,6153b8fd26f1f8772f9a05da,2021-10-27_12h21.23.744,arrow_simon_punish,2021.1.2,Win32,60.07449237,,,,,,,,,,,,,,p,1,1.8955,2.31793722,1,5,11,0,44,1,1,,,,,,,,,,,,,,
,,,,,,,,,,,right.png,,p,right,6153b8fd26f1f8772f9a05da,2021-10-27_12h21.23.744,arrow_simon_punish,2021.1.2,Win32,60.07449237,,,,,,,,,,,,,,p,1,1.1964,1.655940935,1,5,11,1,45,1,1,,,,,,,,,,,,,,
,,,,,,,,,,,right.png,,p,right,6153b8fd26f1f8772f9a05da,2021-10-27_12h21.23.744,arrow_simon_punish,2021.1.2,Win32,60.07449237,,,,,,,,,,,,,,p,1,1.4866,1.97515719,0,5,11,2,46,1,1,,,,,,,,,,,,,,
,,,,,,,,,,,right.png,,p,right,6153b8fd26f1f8772f9a05da,2021-10-27_12h21.23.744,arrow_simon_punish,2021.1.2,Win32,60.07449237,,,,,,,,,,,,,,p,1,1.626,2.212143369,1,5,11,3,47,1,1,,,,,,,,,,,,,,
,,,,,,,,,,,left.png,,w,right,6153b8fd26f1f8772f9a05da,2021-10-27_12h21.23.744,arrow_simon_punish,2021.1.2,Win32,60.07449237,,,,,,,,,,,,,,p,0,1.6406,2.107371402,1,5,12,0,48,3,1,,,,,,,,,,,,,,
,,,,,,,,,,,right.png,,p,right,6153b8fd26f1f8772f9a05da,2021-10-27_12h21.23.744,arrow_simon_punish,2021.1.2,Win32,60.07449237,,,,,,,,,,,,,,w,0,1.1874,1.885840225,1,5,12,1,49,1,1,,,,,,,,,,,,,,
,,,,,,,,,,,left.png,,w,left,6153b8fd26f1f8772f9a05da,2021-10-27_12h21.23.744,arrow_simon_punish,2021.1.2,Win32,60.07449237,,,,,,,,,,,,,,w,1,1.6735,2.281843008,1,5,12,2,50,2,1,,,,,,,,,,,,,,
,,,,,,,,,,,right.png,,p,right,6153b8fd26f1f8772f9a05da,2021-10-27_12h21.23.744,arrow_simon_punish,2021.1.2,Win32,60.07449237,,,,,,,,,,,,,,p,1,1.1175,1.660330487,1,5,12,3,51,1,1,,,,,,,,,,,,,,
,,,,,,,,,,,right.png,,p,right,6153b8fd26f1f8772f9a05da,2021-10-27_12h21.23.744,arrow_simon_punish,2021.1.2,Win32,60.07449237,,,,,,,,,,,,,,p,1,1.1043,1.640934673,1,5,13,0,52,1,1,,,,,,,,,,,,,,
,,,,,,,,,,,left.png,,w,left,6153b8fd26f1f8772f9a05da,2021-10-27_12h21.23.744,arrow_simon_punish,2021.1.2,Win32,60.07449237,,,,,,,,,,,,,,w,1,1.2172,1.845555216,1,5,13,1,53,2,1,,,,,,,,,,,,,,
,,,,,,,,,,,right.png,,p,right,6153b8fd26f1f8772f9a05da,2021-10-27_12h21.23.744,arrow_simon_punish,2021.1.2,Win32,60.07449237,,,,,,,,,,,,,,p,1,1.5864,2.208463423,0,5,13,2,54,1,1,,,,,,,,,,,,,,
,,,,,,,,,,,right.png,,p,left,6153b8fd26f1f8772f9a05da,2021-10-27_12h21.23.744,arrow_simon_punish,2021.1.2,Win32,60.07449237,,,,,,,,,,,,,,w,0,1.6335,2.328797575,1,5,13,3,55,0,1,,,,,,,,,,,,,,
,,,,,,,,,,,left.png,,w,left,6153b8fd26f1f8772f9a05da,2021-10-27_12h21.23.744,arrow_simon_punish,2021.1.2,Win32,60.07449237,,,,,,,,,,,,,,w,1,1.685,2.287986741,1,5,14,0,56,2,1,,,,,,,,,,,,,,
,,,,,,,,,,,left.png,,w,right,6153b8fd26f1f8772f9a05da,2021-10-27_12h21.23.744,arrow_simon_punish,2021.1.2,Win32,60.07449237,,,,,,,,,,,,,,w,1,1.4391,1.981991865,0,5,14,1,57,3,1,,,,,,,,,,,,,,
,,,,,,,,,,,right.png,,p,left,6153b8fd26f1f8772f9a05da,2021-10-27_12h21.23.744,arrow_simon_punish,2021.1.2,Win32,60.07449237,,,,,,,,,,,,,,p,1,1.951,2.46837334,1,5,14,2,58,0,1,,,,,,,,,,,,,,
,,,,,,,,,,,left.png,,w,left,6153b8fd26f1f8772f9a05da,2021-10-27_12h21.23.744,arrow_simon_punish,2021.1.2,Win32,60.07449237,,,,,,,,,,,,,,w,1,1.6577,2.254304901,1,5,14,3,59,2,1,,,,,,,,,,,,,,
,,,,,,,,,,,,,,,6153b8fd26f1f8772f9a05da,2021-10-27_12h21.23.744,arrow_simon_punish,2021.1.2,Win32,60.07449237,,,,,,,,,,,,,,,,,,,,,,,,,space,289.1203,7,2,1,5,1,1,5,,,,,
,,,,,,,,,,,right.png,,p,right,6153b8fd26f1f8772f9a05da,2021-10-27_12h21.23.744,arrow_simon_punish,2021.1.2,Win32,60.07449237,,,,,,,,,,,,,,p,1,1.3602,2.031021133,1,1,0,0,0,1,1,,,,,,,,,,,,,,
,,,,,,,,,,,right.png,,p,left,6153b8fd26f1f8772f9a05da,2021-10-27_12h21.23.744,arrow_simon_punish,2021.1.2,Win32,60.07449237,,,,,,,,,,,,,,p,1,1.4295,1.948789335,0,1,0,1,1,0,1,,,,,,,,,,,,,,
,,,,,,,,,,,right.png,,p,right,6153b8fd26f1f8772f9a05da,2021-10-27_12h21.23.744,arrow_simon_punish,2021.1.2,Win32,60.07449237,,,,,,,,,,,,,,p,1,1.9725,2.436833283,1,1,0,2,2,1,1,,,,,,,,,,,,,,
,,,,,,,,,,,left.png,,w,right,6153b8fd26f1f8772f9a05da,2021-10-27_12h21.23.744,arrow_simon_punish,2021.1.2,Win32,60.07449237,,,,,,,,,,,,,,w,1,1.4014,2.018088613,0,1,0,3,3,3,1,,,,,,,,,,,,,,
,,,,,,,,,,,right.png,,p,left,6153b8fd26f1f8772f9a05da,2021-10-27_12h21.23.744,arrow_simon_punish,2021.1.2,Win32,60.07449237,,,,,,,,,,,,,,p,1,1.3177,1.942223627,1,1,1,0,4,0,1,,,,,,,,,,,,,,
,,,,,,,,,,,left.png,,w,right,6153b8fd26f1f8772f9a05da,2021-10-27_12h21.23.744,arrow_simon_punish,2021.1.2,Win32,60.07449237,,,,,,,,,,,,,,p,0,1.6506,2.39410755,1,1,1,1,5,3,1,,,,,,,,,,,,,,
,,,,,,,,,,,left.png,,w,right,6153b8fd26f1f8772f9a05da,2021-10-27_12h21.23.744,arrow_simon_punish,2021.1.2,Win32,60.07449237,,,,,,,,,,,,,,w,1,1.494,2.10393956,0,1,1,2,6,3,1,,,,,,,,,,,,,,
,,,,,,,,,,,right.png,,p,left,6153b8fd26f1f8772f9a05da,2021-10-27_12h21.23.744,arrow_simon_punish,2021.1.2,Win32,60.07449237,,,,,,,,,,,,,,w,0,1.6337,2.399798705,1,1,1,3,7,0,1,,,,,,,,,,,,,,
,,,,,,,,,,,left.png,,w,left,6153b8fd26f1f8772f9a05da,2021-10-27_12h21.23.744,arrow_simon_punish,2021.1.2,Win32,60.07449237,,,,,,,,,,,,,,w,1,1.3184,1.75797317,1,1,2,0,8,2,1,,,,,,,,,,,,,,
,,,,,,,,,,,right.png,,p,right,6153b8fd26f1f8772f9a05da,2021-10-27_12h21.23.744,arrow_simon_punish,2021.1.2,Win32,60.07449237,,,,,,,,,,,,,,p,1,1.0109,1.612728145,1,1,2,1,9,1,1,,,,,,,,,,,,,,
,,,,,,,,,,,right.png,,p,left,6153b8fd26f1f8772f9a05da,2021-10-27_12h21.23.744,arrow_simon_punish,2021.1.2,Win32,60.07449237,,,,,,,,,,,,,,p,1,1.2855,1.768866135,1,1,2,2,10,0,1,,,,,,,,,,,,,,
,,,,,,,,,,,left.png,,w,left,6153b8fd26f1f8772f9a05da,2021-10-27_12h21.23.744,arrow_simon_punish,2021.1.2,Win32,60.07449237,,,,,,,,,,,,,,w,1,1.3171,2.006458447,1,1,2,3,11,2,1,,,,,,,,,,,,,,
,,,,,,,,,,,right.png,,p,right,6153b8fd26f1f8772f9a05da,2021-10-27_12h21.23.744,arrow_simon_punish,2021.1.2,Win32,60.07449237,,,,,,,,,,,,,,p,1,1.1924,1.833981814,1,1,3,0,12,1,1,,,,,,,,,,,,,,
,,,,,,,,,,,left.png,,w,left,6153b8fd26f1f8772f9a05da,2021-10-27_12h21.23.744,arrow_simon_punish,2021.1.2,Win32,60.07449237,,,,,,,,,,,,,,w,1,1.3463,2.004478408,1,1,3,1,13,2,1,,,,,,,,,,,,,,
,,,,,,,,,,,left.png,,w,left,6153b8fd26f1f8772f9a05da,2021-10-27_12h21.23.744,arrow_simon_punish,2021.1.2,Win32,60.07449237,,,,,,,,,,,,,,p,0,1.7403,2.476146391,1,1,3,2,14,2,1,,,,,,,,,,,,,,
,,,,,,,,,,,right.png,,p,left,6153b8fd26f1f8772f9a05da,2021-10-27_12h21.23.744,arrow_simon_punish,2021.1.2,Win32,60.07449237,,,,,,,,,,,,,,w,0,1.7181,2.490766878,1,1,3,3,15,0,1,,,,,,,,,,,,,,
,,,,,,,,,,,right.png,,p,left,6153b8fd26f1f8772f9a05da,2021-10-27_12h21.23.744,arrow_simon_punish,2021.1.2,Win32,60.07449237,,,,,,,,,,,,,,p,1,1.8682,2.477692219,1,1,4,0,16,0,1,,,,,,,,,,,,,,
,,,,,,,,,,,left.png,,w,left,6153b8fd26f1f8772f9a05da,2021-10-27_12h21.23.744,arrow_simon_punish,2021.1.2,Win32,60.07449237,,,,,,,,,,,,,,p,0,1.118,1.630958971,1,1,4,1,17,2,1,,,,,,,,,,,,,,
,,,,,,,,,,,left.png,,w,left,6153b8fd26f1f8772f9a05da,2021-10-27_12h21.23.744,arrow_simon_punish,2021.1.2,Win32,60.07449237,,,,,,,,,,,,,,w,1,1.5925,2.081107465,0,1,4,2,18,2,1,,,,,,,,,,,,,,
,,,,,,,,,,,left.png,,w,left,6153b8fd26f1f8772f9a05da,2021-10-27_12h21.23.744,arrow_simon_punish,2021.1.2,Win32,60.07449237,,,,,,,,,,,,,,w,1,1.1554,1.681611513,1,1,4,3,19,2,1,,,,,,,,,,,,,,
,,,,,,,,,,,right.png,,p,right,6153b8fd26f1f8772f9a05da,2021-10-27_12h21.23.744,arrow_simon_punish,2021.1.2,Win32,60.07449237,,,,,,,,,,,,,,p,1,1.1014,1.60152601,1,1,5,0,20,1,1,,,,,,,,,,,,,,
,,,,,,,,,,,right.png,,p,right,6153b8fd26f1f8772f9a05da,2021-10-27_12h21.23.744,arrow_simon_punish,2021.1.2,Win32,60.07449237,,,,,,,,,,,,,,p,1,1.2532,1.793558177,1,1,5,1,21,1,1,,,,,,,,,,,,,,
,,,,,,,,,,,right.png,,p,right,6153b8fd26f1f8772f9a05da,2021-10-27_12h21.23.744,arrow_simon_punish,2021.1.2,Win32,60.07449237,,,,,,,,,,,,,,p,1,1.7229,2.105513733,1,1,5,2,22,1,1,,,,,,,,,,,,,,
,,,,,,,,,,,right.png,,p,left,6153b8fd26f1f8772f9a05da,2021-10-27_12h21.23.744,arrow_simon_punish,2021.1.2,Win32,60.07449237,,,,,,,,,,,,,,w,0,2.0871,2.437377403,1,1,5,3,23,0,1,,,,,,,,,,,,,,
,,,,,,,,,,,left.png,,w,left,6153b8fd26f1f8772f9a05da,2021-10-27_12h21.23.744,arrow_simon_punish,2021.1.2,Win32,60.07449237,,,,,,,,,,,,,,w,1,1.6385,2.236474261,1,1,6,0,24,2,1,,,,,,,,,,,,,,
,,,,,,,,,,,left.png,,w,right,6153b8fd26f1f8772f9a05da,2021-10-27_12h21.23.744,arrow_simon_punish,2021.1.2,Win32,60.07449237,,,,,,,,,,,,,,p,0,1.4292,2.083470016,1,1,6,1,25,3,1,,,,,,,,,,,,,,
,,,,,,,,,,,left.png,,w,left,6153b8fd26f1f8772f9a05da,2021-10-27_12h21.23.744,arrow_simon_punish,2021.1.2,Win32,60.07449237,,,,,,,,,,,,,,w,1,1.554,2.143210401,0,1,6,2,26,2,1,,,,,,,,,,,,,,
,,,,,,,,,,,left.png,,w,right,6153b8fd26f1f8772f9a05da,2021-10-27_12h21.23.744,arrow_simon_punish,2021.1.2,Win32,60.07449237,,,,,,,,,,,,,,w,1,1.6558,2.295465778,1,1,6,3,27,3,1,,,,,,,,,,,,,,
,,,,,,,,,,,left.png,,w,right,6153b8fd26f1f8772f9a05da,2021-10-27_12h21.23.744,arrow_simon_punish,2021.1.2,Win32,60.07449237,,,,,,,,,,,,,,w,1,1.2192,1.710802363,1,1,7,0,28,3,1,,,,,,,,,,,,,,
,,,,,,,,,,,left.png,,w,left,6153b8fd26f1f8772f9a05da,2021-10-27_12h21.23.744,arrow_simon_punish,2021.1.2,Win32,60.07449237,,,,,,,,,,,,,,w,1,1.5722,2.291934498,0,1,7,1,29,2,1,,,,,,,,,,,,,,
,,,,,,,,,,,right.png,,p,right,6153b8fd26f1f8772f9a05da,2021-10-27_12h21.23.744,arrow_simon_punish,2021.1.2,Win32,60.07449237,,,,,,,,,,,,,,p,1,1.7597,2.384153137,1,1,7,2,30,1,1,,,,,,,,,,,,,,
,,,,,,,,,,,right.png,,p,right,6153b8fd26f1f8772f9a05da,2021-10-27_12h21.23.744,arrow_simon_punish,2021.1.2,Win32,60.07449237,,,,,,,,,,,,,,p,1,1.4341,1.771103288,0,1,7,3,31,1,1,,,,,,,,,,,,,,
,,,,,,,,,,,left.png,,w,right,6153b8fd26f1f8772f9a05da,2021-10-27_12h21.23.744,arrow_simon_punish,2021.1.2,Win32,60.07449237,,,,,,,,,,,,,,w,1,1.6007,2.151960336,1,1,8,0,32,3,1,,,,,,,,,,,,,,
,,,,,,,,,,,left.png,,w,right,6153b8fd26f1f8772f9a05da,2021-10-27_12h21.23.744,arrow_simon_punish,2021.1.2,Win32,60.07449237,,,,,,,,,,,,,,w,1,1.6889,2.15409833,1,1,8,1,33,3,1,,,,,,,,,,,,,,
,,,,,,,,,,,right.png,,p,right,6153b8fd26f1f8772f9a05da,2021-10-27_12h21.23.744,arrow_simon_punish,2021.1.2,Win32,60.07449237,,,,,,,,,,,,,,p,1,1.2749,1.816946622,1,1,8,2,34,1,1,,,,,,,,,,,,,,
,,,,,,,,,,,right.png,,p,right,6153b8fd26f1f8772f9a05da,2021-10-27_12h21.23.744,arrow_simon_punish,2021.1.2,Win32,60.07449237,,,,,,,,,,,,,,p,1,1.0859,1.505892792,1,1,8,3,35,1,1,,,,,,,,,,,,,,
,,,,,,,,,,,left.png,,w,right,6153b8fd26f1f8772f9a05da,2021-10-27_12h21.23.744,arrow_simon_punish,2021.1.2,Win32,60.07449237,,,,,,,,,,,,,,w,1,1.4075,1.95328634,0,1,9,0,36,3,1,,,,,,,,,,,,,,
,,,,,,,,,,,right.png,,p,left,6153b8fd26f1f8772f9a05da,2021-10-27_12h21.23.744,arrow_simon_punish,2021.1.2,Win32,60.07449237,,,,,,,,,,,,,,p,1,1.9515,2.429846666,1,1,9,1,37,0,1,,,,,,,,,,,,,,
,,,,,,,,,,,left.png,,w,right,6153b8fd26f1f8772f9a05da,2021-10-27_12h21.23.744,arrow_simon_punish,2021.1.2,Win32,60.07449237,,,,,,,,,,,,,,p,0,1.8541,2.338013005,1,1,9,2,38,3,1,,,,,,,,,,,,,,
,,,,,,,,,,,right.png,,p,right,6153b8fd26f1f8772f9a05da,2021-10-27_12h21.23.744,arrow_simon_punish,2021.1.2,Win32,60.07449237,,,,,,,,,,,,,,p,1,1.5342,2.081097445,0,1,9,3,39,1,1,,,,,,,,,,,,,,
,,,,,,,,,,,right.png,,p,right,6153b8fd26f1f8772f9a05da,2021-10-27_12h21.23.744,arrow_simon_punish,2021.1.2,Win32,60.07449237,,,,,,,,,,,,,,w,0,1.5723,2.209814506,1,1,10,0,40,1,1,,,,,,,,,,,,,,
,,,,,,,,,,,left.png,,w,right,6153b8fd26f1f8772f9a05da,2021-10-27_12h21.23.744,arrow_simon_punish,2021.1.2,Win32,60.07449237,,,,,,,,,,,,,,w,1,1.5004,2.16055773,0,1,10,1,41,3,1,,,,,,,,,,,,,,
,,,,,,,,,,,left.png,,w,left,6153b8fd26f1f8772f9a05da,2021-10-27_12h21.23.744,arrow_simon_punish,2021.1.2,Win32,60.07449237,,,,,,,,,,,,,,w,1,1.4342,2.054245103,0,1,10,2,42,2,1,,,,,,,,,,,,,,
,,,,,,,,,,,left.png,,w,right,6153b8fd26f1f8772f9a05da,2021-10-27_12h21.23.744,arrow_simon_punish,2021.1.2,Win32,60.07449237,,,,,,,,,,,,,,p,0,1.0843,1.744086375,1,1,10,3,43,3,1,,,,,,,,,,,,,,
,,,,,,,,,,,right.png,,p,left,6153b8fd26f1f8772f9a05da,2021-10-27_12h21.23.744,arrow_simon_punish,2021.1.2,Win32,60.07449237,,,,,,,,,,,,,,p,1,1.5526,1.934899848,0,1,11,0,44,0,1,,,,,,,,,,,,,,
,,,,,,,,,,,right.png,,p,left,6153b8fd26f1f8772f9a05da,2021-10-27_12h21.23.744,arrow_simon_punish,2021.1.2,Win32,60.07449237,,,,,,,,,,,,,,p,1,1.1218,1.507661328,1,1,11,1,45,0,1,,,,,,,,,,,,,,
,,,,,,,,,,,left.png,,w,left,6153b8fd26f1f8772f9a05da,2021-10-27_12h21.23.744,arrow_simon_punish,2021.1.2,Win32,60.07449237,,,,,,,,,,,,,,w,1,1.0251,1.602644161,1,1,11,2,46,2,1,,,,,,,,,,,,,,
,,,,,,,,,,,right.png,,p,left,6153b8fd26f1f8772f9a05da,2021-10-27_12h21.23.744,arrow_simon_punish,2021.1.2,Win32,60.07449237,,,,,,,,,,,,,,p,1,1.0714,1.639340013,1,1,11,3,47,0,1,,,,,,,,,,,,,,
,,,,,,,,,,,right.png,,p,left,6153b8fd26f1f8772f9a05da,2021-10-27_12h21.23.744,arrow_simon_punish,2021.1.2,Win32,60.07449237,,,,,,,,,,,,,,p,1,1.6939,2.286785519,1,1,12,0,48,0,1,,,,,,,,,,,,,,
,,,,,,,,,,,left.png,,w,right,6153b8fd26f1f8772f9a05da,2021-10-27_12h21.23.744,arrow_simon_punish,2021.1.2,Win32,60.07449237,,,,,,,,,,,,,,p,0,1.6077,2.280022521,1,1,12,1,49,3,1,,,,,,,,,,,,,,
,,,,,,,,,,,right.png,,p,right,6153b8fd26f1f8772f9a05da,2021-10-27_12h21.23.744,arrow_simon_punish,2021.1.2,Win32,60.07449237,,,,,,,,,,,,,,w,0,1.7611,2.473543359,1,1,12,2,50,1,1,,,,,,,,,,,,,,
,,,,,,,,,,,left.png,,w,left,6153b8fd26f1f8772f9a05da,2021-10-27_12h21.23.744,arrow_simon_punish,2021.1.2,Win32,60.07449237,,,,,,,,,,,,,,w,1,4.7844,1.730531279,1,1,12,3,51,2,1,,,,,,,,,,,,,,
,,,,,,,,,,,right.png,,p,left,6153b8fd26f1f8772f9a05da,2021-10-27_12h21.23.744,arrow_simon_punish,2021.1.2,Win32,60.07449237,,,,,,,,,,,,,,p,1,1.6006,2.222772484,1,1,13,0,52,0,1,,,,,,,,,,,,,,
,,,,,,,,,,,right.png,,p,left,6153b8fd26f1f8772f9a05da,2021-10-27_12h21.23.744,arrow_simon_punish,2021.1.2,Win32,60.07449237,,,,,,,,,,,,,,p,1,1.5868,2.144723709,0,1,13,1,53,0,1,,,,,,,,,,,,,,
,,,,,,,,,,,right.png,,p,left,6153b8fd26f1f8772f9a05da,2021-10-27_12h21.23.744,arrow_simon_punish,2021.1.2,Win32,60.07449237,,,,,,,,,,,,,,w,0,1.6034,2.349705905,1,1,13,2,54,0,1,,,,,,,,,,,,,,
,,,,,,,,,,,right.png,,p,right,6153b8fd26f1f8772f9a05da,2021-10-27_12h21.23.744,arrow_simon_punish,2021.1.2,Win32,60.07449237,,,,,,,,,,,,,,p,1,1.1111,1.665796803,1,1,13,3,55,1,1,,,,,,,,,,,,,,
,,,,,,,,,,,left.png,,w,left,6153b8fd26f1f8772f9a05da,2021-10-27_12h21.23.744,arrow_simon_punish,2021.1.2,Win32,60.07449237,,,,,,,,,,,,,,w,1,1.4034,2.009104386,0,1,14,0,56,2,1,,,,,,,,,,,,,,
,,,,,,,,,,,left.png,,w,left,6153b8fd26f1f8772f9a05da,2021-10-27_12h21.23.744,arrow_simon_punish,2021.1.2,Win32,60.07449237,,,,,,,,,,,,,,w,1,1.1745,1.596283899,1,1,14,1,57,2,1,,,,,,,,,,,,,,
,,,,,,,,,,,left.png,,w,right,6153b8fd26f1f8772f9a05da,2021-10-27_12h21.23.744,arrow_simon_punish,2021.1.2,Win32,60.07449237,,,,,,,,,,,,,,w,1,1.5683,2.013042081,0,1,14,2,58,3,1,,,,,,,,,,,,,,
,,,,,,,,,,,left.png,,w,right,6153b8fd26f1f8772f9a05da,2021-10-27_12h21.23.744,arrow_simon_punish,2021.1.2,Win32,60.07449237,,,,,,,,,,,,,,w,1,1.2998,1.877205081,1,1,14,3,59,3,1,,,,,,,,,,,,,,
,,,,,,,,,,,,,,,6153b8fd26f1f8772f9a05da,2021-10-27_12h21.23.744,arrow_simon_punish,2021.1.2,Win32,60.07449237,,,,,,,,,,,,,,,,,,,,,,,,,space,24.9968,8,3,0,6,0,1,1,,,,,
,,,,,,,,,,,right.png,,p,right,6153b8fd26f1f8772f9a05da,2021-10-27_12h21.23.744,arrow_simon_punish,2021.1.2,Win32,60.07449237,,,,,,,,,,,,,,p,1,1.2167,1.564755558,1,5,0,0,0,1,1,,,,,,,,,,,,,,
,,,,,,,,,,,left.png,,w,right,6153b8fd26f1f8772f9a05da,2021-10-27_12h21.23.744,arrow_simon_punish,2021.1.2,Win32,60.07449237,,,,,,,,,,,,,,w,1,1.4007,2.030343946,0,5,0,1,1,3,1,,,,,,,,,,,,,,
,,,,,,,,,,,left.png,,w,right,6153b8fd26f1f8772f9a05da,2021-10-27_12h21.23.744,arrow_simon_punish,2021.1.2,Win32,60.07449237,,,,,,,,,,,,,,p,0,1.1997,1.976880058,1,5,0,2,2,3,1,,,,,,,,,,,,,,
,,,,,,,,,,,left.png,,w,left,6153b8fd26f1f8772f9a05da,2021-10-27_12h21.23.744,arrow_simon_punish,2021.1.2,Win32,60.07449237,,,,,,,,,,,,,,p,0,1.5257,2.248965812,1,5,0,3,3,2,1,,,,,,,,,,,,,,
,,,,,,,,,,,left.png,,w,right,6153b8fd26f1f8772f9a05da,2021-10-27_12h21.23.744,arrow_simon_punish,2021.1.2,Win32,60.07449237,,,,,,,,,,,,,,w,1,1.6061,2.174192534,1,5,1,0,4,3,1,,,,,,,,,,,,,,
,,,,,,,,,,,left.png,,w,left,6153b8fd26f1f8772f9a05da,2021-10-27_12h21.23.744,arrow_simon_punish,2021.1.2,Win32,60.07449237,,,,,,,,,,,,,,w,1,1.6004,2.366099807,1,5,1,1,5,2,1,,,,,,,,,,,,,,
,,,,,,,,,,,left.png,,w,right,6153b8fd26f1f8772f9a05da,2021-10-27_12h21.23.744,arrow_simon_punish,2021.1.2,Win32,60.07449237,,,,,,,,,,,,,,w,1,1.5377,2.342624662,0,5,1,2,6,3,1,,,,,,,,,,,,,,
,,,,,,,,,,,right.png,,p,left,6153b8fd26f1f8772f9a05da,2021-10-27_12h21.23.744,arrow_simon_punish,2021.1.2,Win32,60.07449237,,,,,,,,,,,,,,p,1,1.7244,2.339518121,1,5,1,3,7,0,1,,,,,,,,,,,,,,
