instruct_resp_simon.keys,instruct_resp_simon.corr,instruct_resp_simon.rt,trial_resp_simon.keys,trial_resp_simon.corr,trial_resp_simon.rt,trials_train_simon.thisRepN,trials_train_simon.thisTrialN,trials_train_simon.thisN,trials_train_simon.thisIndex,trials_train_simon.ran,target_file,target_pos,target_resp,target_side,participant,date,expName,psychopyVersion,OS,frameRate,instruct_resp_timing.keys,instruct_resp_timing.corr,instruct_resp_timing.rt,trial_resp_timing.keys,trial_resp_timing.rt,trials_train_timing.thisRepN,trials_train_timing.thisTrialN,trials_train_timing.thisN,trials_train_timing.thisIndex,trials_train_timing.ran,instruct_resp.keys,instruct_resp.corr,instruct_resp.rt,trial_resp.keys,trial_resp.corr,trial_resp.rt,target_onset,err,pun,trials.thisRepN,trials.thisTrialN,trials.thisN,trials.thisIndex,trials.ran,block_note_resp.keys,block_note_resp.rt,block_num,blocks.thisRepN,blocks.thisTrialN,blocks.thisN,blocks.thisIndex,blocks.ran,punish,complete_resp.keys,complete_resp.rt,raffle_trial,raffle_err,raffle_rew
space,0,16.58,p,0,2.866,0,0,0,3,1,left.png,,w,right,615f2b3f0eafbabe579b889a,2021-10-27_11h09.42.768,arrow_simon_punish,2021.1.2,MacIntel,57.20823799,,,,,,,,,,,,,,,,,,,,,,,,,,,,,,,,,,,,,,
,,,w,1,4.652,0,1,1,2,1,left.png,,w,left,615f2b3f0eafbabe579b889a,2021-10-27_11h09.42.768,arrow_simon_punish,2021.1.2,MacIntel,57.20823799,,,,,,,,,,,,,,,,,,,,,,,,,,,,,,,,,,,,,,
,,,p,1,3.186,0,2,2,0,1,right.png,,p,left,615f2b3f0eafbabe579b889a,2021-10-27_11h09.42.768,arrow_simon_punish,2021.1.2,MacIntel,57.20823799,,,,,,,,,,,,,,,,,,,,,,,,,,,,,,,,,,,,,,
,,,p,1,2.896,0,3,3,1,1,right.png,,p,right,615f2b3f0eafbabe579b889a,2021-10-27_11h09.42.768,arrow_simon_punish,2021.1.2,MacIntel,57.20823799,,,,,,,,,,,,,,,,,,,,,,,,,,,,,,,,,,,,,,
,,,w,1,1.122,1,0,4,3,1,left.png,,w,right,615f2b3f0eafbabe579b889a,2021-10-27_11h09.42.768,arrow_simon_punish,2021.1.2,MacIntel,57.20823799,,,,,,,,,,,,,,,,,,,,,,,,,,,,,,,,,,,,,,
,,,p,0,2.72,1,1,5,2,1,left.png,,w,left,615f2b3f0eafbabe579b889a,2021-10-27_11h09.42.768,arrow_simon_punish,2021.1.2,MacIntel,57.20823799,,,,,,,,,,,,,,,,,,,,,,,,,,,,,,,,,,,,,,
,,,w,0,1.349,1,2,6,1,1,right.png,,p,right,615f2b3f0eafbabe579b889a,2021-10-27_11h09.42.768,arrow_simon_punish,2021.1.2,MacIntel,57.20823799,,,,,,,,,,,,,,,,,,,,,,,,,,,,,,,,,,,,,,
,,,p,1,7.749,1,3,7,0,1,right.png,,p,left,615f2b3f0eafbabe579b889a,2021-10-27_11h09.42.768,arrow_simon_punish,2021.1.2,MacIntel,57.20823799,,,,,,,,,,,,,,,,,,,,,,,,,,,,,,,,,,,,,,
,,,p,0,2.94,2,0,8,3,1,left.png,,w,right,615f2b3f0eafbabe579b889a,2021-10-27_11h09.42.768,arrow_simon_punish,2021.1.2,MacIntel,57.20823799,,,,,,,,,,,,,,,,,,,,,,,,,,,,,,,,,,,,,,
,,,p,0,2.918,2,1,9,2,1,left.png,,w,left,615f2b3f0eafbabe579b889a,2021-10-27_11h09.42.768,arrow_simon_punish,2021.1.2,MacIntel,57.20823799,,,,,,,,,,,,,,,,,,,,,,,,,,,,,,,,,,,,,,
,,,w,0,1.855,2,2,10,1,1,right.png,,p,right,615f2b3f0eafbabe579b889a,2021-10-27_11h09.42.768,arrow_simon_punish,2021.1.2,MacIntel,57.20823799,,,,,,,,,,,,,,,,,,,,,,,,,,,,,,,,,,,,,,
,,,p,1,2.247,2,3,11,0,1,right.png,,p,left,615f2b3f0eafbabe579b889a,2021-10-27_11h09.42.768,arrow_simon_punish,2021.1.2,MacIntel,57.20823799,,,,,,,,,,,,,,,,,,,,,,,,,,,,,,,,,,,,,,
,,,p,0,3.539,3,0,12,3,1,left.png,,w,right,615f2b3f0eafbabe579b889a,2021-10-27_11h09.42.768,arrow_simon_punish,2021.1.2,MacIntel,57.20823799,,,,,,,,,,,,,,,,,,,,,,,,,,,,,,,,,,,,,,
,,,p,1,3.144,3,1,13,1,1,right.png,,p,right,615f2b3f0eafbabe579b889a,2021-10-27_11h09.42.768,arrow_simon_punish,2021.1.2,MacIntel,57.20823799,,,,,,,,,,,,,,,,,,,,,,,,,,,,,,,,,,,,,,
,,,w,0,2.843,3,2,14,0,1,right.png,,p,left,615f2b3f0eafbabe579b889a,2021-10-27_11h09.42.768,arrow_simon_punish,2021.1.2,MacIntel,57.20823799,,,,,,,,,,,,,,,,,,,,,,,,,,,,,,,,,,,,,,
,,,w,1,4.303,3,3,15,2,1,left.png,,w,left,615f2b3f0eafbabe579b889a,2021-10-27_11h09.42.768,arrow_simon_punish,2021.1.2,MacIntel,57.20823799,,,,,,,,,,,,,,,,,,,,,,,,,,,,,,,,,,,,,,
,,,p,1,3.623,4,0,16,1,1,right.png,,p,right,615f2b3f0eafbabe579b889a,2021-10-27_11h09.42.768,arrow_simon_punish,2021.1.2,MacIntel,57.20823799,,,,,,,,,,,,,,,,,,,,,,,,,,,,,,,,,,,,,,
,,,p,1,5.577,4,1,17,0,1,right.png,,p,left,615f2b3f0eafbabe579b889a,2021-10-27_11h09.42.768,arrow_simon_punish,2021.1.2,MacIntel,57.20823799,,,,,,,,,,,,,,,,,,,,,,,,,,,,,,,,,,,,,,
,,,w,1,7.016,4,2,18,3,1,left.png,,w,right,615f2b3f0eafbabe579b889a,2021-10-27_11h09.42.768,arrow_simon_punish,2021.1.2,MacIntel,57.20823799,,,,,,,,,,,,,,,,,,,,,,,,,,,,,,,,,,,,,,
,,,w,1,5.36,4,3,19,2,1,left.png,,w,left,615f2b3f0eafbabe579b889a,2021-10-27_11h09.42.768,arrow_simon_punish,2021.1.2,MacIntel,57.20823799,,,,,,,,,,,,,,,,,,,,,,,,,,,,,,,,,,,,,,
,,,p,1,1.913,5,0,20,1,1,right.png,,p,right,615f2b3f0eafbabe579b889a,2021-10-27_11h09.42.768,arrow_simon_punish,2021.1.2,MacIntel,57.20823799,,,,,,,,,,,,,,,,,,,,,,,,,,,,,,,,,,,,,,
,,,w,1,6.571,5,1,21,3,1,left.png,,w,right,615f2b3f0eafbabe579b889a,2021-10-27_11h09.42.768,arrow_simon_punish,2021.1.2,MacIntel,57.20823799,,,,,,,,,,,,,,,,,,,,,,,,,,,,,,,,,,,,,,
,,,p,1,2.478,5,2,22,0,1,right.png,,p,left,615f2b3f0eafbabe579b889a,2021-10-27_11h09.42.768,arrow_simon_punish,2021.1.2,MacIntel,57.20823799,,,,,,,,,,,,,,,,,,,,,,,,,,,,,,,,,,,,,,
,,,w,1,5.47,5,3,23,2,1,left.png,,w,left,615f2b3f0eafbabe579b889a,2021-10-27_11h09.42.768,arrow_simon_punish,2021.1.2,MacIntel,57.20823799,,,,,,,,,,,,,,,,,,,,,,,,,,,,,,,,,,,,,,
,,,w,1,4.996,6,0,24,2,1,left.png,,w,left,615f2b3f0eafbabe579b889a,2021-10-27_11h09.42.768,arrow_simon_punish,2021.1.2,MacIntel,57.20823799,,,,,,,,,,,,,,,,,,,,,,,,,,,,,,,,,,,,,,
,,,p,1,1.649,6,1,25,0,1,right.png,,p,left,615f2b3f0eafbabe579b889a,2021-10-27_11h09.42.768,arrow_simon_punish,2021.1.2,MacIntel,57.20823799,,,,,,,,,,,,,,,,,,,,,,,,,,,,,,,,,,,,,,
,,,w,1,2.745,6,2,26,3,1,left.png,,w,right,615f2b3f0eafbabe579b889a,2021-10-27_11h09.42.768,arrow_simon_punish,2021.1.2,MacIntel,57.20823799,,,,,,,,,,,,,,,,,,,,,,,,,,,,,,,,,,,,,,
,,,p,1,5.328,6,3,27,1,1,right.png,,p,right,615f2b3f0eafbabe579b889a,2021-10-27_11h09.42.768,arrow_simon_punish,2021.1.2,MacIntel,57.20823799,,,,,,,,,,,,,,,,,,,,,,,,,,,,,,,,,,,,,,
,,,w,1,1.439,7,0,28,3,1,left.png,,w,right,615f2b3f0eafbabe579b889a,2021-10-27_11h09.42.768,arrow_simon_punish,2021.1.2,MacIntel,57.20823799,,,,,,,,,,,,,,,,,,,,,,,,,,,,,,,,,,,,,,
,,,p,1,1.281,7,1,29,1,1,right.png,,p,right,615f2b3f0eafbabe579b889a,2021-10-27_11h09.42.768,arrow_simon_punish,2021.1.2,MacIntel,57.20823799,,,,,,,,,,,,,,,,,,,,,,,,,,,,,,,,,,,,,,
,,,p,1,3.367,7,2,30,0,1,right.png,,p,left,615f2b3f0eafbabe579b889a,2021-10-27_11h09.42.768,arrow_simon_punish,2021.1.2,MacIntel,57.20823799,,,,,,,,,,,,,,,,,,,,,,,,,,,,,,,,,,,,,,
,,,w,1,1.005,7,3,31,2,1,left.png,,w,left,615f2b3f0eafbabe579b889a,2021-10-27_11h09.42.768,arrow_simon_punish,2021.1.2,MacIntel,57.20823799,,,,,,,,,,,,,,,,,,,,,,,,,,,,,,,,,,,,,,
,,,p,1,2.747,8,0,32,0,1,right.png,,p,left,615f2b3f0eafbabe579b889a,2021-10-27_11h09.42.768,arrow_simon_punish,2021.1.2,MacIntel,57.20823799,,,,,,,,,,,,,,,,,,,,,,,,,,,,,,,,,,,,,,
,,,w,1,1.5,8,1,33,3,1,left.png,,w,right,615f2b3f0eafbabe579b889a,2021-10-27_11h09.42.768,arrow_simon_punish,2021.1.2,MacIntel,57.20823799,,,,,,,,,,,,,,,,,,,,,,,,,,,,,,,,,,,,,,
,,,w,1,3.411,8,2,34,2,1,left.png,,w,left,615f2b3f0eafbabe579b889a,2021-10-27_11h09.42.768,arrow_simon_punish,2021.1.2,MacIntel,57.20823799,,,,,,,,,,,,,,,,,,,,,,,,,,,,,,,,,,,,,,
,,,p,1,1.748,8,3,35,1,1,right.png,,p,right,615f2b3f0eafbabe579b889a,2021-10-27_11h09.42.768,arrow_simon_punish,2021.1.2,MacIntel,57.20823799,,,,,,,,,,,,,,,,,,,,,,,,,,,,,,,,,,,,,,
,,,w,1,1.949,9,0,36,2,1,left.png,,w,left,615f2b3f0eafbabe579b889a,2021-10-27_11h09.42.768,arrow_simon_punish,2021.1.2,MacIntel,57.20823799,,,,,,,,,,,,,,,,,,,,,,,,,,,,,,,,,,,,,,
,,,p,1,2.224,9,1,37,1,1,right.png,,p,right,615f2b3f0eafbabe579b889a,2021-10-27_11h09.42.768,arrow_simon_punish,2021.1.2,MacIntel,57.20823799,,,,,,,,,,,,,,,,,,,,,,,,,,,,,,,,,,,,,,
,,,w,1,31.544,9,2,38,3,1,left.png,,w,right,615f2b3f0eafbabe579b889a,2021-10-27_11h09.42.768,arrow_simon_punish,2021.1.2,MacIntel,57.20823799,,,,,,,,,,,,,,,,,,,,,,,,,,,,,,,,,,,,,,
,,,p,1,9.221,9,3,39,0,1,right.png,,p,left,615f2b3f0eafbabe579b889a,2021-10-27_11h09.42.768,arrow_simon_punish,2021.1.2,MacIntel,57.20823799,,,,,,,,,,,,,,,,,,,,,,,,,,,,,,,,,,,,,,
,,,,,,,,,,,,,,,615f2b3f0eafbabe579b889a,2021-10-27_11h09.42.768,arrow_simon_punish,2021.1.2,MacIntel,57.20823799,space,0,10.109,w,8.783,0,0,0,0,1,,,,,,,,,,,,,,,,,,,,,,,,,,,,
,,,,,,,,,,,,,,,615f2b3f0eafbabe579b889a,2021-10-27_11h09.42.768,arrow_simon_punish,2021.1.2,MacIntel,57.20823799,,,,p,2.187,1,0,1,0,1,,,,,,,,,,,,,,,,,,,,,,,,,,,,
,,,,,,,,,,,,,,,615f2b3f0eafbabe579b889a,2021-10-27_11h09.42.768,arrow_simon_punish,2021.1.2,MacIntel,57.20823799,,,,p,1.487,2,0,2,0,1,,,,,,,,,,,,,,,,,,,,,,,,,,,,
,,,,,,,,,,,,,,,615f2b3f0eafbabe579b889a,2021-10-27_11h09.42.768,arrow_simon_punish,2021.1.2,MacIntel,57.20823799,,,,w,1.591,3,0,3,0,1,,,,,,,,,,,,,,,,,,,,,,,,,,,,
,,,,,,,,,,,,,,,615f2b3f0eafbabe579b889a,2021-10-27_11h09.42.768,arrow_simon_punish,2021.1.2,MacIntel,57.20823799,,,,p,3.089,4,0,4,0,1,,,,,,,,,,,,,,,,,,,,,,,,,,,,
,,,,,,,,,,,,,,,615f2b3f0eafbabe579b889a,2021-10-27_11h09.42.768,arrow_simon_punish,2021.1.2,MacIntel,57.20823799,,,,p,2.797,5,0,5,0,1,,,,,,,,,,,,,,,,,,,,,,,,,,,,
,,,,,,,,,,,,,,,615f2b3f0eafbabe579b889a,2021-10-27_11h09.42.768,arrow_simon_punish,2021.1.2,MacIntel,57.20823799,,,,p,1.537,6,0,6,0,1,,,,,,,,,,,,,,,,,,,,,,,,,,,,
,,,,,,,,,,,,,,,615f2b3f0eafbabe579b889a,2021-10-27_11h09.42.768,arrow_simon_punish,2021.1.2,MacIntel,57.20823799,,,,p,10.954,7,0,7,0,1,,,,,,,,,,,,,,,,,,,,,,,,,,,,
,,,,,,,,,,,,,,,615f2b3f0eafbabe579b889a,2021-10-27_11h09.42.768,arrow_simon_punish,2021.1.2,MacIntel,57.20823799,,,,p,2.824,8,0,8,0,1,,,,,,,,,,,,,,,,,,,,,,,,,,,,
,,,,,,,,,,,,,,,615f2b3f0eafbabe579b889a,2021-10-27_11h09.42.768,arrow_simon_punish,2021.1.2,MacIntel,57.20823799,,,,w,1.36,9,0,9,0,1,,,,,,,,,,,,,,,,,,,,,,,,,,,,
,,,,,,,,,,,,,,,615f2b3f0eafbabe579b889a,2021-10-27_11h09.42.768,arrow_simon_punish,2021.1.2,MacIntel,57.20823799,,,,p,2.872,10,0,10,0,1,,,,,,,,,,,,,,,,,,,,,,,,,,,,
,,,,,,,,,,,,,,,615f2b3f0eafbabe579b889a,2021-10-27_11h09.42.768,arrow_simon_punish,2021.1.2,MacIntel,57.20823799,,,,p,1.275,11,0,11,0,1,,,,,,,,,,,,,,,,,,,,,,,,,,,,
,,,,,,,,,,,,,,,615f2b3f0eafbabe579b889a,2021-10-27_11h09.42.768,arrow_simon_punish,2021.1.2,MacIntel,57.20823799,,,,w,0.439,12,0,12,0,1,,,,,,,,,,,,,,,,,,,,,,,,,,,,
,,,,,,,,,,,,,,,615f2b3f0eafbabe579b889a,2021-10-27_11h09.42.768,arrow_simon_punish,2021.1.2,MacIntel,57.20823799,,,,w,1.992,13,0,13,0,1,,,,,,,,,,,,,,,,,,,,,,,,,,,,
,,,,,,,,,,,,,,,615f2b3f0eafbabe579b889a,2021-10-27_11h09.42.768,arrow_simon_punish,2021.1.2,MacIntel,57.20823799,,,,p,2.805,14,0,14,0,1,,,,,,,,,,,,,,,,,,,,,,,,,,,,
,,,,,,,,,,,,,,,615f2b3f0eafbabe579b889a,2021-10-27_11h09.42.768,arrow_simon_punish,2021.1.2,MacIntel,57.20823799,,,,p,2.239,15,0,15,0,1,,,,,,,,,,,,,,,,,,,,,,,,,,,,
,,,,,,,,,,,,,,,615f2b3f0eafbabe579b889a,2021-10-27_11h09.42.768,arrow_simon_punish,2021.1.2,MacIntel,57.20823799,,,,p,2.473,16,0,16,0,1,,,,,,,,,,,,,,,,,,,,,,,,,,,,
,,,,,,,,,,,,,,,615f2b3f0eafbabe579b889a,2021-10-27_11h09.42.768,arrow_simon_punish,2021.1.2,MacIntel,57.20823799,,,,p,2.325,17,0,17,0,1,,,,,,,,,,,,,,,,,,,,,,,,,,,,
,,,,,,,,,,,,,,,615f2b3f0eafbabe579b889a,2021-10-27_11h09.42.768,arrow_simon_punish,2021.1.2,MacIntel,57.20823799,,,,p,2.239,18,0,18,0,1,,,,,,,,,,,,,,,,,,,,,,,,,,,,
,,,,,,,,,,,,,,,615f2b3f0eafbabe579b889a,2021-10-27_11h09.42.768,arrow_simon_punish,2021.1.2,MacIntel,57.20823799,,,,p,2.839,19,0,19,0,1,,,,,,,,,,,,,,,,,,,,,,,,,,,,
,,,,,,,,,,,,,,,615f2b3f0eafbabe579b889a,2021-10-27_11h09.42.768,arrow_simon_punish,2021.1.2,MacIntel,57.20823799,,,,p,2.492,20,0,20,0,1,,,,,,,,,,,,,,,,,,,,,,,,,,,,
,,,,,,,,,,,,,,,615f2b3f0eafbabe579b889a,2021-10-27_11h09.42.768,arrow_simon_punish,2021.1.2,MacIntel,57.20823799,,,,p,2.471,21,0,21,0,1,,,,,,,,,,,,,,,,,,,,,,,,,,,,
,,,,,,,,,,,,,,,615f2b3f0eafbabe579b889a,2021-10-27_11h09.42.768,arrow_simon_punish,2021.1.2,MacIntel,57.20823799,,,,p,2.106,22,0,22,0,1,,,,,,,,,,,,,,,,,,,,,,,,,,,,
,,,,,,,,,,,,,,,615f2b3f0eafbabe579b889a,2021-10-27_11h09.42.768,arrow_simon_punish,2021.1.2,MacIntel,57.20823799,,,,p,2.29,23,0,23,0,1,,,,,,,,,,,,,,,,,,,,,,,,,,,,
,,,,,,,,,,,,,,,615f2b3f0eafbabe579b889a,2021-10-27_11h09.42.768,arrow_simon_punish,2021.1.2,MacIntel,57.20823799,,,,p,2.82,24,0,24,0,1,,,,,,,,,,,,,,,,,,,,,,,,,,,,
,,,,,,,,,,,,,,,615f2b3f0eafbabe579b889a,2021-10-27_11h09.42.768,arrow_simon_punish,2021.1.2,MacIntel,57.20823799,,,,p,2.489,25,0,25,0,1,,,,,,,,,,,,,,,,,,,,,,,,,,,,
,,,,,,,,,,,,,,,615f2b3f0eafbabe579b889a,2021-10-27_11h09.42.768,arrow_simon_punish,2021.1.2,MacIntel,57.20823799,,,,p,2.488,26,0,26,0,1,,,,,,,,,,,,,,,,,,,,,,,,,,,,
,,,,,,,,,,,,,,,615f2b3f0eafbabe579b889a,2021-10-27_11h09.42.768,arrow_simon_punish,2021.1.2,MacIntel,57.20823799,,,,p,2.475,27,0,27,0,1,,,,,,,,,,,,,,,,,,,,,,,,,,,,
,,,,,,,,,,,,,,,615f2b3f0eafbabe579b889a,2021-10-27_11h09.42.768,arrow_simon_punish,2021.1.2,MacIntel,57.20823799,,,,p,2.753,28,0,28,0,1,,,,,,,,,,,,,,,,,,,,,,,,,,,,
,,,,,,,,,,,,,,,615f2b3f0eafbabe579b889a,2021-10-27_11h09.42.768,arrow_simon_punish,2021.1.2,MacIntel,57.20823799,,,,p,2.106,29,0,29,0,1,,,,,,,,,,,,,,,,,,,,,,,,,,,,
,,,,,,,,,,,,,,,615f2b3f0eafbabe579b889a,2021-10-27_11h09.42.768,arrow_simon_punish,2021.1.2,MacIntel,57.20823799,,,,p,2.874,30,0,30,0,1,,,,,,,,,,,,,,,,,,,,,,,,,,,,
,,,,,,,,,,,,,,,615f2b3f0eafbabe579b889a,2021-10-27_11h09.42.768,arrow_simon_punish,2021.1.2,MacIntel,57.20823799,,,,p,2.639,31,0,31,0,1,,,,,,,,,,,,,,,,,,,,,,,,,,,,
,,,,,,,,,,,,,,,615f2b3f0eafbabe579b889a,2021-10-27_11h09.42.768,arrow_simon_punish,2021.1.2,MacIntel,57.20823799,,,,p,2.724,32,0,32,0,1,,,,,,,,,,,,,,,,,,,,,,,,,,,,
,,,,,,,,,,,,,,,615f2b3f0eafbabe579b889a,2021-10-27_11h09.42.768,arrow_simon_punish,2021.1.2,MacIntel,57.20823799,,,,p,2.122,33,0,33,0,1,,,,,,,,,,,,,,,,,,,,,,,,,,,,
,,,,,,,,,,,,,,,615f2b3f0eafbabe579b889a,2021-10-27_11h09.42.768,arrow_simon_punish,2021.1.2,MacIntel,57.20823799,,,,p,2.805,34,0,34,0,1,,,,,,,,,,,,,,,,,,,,,,,,,,,,
,,,,,,,,,,,,,,,615f2b3f0eafbabe579b889a,2021-10-27_11h09.42.768,arrow_simon_punish,2021.1.2,MacIntel,57.20823799,,,,p,3.903,35,0,35,0,1,,,,,,,,,,,,,,,,,,,,,,,,,,,,
,,,,,,,,,,,,,,,615f2b3f0eafbabe579b889a,2021-10-27_11h09.42.768,arrow_simon_punish,2021.1.2,MacIntel,57.20823799,,,,p,2.454,36,0,36,0,1,,,,,,,,,,,,,,,,,,,,,,,,,,,,
,,,,,,,,,,,,,,,615f2b3f0eafbabe579b889a,2021-10-27_11h09.42.768,arrow_simon_punish,2021.1.2,MacIntel,57.20823799,,,,p,2.456,37,0,37,0,1,,,,,,,,,,,,,,,,,,,,,,,,,,,,
,,,,,,,,,,,,,,,615f2b3f0eafbabe579b889a,2021-10-27_11h09.42.768,arrow_simon_punish,2021.1.2,MacIntel,57.20823799,,,,p,2.46,38,0,38,0,1,,,,,,,,,,,,,,,,,,,,,,,,,,,,
,,,,,,,,,,,,,,,615f2b3f0eafbabe579b889a,2021-10-27_11h09.42.768,arrow_simon_punish,2021.1.2,MacIntel,57.20823799,,,,p,2.422,39,0,39,0,1,,,,,,,,,,,,,,,,,,,,,,,,,,,,
,,,,,,,,,,,,,,,615f2b3f0eafbabe579b889a,2021-10-27_11h09.42.768,arrow_simon_punish,2021.1.2,MacIntel,57.20823799,,,,p,2.39,40,0,40,0,1,,,,,,,,,,,,,,,,,,,,,,,,,,,,
,,,,,,,,,,,,,,,615f2b3f0eafbabe579b889a,2021-10-27_11h09.42.768,arrow_simon_punish,2021.1.2,MacIntel,57.20823799,,,,p,2.457,41,0,41,0,1,,,,,,,,,,,,,,,,,,,,,,,,,,,,
,,,,,,,,,,,,,,,615f2b3f0eafbabe579b889a,2021-10-27_11h09.42.768,arrow_simon_punish,2021.1.2,MacIntel,57.20823799,,,,p,2.393,42,0,42,0,1,,,,,,,,,,,,,,,,,,,,,,,,,,,,
,,,,,,,,,,,,,,,615f2b3f0eafbabe579b889a,2021-10-27_11h09.42.768,arrow_simon_punish,2021.1.2,MacIntel,57.20823799,,,,p,2.425,43,0,43,0,1,,,,,,,,,,,,,,,,,,,,,,,,,,,,
,,,,,,,,,,,,,,,615f2b3f0eafbabe579b889a,2021-10-27_11h09.42.768,arrow_simon_punish,2021.1.2,MacIntel,57.20823799,,,,p,2.488,44,0,44,0,1,,,,,,,,,,,,,,,,,,,,,,,,,,,,
,,,,,,,,,,,,,,,615f2b3f0eafbabe579b889a,2021-10-27_11h09.42.768,arrow_simon_punish,2021.1.2,MacIntel,57.20823799,,,,p,2.406,45,0,45,0,1,,,,,,,,,,,,,,,,,,,,,,,,,,,,
,,,,,,,,,,,,,,,615f2b3f0eafbabe579b889a,2021-10-27_11h09.42.768,arrow_simon_punish,2021.1.2,MacIntel,57.20823799,,,,p,2.405,46,0,46,0,1,,,,,,,,,,,,,,,,,,,,,,,,,,,,
,,,,,,,,,,,,,,,615f2b3f0eafbabe579b889a,2021-10-27_11h09.42.768,arrow_simon_punish,2021.1.2,MacIntel,57.20823799,,,,p,2.423,47,0,47,0,1,,,,,,,,,,,,,,,,,,,,,,,,,,,,
,,,,,,,,,,,,,,,615f2b3f0eafbabe579b889a,2021-10-27_11h09.42.768,arrow_simon_punish,2021.1.2,MacIntel,57.20823799,,,,p,2.454,48,0,48,0,1,,,,,,,,,,,,,,,,,,,,,,,,,,,,
,,,,,,,,,,,,,,,615f2b3f0eafbabe579b889a,2021-10-27_11h09.42.768,arrow_simon_punish,2021.1.2,MacIntel,57.20823799,,,,p,2.623,49,0,49,0,1,,,,,,,,,,,,,,,,,,,,,,,,,,,,
,,,,,,,,,,,,,,,615f2b3f0eafbabe579b889a,2021-10-27_11h09.42.768,arrow_simon_punish,2021.1.2,MacIntel,57.20823799,,,,p,2.557,50,0,50,0,1,,,,,,,,,,,,,,,,,,,,,,,,,,,,
,,,,,,,,,,,,,,,615f2b3f0eafbabe579b889a,2021-10-27_11h09.42.768,arrow_simon_punish,2021.1.2,MacIntel,57.20823799,,,,p,2.607,51,0,51,0,1,,,,,,,,,,,,,,,,,,,,,,,,,,,,
,,,,,,,,,,,,,,,615f2b3f0eafbabe579b889a,2021-10-27_11h09.42.768,arrow_simon_punish,2021.1.2,MacIntel,57.20823799,,,,p,2.488,52,0,52,0,1,,,,,,,,,,,,,,,,,,,,,,,,,,,,
,,,,,,,,,,,,,,,615f2b3f0eafbabe579b889a,2021-10-27_11h09.42.768,arrow_simon_punish,2021.1.2,MacIntel,57.20823799,,,,p,2.457,53,0,53,0,1,,,,,,,,,,,,,,,,,,,,,,,,,,,,
,,,,,,,,,,,,,,,615f2b3f0eafbabe579b889a,2021-10-27_11h09.42.768,arrow_simon_punish,2021.1.2,MacIntel,57.20823799,,,,p,2.556,54,0,54,0,1,,,,,,,,,,,,,,,,,,,,,,,,,,,,
,,,,,,,,,,,,,,,615f2b3f0eafbabe579b889a,2021-10-27_11h09.42.768,arrow_simon_punish,2021.1.2,MacIntel,57.20823799,,,,p,2.359,55,0,55,0,1,,,,,,,,,,,,,,,,,,,,,,,,,,,,
,,,,,,,,,,,,,,,615f2b3f0eafbabe579b889a,2021-10-27_11h09.42.768,arrow_simon_punish,2021.1.2,MacIntel,57.20823799,,,,p,2.573,56,0,56,0,1,,,,,,,,,,,,,,,,,,,,,,,,,,,,
,,,,,,,,,,,,,,,615f2b3f0eafbabe579b889a,2021-10-27_11h09.42.768,arrow_simon_punish,2021.1.2,MacIntel,57.20823799,,,,p,2.455,57,0,57,0,1,,,,,,,,,,,,,,,,,,,,,,,,,,,,
,,,,,,,,,,,,,,,615f2b3f0eafbabe579b889a,2021-10-27_11h09.42.768,arrow_simon_punish,2021.1.2,MacIntel,57.20823799,,,,p,2.69,58,0,58,0,1,,,,,,,,,,,,,,,,,,,,,,,,,,,,
,,,,,,,,,,,,,,,615f2b3f0eafbabe579b889a,2021-10-27_11h09.42.768,arrow_simon_punish,2021.1.2,MacIntel,57.20823799,,,,p,2.705,59,0,59,0,1,,,,,,,,,,,,,,,,,,,,,,,,,,,,
,,,,,,,,,,,left.png,,w,right,615f2b3f0eafbabe579b889a,2021-10-27_11h09.42.768,arrow_simon_punish,2021.1.2,MacIntel,57.20823799,,,,,,,,,,,space,0,69.792,w,1,7.397,1.781286205,1,1,0,0,0,3,1,,,,,,,,,,,,,,
,,,,,,,,,,,right.png,,p,right,615f2b3f0eafbabe579b889a,2021-10-27_11h09.42.768,arrow_simon_punish,2021.1.2,MacIntel,57.20823799,,,,,,,,,,,,,,p,1,1.49,2.132256098,0,1,0,1,1,1,1,,,,,,,,,,,,,,
,,,,,,,,,,,left.png,,w,right,615f2b3f0eafbabe579b889a,2021-10-27_11h09.42.768,arrow_simon_punish,2021.1.2,MacIntel,57.20823799,,,,,,,,,,,,,,w,1,0.924,1.548794104,1,1,0,2,2,3,1,,,,,,,,,,,,,,
,,,,,,,,,,,left.png,,w,left,615f2b3f0eafbabe579b889a,2021-10-27_11h09.42.768,arrow_simon_punish,2021.1.2,MacIntel,57.20823799,,,,,,,,,,,,,,w,1,1.389,1.730449361,1,1,0,3,3,2,1,,,,,,,,,,,,,,
,,,,,,,,,,,left.png,,w,right,615f2b3f0eafbabe579b889a,2021-10-27_11h09.42.768,arrow_simon_punish,2021.1.2,MacIntel,57.20823799,,,,,,,,,,,,,,p,0,1.707,2.257234467,1,1,1,0,4,3,1,,,,,,,,,,,,,,
,,,,,,,,,,,right.png,,p,left,615f2b3f0eafbabe579b889a,2021-10-27_11h09.42.768,arrow_simon_punish,2021.1.2,MacIntel,57.20823799,,,,,,,,,,,,,,p,1,1.21,1.974858147,1,1,1,1,5,0,1,,,,,,,,,,,,,,
,,,,,,,,,,,left.png,,w,right,615f2b3f0eafbabe579b889a,2021-10-27_11h09.42.768,arrow_simon_punish,2021.1.2,MacIntel,57.20823799,,,,,,,,,,,,,,p,0,1.843,1.931187573,1,1,1,2,6,3,1,,,,,,,,,,,,,,
,,,,,,,,,,,left.png,,w,left,615f2b3f0eafbabe579b889a,2021-10-27_11h09.42.768,arrow_simon_punish,2021.1.2,MacIntel,57.20823799,,,,,,,,,,,,,,p,0,1.49,2.1521267,1,1,1,3,7,2,1,,,,,,,,,,,,,,
,,,,,,,,,,,left.png,,w,left,615f2b3f0eafbabe579b889a,2021-10-27_11h09.42.768,arrow_simon_punish,2021.1.2,MacIntel,57.20823799,,,,,,,,,,,,,,w,1,0.941,1.553765697,1,1,2,0,8,2,1,,,,,,,,,,,,,,
,,,,,,,,,,,left.png,,w,left,615f2b3f0eafbabe579b889a,2021-10-27_11h09.42.768,arrow_simon_punish,2021.1.2,MacIntel,57.20823799,,,,,,,,,,,,,,p,0,1.189,1.701056312,1,1,2,1,9,2,1,,,,,,,,,,,,,,
,,,,,,,,,,,right.png,,p,left,615f2b3f0eafbabe579b889a,2021-10-27_11h09.42.768,arrow_simon_punish,2021.1.2,MacIntel,57.20823799,,,,,,,,,,,,,,w,0,1.01,1.708110028,1,1,2,2,10,0,1,,,,,,,,,,,,,,
,,,,,,,,,,,left.png,,w,right,615f2b3f0eafbabe579b889a,2021-10-27_11h09.42.768,arrow_simon_punish,2021.1.2,MacIntel,57.20823799,,,,,,,,,,,,,,p,0,1.807,2.245022773,1,1,2,3,11,3,1,,,,,,,,,,,,,,
,,,,,,,,,,,right.png,,p,right,615f2b3f0eafbabe579b889a,2021-10-27_11h09.42.768,arrow_simon_punish,2021.1.2,MacIntel,57.20823799,,,,,,,,,,,,,,p,1,1.059,1.677733235,1,1,3,0,12,1,1,,,,,,,,,,,,,,
,,,,,,,,,,,left.png,,w,right,615f2b3f0eafbabe579b889a,2021-10-27_11h09.42.768,arrow_simon_punish,2021.1.2,MacIntel,57.20823799,,,,,,,,,,,,,,w,1,1.622,1.713341356,1,1,3,1,13,3,1,,,,,,,,,,,,,,
,,,,,,,,,,,right.png,,p,right,615f2b3f0eafbabe579b889a,2021-10-27_11h09.42.768,arrow_simon_punish,2021.1.2,MacIntel,57.20823799,,,,,,,,,,,,,,p,1,1.523,2.187017325,0,1,3,2,14,1,1,,,,,,,,,,,,,,
,,,,,,,,,,,right.png,,p,right,615f2b3f0eafbabe579b889a,2021-10-27_11h09.42.768,arrow_simon_punish,2021.1.2,MacIntel,57.20823799,,,,,,,,,,,,,,w,0,1.307,2.392801703,1,1,3,3,15,1,1,,,,,,,,,,,,,,
,,,,,,,,,,,right.png,,p,right,615f2b3f0eafbabe579b889a,2021-10-27_11h09.42.768,arrow_simon_punish,2021.1.2,MacIntel,57.20823799,,,,,,,,,,,,,,p,1,2.026,1.971371717,1,1,4,0,16,1,1,,,,,,,,,,,,,,
,,,,,,,,,,,right.png,,p,left,615f2b3f0eafbabe579b889a,2021-10-27_11h09.42.768,arrow_simon_punish,2021.1.2,MacIntel,57.20823799,,,,,,,,,,,,,,w,0,1.856,2.346245374,1,1,4,1,17,0,1,,,,,,,,,,,,,,
,,,,,,,,,,,right.png,,p,left,615f2b3f0eafbabe579b889a,2021-10-27_11h09.42.768,arrow_simon_punish,2021.1.2,MacIntel,57.20823799,,,,,,,,,,,,,,p,1,1.806,2.20879319,1,1,4,2,18,0,1,,,,,,,,,,,,,,
,,,,,,,,,,,right.png,,p,left,615f2b3f0eafbabe579b889a,2021-10-27_11h09.42.768,arrow_simon_punish,2021.1.2,MacIntel,57.20823799,,,,,,,,,,,,,,p,1,1.04,1.708900078,1,1,4,3,19,0,1,,,,,,,,,,,,,,
,,,,,,,,,,,left.png,,w,left,615f2b3f0eafbabe579b889a,2021-10-27_11h09.42.768,arrow_simon_punish,2021.1.2,MacIntel,57.20823799,,,,,,,,,,,,,,w,1,1.041,1.705986209,1,1,5,0,20,2,1,,,,,,,,,,,,,,
,,,,,,,,,,,right.png,,p,right,615f2b3f0eafbabe579b889a,2021-10-27_11h09.42.768,arrow_simon_punish,2021.1.2,MacIntel,57.20823799,,,,,,,,,,,,,,p,1,1.358,1.878414894,1,1,5,1,21,1,1,,,,,,,,,,,,,,
,,,,,,,,,,,left.png,,w,left,615f2b3f0eafbabe579b889a,2021-10-27_11h09.42.768,arrow_simon_punish,2021.1.2,MacIntel,57.20823799,,,,,,,,,,,,,,p,0,1.223,1.876867536,1,1,5,2,22,2,1,,,,,,,,,,,,,,
,,,,,,,,,,,left.png,,w,right,615f2b3f0eafbabe579b889a,2021-10-27_11h09.42.768,arrow_simon_punish,2021.1.2,MacIntel,57.20823799,,,,,,,,,,,,,,p,0,1.174,1.779902198,1,1,5,3,23,3,1,,,,,,,,,,,,,,
,,,,,,,,,,,left.png,,w,right,615f2b3f0eafbabe579b889a,2021-10-27_11h09.42.768,arrow_simon_punish,2021.1.2,MacIntel,57.20823799,,,,,,,,,,,,,,w,1,0.94,2.087243759,1,1,6,0,24,3,1,,,,,,,,,,,,,,
,,,,,,,,,,,left.png,,w,left,615f2b3f0eafbabe579b889a,2021-10-27_11h09.42.768,arrow_simon_punish,2021.1.2,MacIntel,57.20823799,,,,,,,,,,,,,,w,1,1.04,1.520131037,1,1,6,1,25,2,1,,,,,,,,,,,,,,
,,,,,,,,,,,left.png,,w,right,615f2b3f0eafbabe579b889a,2021-10-27_11h09.42.768,arrow_simon_punish,2021.1.2,MacIntel,57.20823799,,,,,,,,,,,,,,p,0,1.59,2.138265856,1,1,6,2,26,3,1,,,,,,,,,,,,,,
,,,,,,,,,,,right.png,,p,left,615f2b3f0eafbabe579b889a,2021-10-27_11h09.42.768,arrow_simon_punish,2021.1.2,MacIntel,57.20823799,,,,,,,,,,,,,,w,0,1.706,2.159924112,1,1,6,3,27,0,1,,,,,,,,,,,,,,
,,,,,,,,,,,left.png,,w,left,615f2b3f0eafbabe579b889a,2021-10-27_11h09.42.768,arrow_simon_punish,2021.1.2,MacIntel,57.20823799,,,,,,,,,,,,,,p,0,1.107,1.697065044,1,1,7,0,28,2,1,,,,,,,,,,,,,,
,,,,,,,,,,,right.png,,p,left,615f2b3f0eafbabe579b889a,2021-10-27_11h09.42.768,arrow_simon_punish,2021.1.2,MacIntel,57.20823799,,,,,,,,,,,,,,w,0,2.27,1.617400834,1,1,7,1,29,0,1,,,,,,,,,,,,,,
,,,,,,,,,,,right.png,,p,right,615f2b3f0eafbabe579b889a,2021-10-27_11h09.42.768,arrow_simon_punish,2021.1.2,MacIntel,57.20823799,,,,,,,,,,,,,,p,1,1.857,1.665359531,1,1,7,2,30,1,1,,,,,,,,,,,,,,
,,,,,,,,,,,right.png,,p,left,615f2b3f0eafbabe579b889a,2021-10-27_11h09.42.768,arrow_simon_punish,2021.1.2,MacIntel,57.20823799,,,,,,,,,,,,,,w,0,1.924,1.724441005,1,1,7,3,31,0,1,,,,,,,,,,,,,,
,,,,,,,,,,,right.png,,p,right,615f2b3f0eafbabe579b889a,2021-10-27_11h09.42.768,arrow_simon_punish,2021.1.2,MacIntel,57.20823799,,,,,,,,,,,,,,p,1,2.259,2.458108626,1,1,8,0,32,1,1,,,,,,,,,,,,,,
,,,,,,,,,,,left.png,,w,right,615f2b3f0eafbabe579b889a,2021-10-27_11h09.42.768,arrow_simon_punish,2021.1.2,MacIntel,57.20823799,,,,,,,,,,,,,,p,0,1.244,2.117272996,1,1,8,1,33,3,1,,,,,,,,,,,,,,
,,,,,,,,,,,left.png,,w,left,615f2b3f0eafbabe579b889a,2021-10-27_11h09.42.768,arrow_simon_punish,2021.1.2,MacIntel,57.20823799,,,,,,,,,,,,,,p,0,1.59,2.426664833,1,1,8,2,34,2,1,,,,,,,,,,,,,,
,,,,,,,,,,,right.png,,p,left,615f2b3f0eafbabe579b889a,2021-10-27_11h09.42.768,arrow_simon_punish,2021.1.2,MacIntel,57.20823799,,,,,,,,,,,,,,p,1,1.227,1.866044767,1,1,8,3,35,0,1,,,,,,,,,,,,,,
,,,,,,,,,,,left.png,,w,left,615f2b3f0eafbabe579b889a,2021-10-27_11h09.42.768,arrow_simon_punish,2021.1.2,MacIntel,57.20823799,,,,,,,,,,,,,,p,0,1.891,2.270192198,1,1,9,0,36,2,1,,,,,,,,,,,,,,
,,,,,,,,,,,left.png,,w,left,615f2b3f0eafbabe579b889a,2021-10-27_11h09.42.768,arrow_simon_punish,2021.1.2,MacIntel,57.20823799,,,,,,,,,,,,,,w,1,1.54,1.648684364,0,1,9,1,37,2,1,,,,,,,,,,,,,,
,,,,,,,,,,,left.png,,w,left,615f2b3f0eafbabe579b889a,2021-10-27_11h09.42.768,arrow_simon_punish,2021.1.2,MacIntel,57.20823799,,,,,,,,,,,,,,w,1,1.489,1.927578952,0,1,9,2,38,2,1,,,,,,,,,,,,,,
,,,,,,,,,,,right.png,,p,right,615f2b3f0eafbabe579b889a,2021-10-27_11h09.42.768,arrow_simon_punish,2021.1.2,MacIntel,57.20823799,,,,,,,,,,,,,,w,0,1.791,2.034888718,1,1,9,3,39,1,1,,,,,,,,,,,,,,
,,,,,,,,,,,right.png,,p,left,615f2b3f0eafbabe579b889a,2021-10-27_11h09.42.768,arrow_simon_punish,2021.1.2,MacIntel,57.20823799,,,,,,,,,,,,,,w,0,1.906,2.120360489,1,1,10,0,40,0,1,,,,,,,,,,,,,,
,,,,,,,,,,,right.png,,p,right,615f2b3f0eafbabe579b889a,2021-10-27_11h09.42.768,arrow_simon_punish,2021.1.2,MacIntel,57.20823799,,,,,,,,,,,,,,w,0,1.094,1.765256033,1,1,10,1,41,1,1,,,,,,,,,,,,,,
,,,,,,,,,,,left.png,,w,right,615f2b3f0eafbabe579b889a,2021-10-27_11h09.42.768,arrow_simon_punish,2021.1.2,MacIntel,57.20823799,,,,,,,,,,,,,,p,0,1.274,2.03149018,1,1,10,2,42,3,1,,,,,,,,,,,,,,
,,,,,,,,,,,left.png,,w,right,615f2b3f0eafbabe579b889a,2021-10-27_11h09.42.768,arrow_simon_punish,2021.1.2,MacIntel,57.20823799,,,,,,,,,,,,,,p,0,1.323,1.851168521,1,1,10,3,43,3,1,,,,,,,,,,,,,,
,,,,,,,,,,,right.png,,p,right,615f2b3f0eafbabe579b889a,2021-10-27_11h09.42.768,arrow_simon_punish,2021.1.2,MacIntel,57.20823799,,,,,,,,,,,,,,p,1,1.555,2.095933731,0,1,11,0,44,1,1,,,,,,,,,,,,,,
,,,,,,,,,,,right.png,,p,right,615f2b3f0eafbabe579b889a,2021-10-27_11h09.42.768,arrow_simon_punish,2021.1.2,MacIntel,57.20823799,,,,,,,,,,,,,,p,1,1.741,1.696103055,1,1,11,1,45,1,1,,,,,,,,,,,,,,
,,,,,,,,,,,right.png,,p,left,615f2b3f0eafbabe579b889a,2021-10-27_11h09.42.768,arrow_simon_punish,2021.1.2,MacIntel,57.20823799,,,,,,,,,,,,,,w,0,2.342,2.422721895,1,1,11,2,46,0,1,,,,,,,,,,,,,,
,,,,,,,,,,,left.png,,w,left,615f2b3f0eafbabe579b889a,2021-10-27_11h09.42.768,arrow_simon_punish,2021.1.2,MacIntel,57.20823799,,,,,,,,,,,,,,p,0,2.089,1.996633473,1,1,11,3,47,2,1,,,,,,,,,,,,,,
,,,,,,,,,,,left.png,,w,left,615f2b3f0eafbabe579b889a,2021-10-27_11h09.42.768,arrow_simon_punish,2021.1.2,MacIntel,57.20823799,,,,,,,,,,,,,,w,1,2.008,2.402481067,1,1,12,0,48,2,1,,,,,,,,,,,,,,
,,,,,,,,,,,right.png,,p,left,615f2b3f0eafbabe579b889a,2021-10-27_11h09.42.768,arrow_simon_punish,2021.1.2,MacIntel,57.20823799,,,,,,,,,,,,,,p,1,2.323,2.476617122,1,1,12,1,49,0,1,,,,,,,,,,,,,,
,,,,,,,,,,,left.png,,w,right,615f2b3f0eafbabe579b889a,2021-10-27_11h09.42.768,arrow_simon_punish,2021.1.2,MacIntel,57.20823799,,,,,,,,,,,,,,w,1,1.944,1.609120016,1,1,12,2,50,3,1,,,,,,,,,,,,,,
,,,,,,,,,,,right.png,,p,right,615f2b3f0eafbabe579b889a,2021-10-27_11h09.42.768,arrow_simon_punish,2021.1.2,MacIntel,57.20823799,,,,,,,,,,,,,,p,1,1.975,1.587300504,1,1,12,3,51,1,1,,,,,,,,,,,,,,
,,,,,,,,,,,left.png,,w,right,615f2b3f0eafbabe579b889a,2021-10-27_11h09.42.768,arrow_simon_punish,2021.1.2,MacIntel,57.20823799,,,,,,,,,,,,,,p,0,0.922,1.781163259,1,1,13,0,52,3,1,,,,,,,,,,,,,,
,,,,,,,,,,,right.png,,p,right,615f2b3f0eafbabe579b889a,2021-10-27_11h09.42.768,arrow_simon_punish,2021.1.2,MacIntel,57.20823799,,,,,,,,,,,,,,p,1,1.077,1.928559041,1,1,13,1,53,1,1,,,,,,,,,,,,,,
,,,,,,,,,,,right.png,,p,left,615f2b3f0eafbabe579b889a,2021-10-27_11h09.42.768,arrow_simon_punish,2021.1.2,MacIntel,57.20823799,,,,,,,,,,,,,,p,1,1.408,2.097883898,0,1,13,2,54,0,1,,,,,,,,,,,,,,
,,,,,,,,,,,right.png,,p,right,615f2b3f0eafbabe579b889a,2021-10-27_11h09.42.768,arrow_simon_punish,2021.1.2,MacIntel,57.20823799,,,,,,,,,,,,,,w,0,1.324,2.065628842,1,1,13,3,55,1,1,,,,,,,,,,,,,,
,,,,,,,,,,,right.png,,p,left,615f2b3f0eafbabe579b889a,2021-10-27_11h09.42.768,arrow_simon_punish,2021.1.2,MacIntel,57.20823799,,,,,,,,,,,,,,p,1,1.774,1.911508768,1,1,14,0,56,0,1,,,,,,,,,,,,,,
,,,,,,,,,,,left.png,,w,right,615f2b3f0eafbabe579b889a,2021-10-27_11h09.42.768,arrow_simon_punish,2021.1.2,MacIntel,57.20823799,,,,,,,,,,,,,,p,0,1.426,2.037227844,1,1,14,1,57,3,1,,,,,,,,,,,,,,
,,,,,,,,,,,right.png,,p,left,615f2b3f0eafbabe579b889a,2021-10-27_11h09.42.768,arrow_simon_punish,2021.1.2,MacIntel,57.20823799,,,,,,,,,,,,,,p,1,2.04,2.201657821,1,1,14,2,58,0,1,,,,,,,,,,,,,,
,,,,,,,,,,,left.png,,w,left,615f2b3f0eafbabe579b889a,2021-10-27_11h09.42.768,arrow_simon_punish,2021.1.2,MacIntel,57.20823799,,,,,,,,,,,,,,w,1,2.305,2.136543325,1,1,14,3,59,2,1,,,,,,,,,,,,,,
,,,,,,,,,,,,,,,615f2b3f0eafbabe579b889a,2021-10-27_11h09.42.768,arrow_simon_punish,2021.1.2,MacIntel,57.20823799,,,,,,,,,,,,,,,,,,,,,,,,,space,14.844,2,0,0,0,0,1,1,,,,,
,,,,,,,,,,,left.png,,w,right,615f2b3f0eafbabe579b889a,2021-10-27_11h09.42.768,arrow_simon_punish,2021.1.2,MacIntel,57.20823799,,,,,,,,,,,,,,w,1,9.928,1.835847313,1,5,0,0,0,3,1,,,,,,,,,,,,,,
,,,,,,,,,,,left.png,,w,right,615f2b3f0eafbabe579b889a,2021-10-27_11h09.42.768,arrow_simon_punish,2021.1.2,MacIntel,57.20823799,,,,,,,,,,,,,,p,0,1.191,2.278355681,1,5,0,1,1,3,1,,,,,,,,,,,,,,
,,,,,,,,,,,right.png,,p,left,615f2b3f0eafbabe579b889a,2021-10-27_11h09.42.768,arrow_simon_punish,2021.1.2,MacIntel,57.20823799,,,,,,,,,,,,,,w,0,1.174,1.75097009,1,5,0,2,2,0,1,,,,,,,,,,,,,,
,,,,,,,,,,,right.png,,p,left,615f2b3f0eafbabe579b889a,2021-10-27_11h09.42.768,arrow_simon_punish,2021.1.2,MacIntel,57.20823799,,,,,,,,,,,,,,w,0,1.755,2.320911338,1,5,0,3,3,0,1,,,,,,,,,,,,,,
,,,,,,,,,,,right.png,,p,right,615f2b3f0eafbabe579b889a,2021-10-27_11h09.42.768,arrow_simon_punish,2021.1.2,MacIntel,57.20823799,,,,,,,,,,,,,,p,1,1.176,1.814093831,1,5,1,0,4,1,1,,,,,,,,,,,,,,
,,,,,,,,,,,right.png,,p,left,615f2b3f0eafbabe579b889a,2021-10-27_11h09.42.768,arrow_simon_punish,2021.1.2,MacIntel,57.20823799,,,,,,,,,,,,,,w,0,1.99,2.042032885,1,5,1,1,5,0,1,,,,,,,,,,,,,,
,,,,,,,,,,,left.png,,w,left,615f2b3f0eafbabe579b889a,2021-10-27_11h09.42.768,arrow_simon_punish,2021.1.2,MacIntel,57.20823799,,,,,,,,,,,,,,p,0,20.305,1.913458999,1,5,1,2,6,2,1,,,,,,,,,,,,,,
,,,,,,,,,,,right.png,,p,left,615f2b3f0eafbabe579b889a,2021-10-27_11h09.42.768,arrow_simon_punish,2021.1.2,MacIntel,57.20823799,,,,,,,,,,,,,,p,1,2.351,1.856628184,1,5,1,3,7,0,1,,,,,,,,,,,,,,
,,,,,,,,,,,left.png,,w,right,615f2b3f0eafbabe579b889a,2021-10-27_11h09.42.768,arrow_simon_punish,2021.1.2,MacIntel,57.20823799,,,,,,,,,,,,,,w,1,1.721,1.977512568,1,5,2,0,8,3,1,,,,,,,,,,,,,,
,,,,,,,,,,,right.png,,p,right,615f2b3f0eafbabe579b889a,2021-10-27_11h09.42.768,arrow_simon_punish,2021.1.2,MacIntel,57.20823799,,,,,,,,,,,,,,p,1,1.693,2.43422046,1,5,2,1,9,1,1,,,,,,,,,,,,,,
,,,,,,,,,,,left.png,,w,right,615f2b3f0eafbabe579b889a,2021-10-27_11h09.42.768,arrow_simon_punish,2021.1.2,MacIntel,57.20823799,,,,,,,,,,,,,,p,0,1.04,1.771900064,1,5,2,2,10,3,1,,,,,,,,,,,,,,
,,,,,,,,,,,left.png,,w,left,615f2b3f0eafbabe579b889a,2021-10-27_11h09.42.768,arrow_simon_punish,2021.1.2,MacIntel,57.20823799,,,,,,,,,,,,,,w,1,1.424,2.120048558,0,5,2,3,11,2,1,,,,,,,,,,,,,,
,,,,,,,,,,,right.png,,p,left,615f2b3f0eafbabe579b889a,2021-10-27_11h09.42.768,arrow_simon_punish,2021.1.2,MacIntel,57.20823799,,,,,,,,,,,,,,p,1,0.807,1.934577789,1,5,3,0,12,0,1,,,,,,,,,,,,,,
,,,,,,,,,,,right.png,,p,left,615f2b3f0eafbabe579b889a,2021-10-27_11h09.42.768,arrow_simon_punish,2021.1.2,MacIntel,57.20823799,,,,,,,,,,,,,,p,1,1.253,2.281299826,1,5,3,1,13,0,1,,,,,,,,,,,,,,
,,,,,,,,,,,right.png,,p,left,615f2b3f0eafbabe579b889a,2021-10-27_11h09.42.768,arrow_simon_punish,2021.1.2,MacIntel,57.20823799,,,,,,,,,,,,,,p,1,1.589,2.283865608,0,5,3,2,14,0,1,,,,,,,,,,,,,,
,,,,,,,,,,,right.png,,p,right,615f2b3f0eafbabe579b889a,2021-10-27_11h09.42.768,arrow_simon_punish,2021.1.2,MacIntel,57.20823799,,,,,,,,,,,,,,p,1,1.941,1.881071888,1,5,3,3,15,1,1,,,,,,,,,,,,,,
,,,,,,,,,,,left.png,,w,left,615f2b3f0eafbabe579b889a,2021-10-27_11h09.42.768,arrow_simon_punish,2021.1.2,MacIntel,57.20823799,,,,,,,,,,,,,,w,1,1.14,1.792901119,1,5,4,0,16,2,1,,,,,,,,,,,,,,
,,,,,,,,,,,left.png,,w,right,615f2b3f0eafbabe579b889a,2021-10-27_11h09.42.768,arrow_simon_punish,2021.1.2,MacIntel,57.20823799,,,,,,,,,,,,,,w,1,1.789,1.56488522,1,5,4,1,17,3,1,,,,,,,,,,,,,,
,,,,,,,,,,,left.png,,w,left,615f2b3f0eafbabe579b889a,2021-10-27_11h09.42.768,arrow_simon_punish,2021.1.2,MacIntel,57.20823799,,,,,,,,,,,,,,w,1,1.69,2.028335983,1,5,4,2,18,2,1,,,,,,,,,,,,,,
,,,,,,,,,,,left.png,,w,left,615f2b3f0eafbabe579b889a,2021-10-27_11h09.42.768,arrow_simon_punish,2021.1.2,MacIntel,57.20823799,,,,,,,,,,,,,,w,1,1.607,2.161328204,1,5,4,3,19,2,1,,,,,,,,,,,,,,
,,,,,,,,,,,right.png,,p,right,615f2b3f0eafbabe579b889a,2021-10-27_11h09.42.768,arrow_simon_punish,2021.1.2,MacIntel,57.20823799,,,,,,,,,,,,,,w,0,1.557,1.842434178,1,5,5,0,20,1,1,,,,,,,,,,,,,,
,,,,,,,,,,,right.png,,p,right,615f2b3f0eafbabe579b889a,2021-10-27_11h09.42.768,arrow_simon_punish,2021.1.2,MacIntel,57.20823799,,,,,,,,,,,,,,p,1,1.424,2.443694587,0,5,5,1,21,1,1,,,,,,,,,,,,,,
,,,,,,,,,,,left.png,,w,right,615f2b3f0eafbabe579b889a,2021-10-27_11h09.42.768,arrow_simon_punish,2021.1.2,MacIntel,57.20823799,,,,,,,,,,,,,,p,0,1.055,2.07562473,1,5,5,2,22,3,1,,,,,,,,,,,,,,
,,,,,,,,,,,left.png,,w,left,615f2b3f0eafbabe579b889a,2021-10-27_11h09.42.768,arrow_simon_punish,2021.1.2,MacIntel,57.20823799,,,,,,,,,,,,,,w,1,1.789,2.081934856,1,5,5,3,23,2,1,,,,,,,,,,,,,,
,,,,,,,,,,,left.png,,w,right,615f2b3f0eafbabe579b889a,2021-10-27_11h09.42.768,arrow_simon_punish,2021.1.2,MacIntel,57.20823799,,,,,,,,,,,,,,w,1,1.66,2.108142096,1,5,6,0,24,3,1,,,,,,,,,,,,,,
,,,,,,,,,,,left.png,,w,left,615f2b3f0eafbabe579b889a,2021-10-27_11h09.42.768,arrow_simon_punish,2021.1.2,MacIntel,57.20823799,,,,,,,,,,,,,,w,1,2.074,1.938164608,1,5,6,1,25,2,1,,,,,,,,,,,,,,
,,,,,,,,,,,right.png,,p,left,615f2b3f0eafbabe579b889a,2021-10-27_11h09.42.768,arrow_simon_punish,2021.1.2,MacIntel,57.20823799,,,,,,,,,,,,,,p,1,1.94,2.359455817,1,5,6,2,26,0,1,,,,,,,,,,,,,,
,,,,,,,,,,,right.png,,p,right,615f2b3f0eafbabe579b889a,2021-10-27_11h09.42.768,arrow_simon_punish,2021.1.2,MacIntel,57.20823799,,,,,,,,,,,,,,p,1,1.874,1.647655075,1,5,6,3,27,1,1,,,,,,,,,,,,,,
,,,,,,,,,,,right.png,,p,right,615f2b3f0eafbabe579b889a,2021-10-27_11h09.42.768,arrow_simon_punish,2021.1.2,MacIntel,57.20823799,,,,,,,,,,,,,,p,1,1.961,1.632969825,1,5,7,0,28,1,1,,,,,,,,,,,,,,
,,,,,,,,,,,right.png,,p,right,615f2b3f0eafbabe579b889a,2021-10-27_11h09.42.768,arrow_simon_punish,2021.1.2,MacIntel,57.20823799,,,,,,,,,,,,,,p,1,1.391,2.303369798,1,5,7,1,29,1,1,,,,,,,,,,,,,,
,,,,,,,,,,,right.png,,p,right,615f2b3f0eafbabe579b889a,2021-10-27_11h09.42.768,arrow_simon_punish,2021.1.2,MacIntel,57.20823799,,,,,,,,,,,,,,p,1,2.506,2.46666277,1,5,7,2,30,1,1,,,,,,,,,,,,,,
,,,,,,,,,,,left.png,,w,right,615f2b3f0eafbabe579b889a,2021-10-27_11h09.42.768,arrow_simon_punish,2021.1.2,MacIntel,57.20823799,,,,,,,,,,,,,,w,1,1.543,1.803130016,0,5,7,3,31,3,1,,,,,,,,,,,,,,
,,,,,,,,,,,right.png,,p,left,615f2b3f0eafbabe579b889a,2021-10-27_11h09.42.768,arrow_simon_punish,2021.1.2,MacIntel,57.20823799,,,,,,,,,,,,,,w,0,1.792,1.700996976,1,5,8,0,32,0,1,,,,,,,,,,,,,,
,,,,,,,,,,,left.png,,w,left,615f2b3f0eafbabe579b889a,2021-10-27_11h09.42.768,arrow_simon_punish,2021.1.2,MacIntel,57.20823799,,,,,,,,,,,,,,p,0,1.906,1.99936856,1,5,8,1,33,2,1,,,,,,,,,,,,,,
,,,,,,,,,,,left.png,,w,left,615f2b3f0eafbabe579b889a,2021-10-27_11h09.42.768,arrow_simon_punish,2021.1.2,MacIntel,57.20823799,,,,,,,,,,,,,,p,0,1.555,2.321698484,1,5,8,2,34,2,1,,,,,,,,,,,,,,
,,,,,,,,,,,left.png,,w,right,615f2b3f0eafbabe579b889a,2021-10-27_11h09.42.768,arrow_simon_punish,2021.1.2,MacIntel,57.20823799,,,,,,,,,,,,,,w,1,1.724,1.842493001,1,5,8,3,35,3,1,,,,,,,,,,,,,,
,,,,,,,,,,,right.png,,p,left,615f2b3f0eafbabe579b889a,2021-10-27_11h09.42.768,arrow_simon_punish,2021.1.2,MacIntel,57.20823799,,,,,,,,,,,,,,p,1,2.057,2.372640126,1,5,9,0,36,0,1,,,,,,,,,,,,,,
,,,,,,,,,,,left.png,,w,right,615f2b3f0eafbabe579b889a,2021-10-27_11h09.42.768,arrow_simon_punish,2021.1.2,MacIntel,57.20823799,,,,,,,,,,,,,,w,1,1.722,2.011754406,1,5,9,1,37,3,1,,,,,,,,,,,,,,
,,,,,,,,,,,right.png,,p,left,615f2b3f0eafbabe579b889a,2021-10-27_11h09.42.768,arrow_simon_punish,2021.1.2,MacIntel,57.20823799,,,,,,,,,,,,,,p,1,2.056,1.642094299,1,5,9,2,38,0,1,,,,,,,,,,,,,,
,,,,,,,,,,,left.png,,w,left,615f2b3f0eafbabe579b889a,2021-10-27_11h09.42.768,arrow_simon_punish,2021.1.2,MacIntel,57.20823799,,,,,,,,,,,,,,w,1,1.572,2.412903772,0,5,9,3,39,2,1,,,,,,,,,,,,,,
,,,,,,,,,,,left.png,,w,right,615f2b3f0eafbabe579b889a,2021-10-27_11h09.42.768,arrow_simon_punish,2021.1.2,MacIntel,57.20823799,,,,,,,,,,,,,,w,1,1.007,2.097462695,1,5,10,0,40,3,1,,,,,,,,,,,,,,
,,,,,,,,,,,left.png,,w,right,615f2b3f0eafbabe579b889a,2021-10-27_11h09.42.768,arrow_simon_punish,2021.1.2,MacIntel,57.20823799,,,,,,,,,,,,,,p,0,2.024,2.479220714,1,5,10,1,41,3,1,,,,,,,,,,,,,,
,,,,,,,,,,,left.png,,w,left,615f2b3f0eafbabe579b889a,2021-10-27_11h09.42.768,arrow_simon_punish,2021.1.2,MacIntel,57.20823799,,,,,,,,,,,,,,w,1,1.591,1.674620959,0,5,10,2,42,2,1,,,,,,,,,,,,,,
,,,,,,,,,,,left.png,,w,right,615f2b3f0eafbabe579b889a,2021-10-27_11h09.42.768,arrow_simon_punish,2021.1.2,MacIntel,57.20823799,,,,,,,,,,,,,,w,1,1.54,1.587578908,0,5,10,3,43,3,1,,,,,,,,,,,,,,
,,,,,,,,,,,left.png,,w,left,615f2b3f0eafbabe579b889a,2021-10-27_11h09.42.768,arrow_simon_punish,2021.1.2,MacIntel,57.20823799,,,,,,,,,,,,,,w,1,1.757,1.980339636,1,5,11,0,44,2,1,,,,,,,,,,,,,,
,,,,,,,,,,,right.png,,p,right,615f2b3f0eafbabe579b889a,2021-10-27_11h09.42.768,arrow_simon_punish,2021.1.2,MacIntel,57.20823799,,,,,,,,,,,,,,p,1,1.493,1.557591511,0,5,11,1,45,1,1,,,,,,,,,,,,,,
,,,,,,,,,,,right.png,,p,left,615f2b3f0eafbabe579b889a,2021-10-27_11h09.42.768,arrow_simon_punish,2021.1.2,MacIntel,57.20823799,,,,,,,,,,,,,,p,1,2.074,2.116103472,1,5,11,2,46,0,1,,,,,,,,,,,,,,
,,,,,,,,,,,right.png,,p,right,615f2b3f0eafbabe579b889a,2021-10-27_11h09.42.768,arrow_simon_punish,2021.1.2,MacIntel,57.20823799,,,,,,,,,,,,,,p,1,1.875,2.06937114,1,5,11,3,47,1,1,,,,,,,,,,,,,,
,,,,,,,,,,,left.png,,w,right,615f2b3f0eafbabe579b889a,2021-10-27_11h09.42.768,arrow_simon_punish,2021.1.2,MacIntel,57.20823799,,,,,,,,,,,,,,w,1,1.425,1.707540768,0,5,12,0,48,3,1,,,,,,,,,,,,,,
,,,,,,,,,,,right.png,,p,left,615f2b3f0eafbabe579b889a,2021-10-27_11h09.42.768,arrow_simon_punish,2021.1.2,MacIntel,57.20823799,,,,,,,,,,,,,,p,1,1.44,1.629823247,0,5,12,1,49,0,1,,,,,,,,,,,,,,
,,,,,,,,,,,left.png,,w,right,615f2b3f0eafbabe579b889a,2021-10-27_11h09.42.768,arrow_simon_punish,2021.1.2,MacIntel,57.20823799,,,,,,,,,,,,,,p,0,1.489,2.109202936,1,5,12,2,50,3,1,,,,,,,,,,,,,,
,,,,,,,,,,,left.png,,w,left,615f2b3f0eafbabe579b889a,2021-10-27_11h09.42.768,arrow_simon_punish,2021.1.2,MacIntel,57.20823799,,,,,,,,,,,,,,w,1,1.474,1.653215244,0,5,12,3,51,2,1,,,,,,,,,,,,,,
,,,,,,,,,,,right.png,,p,left,615f2b3f0eafbabe579b889a,2021-10-27_11h09.42.768,arrow_simon_punish,2021.1.2,MacIntel,57.20823799,,,,,,,,,,,,,,p,1,1.356,1.693749714,1,5,13,0,52,0,1,,,,,,,,,,,,,,
,,,,,,,,,,,right.png,,p,right,615f2b3f0eafbabe579b889a,2021-10-27_11h09.42.768,arrow_simon_punish,2021.1.2,MacIntel,57.20823799,,,,,,,,,,,,,,p,1,1.723,2.336017045,1,5,13,1,53,1,1,,,,,,,,,,,,,,
,,,,,,,,,,,right.png,,p,right,615f2b3f0eafbabe579b889a,2021-10-27_11h09.42.768,arrow_simon_punish,2021.1.2,MacIntel,57.20823799,,,,,,,,,,,,,,p,1,1.371,1.564111451,1,5,13,2,54,1,1,,,,,,,,,,,,,,
,,,,,,,,,,,right.png,,p,right,615f2b3f0eafbabe579b889a,2021-10-27_11h09.42.768,arrow_simon_punish,2021.1.2,MacIntel,57.20823799,,,,,,,,,,,,,,p,1,1.593,2.208445189,0,5,13,3,55,1,1,,,,,,,,,,,,,,
,,,,,,,,,,,left.png,,w,left,615f2b3f0eafbabe579b889a,2021-10-27_11h09.42.768,arrow_simon_punish,2021.1.2,MacIntel,57.20823799,,,,,,,,,,,,,,w,1,1.473,2.141474716,0,5,14,0,56,2,1,,,,,,,,,,,,,,
,,,,,,,,,,,right.png,,p,left,615f2b3f0eafbabe579b889a,2021-10-27_11h09.42.768,arrow_simon_punish,2021.1.2,MacIntel,57.20823799,,,,,,,,,,,,,,w,0,1.289,1.957578263,1,5,14,1,57,0,1,,,,,,,,,,,,,,
,,,,,,,,,,,left.png,,w,left,615f2b3f0eafbabe579b889a,2021-10-27_11h09.42.768,arrow_simon_punish,2021.1.2,MacIntel,57.20823799,,,,,,,,,,,,,,w,1,1.056,1.742933079,1,5,14,2,58,2,1,,,,,,,,,,,,,,
,,,,,,,,,,,right.png,,p,right,615f2b3f0eafbabe579b889a,2021-10-27_11h09.42.768,arrow_simon_punish,2021.1.2,MacIntel,57.20823799,,,,,,,,,,,,,,p,1,1.724,2.394641233,1,5,14,3,59,1,1,,,,,,,,,,,,,,
,,,,,,,,,,,,,,,615f2b3f0eafbabe579b889a,2021-10-27_11h09.42.768,arrow_simon_punish,2021.1.2,MacIntel,57.20823799,,,,,,,,,,,,,,,,,,,,,,,,,space,23.028,3,0,1,1,1,1,5,,,,,
,,,,,,,,,,,left.png,,w,right,615f2b3f0eafbabe579b889a,2021-10-27_11h09.42.768,arrow_simon_punish,2021.1.2,MacIntel,57.20823799,,,,,,,,,,,,,,w,1,2.489,1.784598785,1,1,0,0,0,3,1,,,,,,,,,,,,,,
,,,,,,,,,,,right.png,,p,left,615f2b3f0eafbabe579b889a,2021-10-27_11h09.42.768,arrow_simon_punish,2021.1.2,MacIntel,57.20823799,,,,,,,,,,,,,,p,1,1.841,1.680283934,1,1,0,1,1,0,1,,,,,,,,,,,,,,
,,,,,,,,,,,left.png,,w,left,615f2b3f0eafbabe579b889a,2021-10-27_11h09.42.768,arrow_simon_punish,2021.1.2,MacIntel,57.20823799,,,,,,,,,,,,,,w,1,1.66,2.330228073,1,1,0,2,2,2,1,,,,,,,,,,,,,,
,,,,,,,,,,,right.png,,p,right,615f2b3f0eafbabe579b889a,2021-10-27_11h09.42.768,arrow_simon_punish,2021.1.2,MacIntel,57.20823799,,,,,,,,,,,,,,p,1,1.29,1.918737882,1,1,0,3,3,1,1,,,,,,,,,,,,,,
,,,,,,,,,,,right.png,,p,right,615f2b3f0eafbabe579b889a,2021-10-27_11h09.42.768,arrow_simon_punish,2021.1.2,MacIntel,57.20823799,,,,,,,,,,,,,,p,1,1.438,2.185122974,0,1,1,0,4,1,1,,,,,,,,,,,,,,
,,,,,,,,,,,right.png,,p,left,615f2b3f0eafbabe579b889a,2021-10-27_11h09.42.768,arrow_simon_punish,2021.1.2,MacIntel,57.20823799,,,,,,,,,,,,,,w,0,1.008,1.566452356,1,1,1,1,5,0,1,,,,,,,,,,,,,,
,,,,,,,,,,,right.png,,p,right,615f2b3f0eafbabe579b889a,2021-10-27_11h09.42.768,arrow_simon_punish,2021.1.2,MacIntel,57.20823799,,,,,,,,,,,,,,p,1,1.356,1.604321971,1,1,1,2,6,1,1,,,,,,,,,,,,,,
,,,,,,,,,,,left.png,,w,left,615f2b3f0eafbabe579b889a,2021-10-27_11h09.42.768,arrow_simon_punish,2021.1.2,MacIntel,57.20823799,,,,,,,,,,,,,,w,1,1.657,1.76064681,1,1,1,3,7,2,1,,,,,,,,,,,,,,
,,,,,,,,,,,left.png,,w,right,615f2b3f0eafbabe579b889a,2021-10-27_11h09.42.768,arrow_simon_punish,2021.1.2,MacIntel,57.20823799,,,,,,,,,,,,,,p,0,1.509,2.021529004,1,1,2,0,8,3,1,,,,,,,,,,,,,,
,,,,,,,,,,,right.png,,p,left,615f2b3f0eafbabe579b889a,2021-10-27_11h09.42.768,arrow_simon_punish,2021.1.2,MacIntel,57.20823799,,,,,,,,,,,,,,w,0,1.605,2.381304271,1,1,2,1,9,0,1,,,,,,,,,,,,,,
,,,,,,,,,,,left.png,,w,right,615f2b3f0eafbabe579b889a,2021-10-27_11h09.42.768,arrow_simon_punish,2021.1.2,MacIntel,57.20823799,,,,,,,,,,,,,,p,0,1.908,1.890033821,1,1,2,2,10,3,1,,,,,,,,,,,,,,
,,,,,,,,,,,right.png,,p,left,615f2b3f0eafbabe579b889a,2021-10-27_11h09.42.768,arrow_simon_punish,2021.1.2,MacIntel,57.20823799,,,,,,,,,,,,,,p,1,2.207,2.302171071,1,1,2,3,11,0,1,,,,,,,,,,,,,,
,,,,,,,,,,,right.png,,p,right,615f2b3f0eafbabe579b889a,2021-10-27_11h09.42.768,arrow_simon_punish,2021.1.2,MacIntel,57.20823799,,,,,,,,,,,,,,p,1,2.489,2.48605972,1,1,3,0,12,1,1,,,,,,,,,,,,,,
,,,,,,,,,,,left.png,,w,left,615f2b3f0eafbabe579b889a,2021-10-27_11h09.42.768,arrow_simon_punish,2021.1.2,MacIntel,57.20823799,,,,,,,,,,,,,,w,1,1.69,1.862403867,1,1,3,1,13,2,1,,,,,,,,,,,,,,
,,,,,,,,,,,left.png,,w,left,615f2b3f0eafbabe579b889a,2021-10-27_11h09.42.768,arrow_simon_punish,2021.1.2,MacIntel,57.20823799,,,,,,,,,,,,,,w,1,1.488,2.151083435,0,1,3,2,14,2,1,,,,,,,,,,,,,,
,,,,,,,,,,,left.png,,w,right,615f2b3f0eafbabe579b889a,2021-10-27_11h09.42.768,arrow_simon_punish,2021.1.2,MacIntel,57.20823799,,,,,,,,,,,,,,w,1,1.573,1.773278565,0,1,3,3,15,3,1,,,,,,,,,,,,,,
,,,,,,,,,,,left.png,,w,right,615f2b3f0eafbabe579b889a,2021-10-27_11h09.42.768,arrow_simon_punish,2021.1.2,MacIntel,57.20823799,,,,,,,,,,,,,,w,1,1.289,1.776383618,1,1,4,0,16,3,1,,,,,,,,,,,,,,
,,,,,,,,,,,right.png,,p,right,615f2b3f0eafbabe579b889a,2021-10-27_11h09.42.768,arrow_simon_punish,2021.1.2,MacIntel,57.20823799,,,,,,,,,,,,,,w,0,1.422,1.895757025,1,1,4,1,17,1,1,,,,,,,,,,,,,,
,,,,,,,,,,,left.png,,w,right,615f2b3f0eafbabe579b889a,2021-10-27_11h09.42.768,arrow_simon_punish,2021.1.2,MacIntel,57.20823799,,,,,,,,,,,,,,w,1,1.907,2.123003399,1,1,4,2,18,3,1,,,,,,,,,,,,,,
,,,,,,,,,,,right.png,,p,left,615f2b3f0eafbabe579b889a,2021-10-27_11h09.42.768,arrow_simon_punish,2021.1.2,MacIntel,57.20823799,,,,,,,,,,,,,,w,0,1.491,2.244250599,1,1,4,3,19,0,1,,,,,,,,,,,,,,
,,,,,,,,,,,left.png,,w,right,615f2b3f0eafbabe579b889a,2021-10-27_11h09.42.768,arrow_simon_punish,2021.1.2,MacIntel,57.20823799,,,,,,,,,,,,,,w,1,1.89,2.450590611,1,1,5,0,20,3,1,,,,,,,,,,,,,,
,,,,,,,,,,,left.png,,w,right,615f2b3f0eafbabe579b889a,2021-10-27_11h09.42.768,arrow_simon_punish,2021.1.2,MacIntel,57.20823799,,,,,,,,,,,,,,w,1,1.524,1.995503393,0,1,5,1,21,3,1,,,,,,,,,,,,,,
,,,,,,,,,,,right.png,,p,left,615f2b3f0eafbabe579b889a,2021-10-27_11h09.42.768,arrow_simon_punish,2021.1.2,MacIntel,57.20823799,,,,,,,,,,,,,,p,1,1.674,2.048214422,1,1,5,2,22,0,1,,,,,,,,,,,,,,
,,,,,,,,,,,left.png,,w,left,615f2b3f0eafbabe579b889a,2021-10-27_11h09.42.768,arrow_simon_punish,2021.1.2,MacIntel,57.20823799,,,,,,,,,,,,,,w,1,1.31,1.681616653,1,1,5,3,23,2,1,,,,,,,,,,,,,,
,,,,,,,,,,,left.png,,w,right,615f2b3f0eafbabe579b889a,2021-10-27_11h09.42.768,arrow_simon_punish,2021.1.2,MacIntel,57.20823799,,,,,,,,,,,,,,p,0,2.124,2.489247597,1,1,6,0,24,3,1,,,,,,,,,,,,,,
,,,,,,,,,,,right.png,,p,right,615f2b3f0eafbabe579b889a,2021-10-27_11h09.42.768,arrow_simon_punish,2021.1.2,MacIntel,57.20823799,,,,,,,,,,,,,,p,1,1.107,1.79882346,1,1,6,1,25,1,1,,,,,,,,,,,,,,
,,,,,,,,,,,right.png,,p,left,615f2b3f0eafbabe579b889a,2021-10-27_11h09.42.768,arrow_simon_punish,2021.1.2,MacIntel,57.20823799,,,,,,,,,,,,,,p,1,1.175,2.485498828,1,1,6,2,26,0,1,,,,,,,,,,,,,,
,,,,,,,,,,,left.png,,w,right,615f2b3f0eafbabe579b889a,2021-10-27_11h09.42.768,arrow_simon_punish,2021.1.2,MacIntel,57.20823799,,,,,,,,,,,,,,w,1,1.771,2.069085822,1,1,6,3,27,3,1,,,,,,,,,,,,,,
,,,,,,,,,,,left.png,,w,right,615f2b3f0eafbabe579b889a,2021-10-27_11h09.42.768,arrow_simon_punish,2021.1.2,MacIntel,57.20823799,,,,,,,,,,,,,,w,1,1.455,1.806410359,0,1,7,0,28,3,1,,,,,,,,,,,,,,
,,,,,,,,,,,right.png,,p,left,615f2b3f0eafbabe579b889a,2021-10-27_11h09.42.768,arrow_simon_punish,2021.1.2,MacIntel,57.20823799,,,,,,,,,,,,,,w,0,1.473,2.447385396,1,1,7,1,29,0,1,,,,,,,,,,,,,,
,,,,,,,,,,,right.png,,p,right,615f2b3f0eafbabe579b889a,2021-10-27_11h09.42.768,arrow_simon_punish,2021.1.2,MacIntel,57.20823799,,,,,,,,,,,,,,p,1,1.107,1.702215169,1,1,7,2,30,1,1,,,,,,,,,,,,,,
,,,,,,,,,,,right.png,,p,left,615f2b3f0eafbabe579b889a,2021-10-27_11h09.42.768,arrow_simon_punish,2021.1.2,MacIntel,57.20823799,,,,,,,,,,,,,,w,0,1.589,2.111155409,1,1,7,3,31,0,1,,,,,,,,,,,,,,
,,,,,,,,,,,right.png,,p,left,615f2b3f0eafbabe579b889a,2021-10-27_11h09.42.768,arrow_simon_punish,2021.1.2,MacIntel,57.20823799,,,,,,,,,,,,,,p,1,1.675,2.031999985,1,1,8,0,32,0,1,,,,,,,,,,,,,,
,,,,,,,,,,,left.png,,w,left,615f2b3f0eafbabe579b889a,2021-10-27_11h09.42.768,arrow_simon_punish,2021.1.2,MacIntel,57.20823799,,,,,,,,,,,,,,w,1,2.09,2.474361424,1,1,8,1,33,2,1,,,,,,,,,,,,,,
,,,,,,,,,,,right.png,,p,left,615f2b3f0eafbabe579b889a,2021-10-27_11h09.42.768,arrow_simon_punish,2021.1.2,MacIntel,57.20823799,,,,,,,,,,,,,,w,0,1.454,2.088169423,1,1,8,2,34,0,1,,,,,,,,,,,,,,
,,,,,,,,,,,right.png,,p,left,615f2b3f0eafbabe579b889a,2021-10-27_11h09.42.768,arrow_simon_punish,2021.1.2,MacIntel,57.20823799,,,,,,,,,,,,,,p,1,1.557,1.706963596,0,1,8,3,35,0,1,,,,,,,,,,,,,,
,,,,,,,,,,,left.png,,w,left,615f2b3f0eafbabe579b889a,2021-10-27_11h09.42.768,arrow_simon_punish,2021.1.2,MacIntel,57.20823799,,,,,,,,,,,,,,w,1,1.856,2.244516739,1,1,9,0,36,2,1,,,,,,,,,,,,,,
,,,,,,,,,,,right.png,,p,left,615f2b3f0eafbabe579b889a,2021-10-27_11h09.42.768,arrow_simon_punish,2021.1.2,MacIntel,57.20823799,,,,,,,,,,,,,,p,1,1.438,1.740620777,0,1,9,1,37,0,1,,,,,,,,,,,,,,
,,,,,,,,,,,left.png,,w,right,615f2b3f0eafbabe579b889a,2021-10-27_11h09.42.768,arrow_simon_punish,2021.1.2,MacIntel,57.20823799,,,,,,,,,,,,,,w,1,1.21,1.757235077,1,1,9,2,38,3,1,,,,,,,,,,,,,,
,,,,,,,,,,,right.png,,p,right,615f2b3f0eafbabe579b889a,2021-10-27_11h09.42.768,arrow_simon_punish,2021.1.2,MacIntel,57.20823799,,,,,,,,,,,,,,p,1,1.072,1.57781155,1,1,9,3,39,1,1,,,,,,,,,,,,,,
,,,,,,,,,,,left.png,,w,left,615f2b3f0eafbabe579b889a,2021-10-27_11h09.42.768,arrow_simon_punish,2021.1.2,MacIntel,57.20823799,,,,,,,,,,,,,,w,1,1.341,1.724443042,1,1,10,0,40,2,1,,,,,,,,,,,,,,
,,,,,,,,,,,left.png,,w,left,615f2b3f0eafbabe579b889a,2021-10-27_11h09.42.768,arrow_simon_punish,2021.1.2,MacIntel,57.20823799,,,,,,,,,,,,,,w,1,1.372,1.965103135,1,1,10,1,41,2,1,,,,,,,,,,,,,,
,,,,,,,,,,,right.png,,p,right,615f2b3f0eafbabe579b889a,2021-10-27_11h09.42.768,arrow_simon_punish,2021.1.2,MacIntel,57.20823799,,,,,,,,,,,,,,w,0,1.338,2.103032685,1,1,10,2,42,1,1,,,,,,,,,,,,,,
,,,,,,,,,,,right.png,,p,right,615f2b3f0eafbabe579b889a,2021-10-27_11h09.42.768,arrow_simon_punish,2021.1.2,MacIntel,57.20823799,,,,,,,,,,,,,,p,1,1.176,1.864513591,1,1,10,3,43,1,1,,,,,,,,,,,,,,
,,,,,,,,,,,left.png,,w,right,615f2b3f0eafbabe579b889a,2021-10-27_11h09.42.768,arrow_simon_punish,2021.1.2,MacIntel,57.20823799,,,,,,,,,,,,,,p,0,1.256,2.176031271,1,1,11,0,44,3,1,,,,,,,,,,,,,,
,,,,,,,,,,,left.png,,w,left,615f2b3f0eafbabe579b889a,2021-10-27_11h09.42.768,arrow_simon_punish,2021.1.2,MacIntel,57.20823799,,,,,,,,,,,,,,w,1,1.524,2.052945485,0,1,11,1,45,2,1,,,,,,,,,,,,,,
,,,,,,,,,,,right.png,,p,left,615f2b3f0eafbabe579b889a,2021-10-27_11h09.42.768,arrow_simon_punish,2021.1.2,MacIntel,57.20823799,,,,,,,,,,,,,,w,0,1.192,1.812248768,1,1,11,2,46,0,1,,,,,,,,,,,,,,
,,,,,,,,,,,right.png,,p,right,615f2b3f0eafbabe579b889a,2021-10-27_11h09.42.768,arrow_simon_punish,2021.1.2,MacIntel,57.20823799,,,,,,,,,,,,,,p,1,1.057,1.521280703,1,1,11,3,47,1,1,,,,,,,,,,,,,,
,,,,,,,,,,,left.png,,w,left,615f2b3f0eafbabe579b889a,2021-10-27_11h09.42.768,arrow_simon_punish,2021.1.2,MacIntel,57.20823799,,,,,,,,,,,,,,w,1,1.245,1.619050067,1,1,12,0,48,2,1,,,,,,,,,,,,,,
,,,,,,,,,,,left.png,,w,right,615f2b3f0eafbabe579b889a,2021-10-27_11h09.42.768,arrow_simon_punish,2021.1.2,MacIntel,57.20823799,,,,,,,,,,,,,,p,0,1.59,2.079655727,1,1,12,1,49,3,1,,,,,,,,,,,,,,
,,,,,,,,,,,right.png,,p,right,615f2b3f0eafbabe579b889a,2021-10-27_11h09.42.768,arrow_simon_punish,2021.1.2,MacIntel,57.20823799,,,,,,,,,,,,,,w,0,1.656,2.047809226,1,1,12,2,50,1,1,,,,,,,,,,,,,,
,,,,,,,,,,,right.png,,p,right,615f2b3f0eafbabe579b889a,2021-10-27_11h09.42.768,arrow_simon_punish,2021.1.2,MacIntel,57.20823799,,,,,,,,,,,,,,p,1,1.156,1.717598127,1,1,12,3,51,1,1,,,,,,,,,,,,,,
,,,,,,,,,,,left.png,,w,left,615f2b3f0eafbabe579b889a,2021-10-27_11h09.42.768,arrow_simon_punish,2021.1.2,MacIntel,57.20823799,,,,,,,,,,,,,,p,0,1.475,2.473511101,1,1,13,0,52,2,1,,,,,,,,,,,,,,
,,,,,,,,,,,left.png,,w,left,615f2b3f0eafbabe579b889a,2021-10-27_11h09.42.768,arrow_simon_punish,2021.1.2,MacIntel,57.20823799,,,,,,,,,,,,,,w,1,1.46,2.128639867,0,1,13,1,53,2,1,,,,,,,,,,,,,,
,,,,,,,,,,,left.png,,w,right,615f2b3f0eafbabe579b889a,2021-10-27_11h09.42.768,arrow_simon_punish,2021.1.2,MacIntel,57.20823799,,,,,,,,,,,,,,w,1,1.875,2.276749367,1,1,13,2,54,3,1,,,,,,,,,,,,,,
,,,,,,,,,,,right.png,,p,left,615f2b3f0eafbabe579b889a,2021-10-27_11h09.42.768,arrow_simon_punish,2021.1.2,MacIntel,57.20823799,,,,,,,,,,,,,,p,1,2.035,2.385497933,1,1,13,3,55,0,1,,,,,,,,,,,,,,
,,,,,,,,,,,left.png,,w,left,615f2b3f0eafbabe579b889a,2021-10-27_11h09.42.768,arrow_simon_punish,2021.1.2,MacIntel,57.20823799,,,,,,,,,,,,,,p,0,1.607,1.55181318,1,1,14,0,56,2,1,,,,,,,,,,,,,,
,,,,,,,,,,,right.png,,p,right,615f2b3f0eafbabe579b889a,2021-10-27_11h09.42.768,arrow_simon_punish,2021.1.2,MacIntel,57.20823799,,,,,,,,,,,,,,p,1,1.84,2.272556671,1,1,14,1,57,1,1,,,,,,,,,,,,,,
,,,,,,,,,,,left.png,,w,left,615f2b3f0eafbabe579b889a,2021-10-27_11h09.42.768,arrow_simon_punish,2021.1.2,MacIntel,57.20823799,,,,,,,,,,,,,,w,1,1.341,1.828856723,1,1,14,2,58,2,1,,,,,,,,,,,,,,
,,,,,,,,,,,right.png,,p,right,615f2b3f0eafbabe579b889a,2021-10-27_11h09.42.768,arrow_simon_punish,2021.1.2,MacIntel,57.20823799,,,,,,,,,,,,,,p,1,1.858,2.420926262,1,1,14,3,59,1,1,,,,,,,,,,,,,,
,,,,,,,,,,,,,,,615f2b3f0eafbabe579b889a,2021-10-27_11h09.42.768,arrow_simon_punish,2021.1.2,MacIntel,57.20823799,,,,,,,,,,,,,,,,,,,,,,,,,space,25.577,4,1,0,2,0,1,1,,,,,
,,,,,,,,,,,left.png,,w,right,615f2b3f0eafbabe579b889a,2021-10-27_11h09.42.768,arrow_simon_punish,2021.1.2,MacIntel,57.20823799,,,,,,,,,,,,,,w,1,6.742,1.646702955,1,5,0,0,0,3,1,,,,,,,,,,,,,,
,,,,,,,,,,,left.png,,w,left,615f2b3f0eafbabe579b889a,2021-10-27_11h09.42.768,arrow_simon_punish,2021.1.2,MacIntel,57.20823799,,,,,,,,,,,,,,w,1,1.321,1.614286108,1,5,0,1,1,2,1,,,,,,,,,,,,,,
,,,,,,,,,,,right.png,,p,left,615f2b3f0eafbabe579b889a,2021-10-27_11h09.42.768,arrow_simon_punish,2021.1.2,MacIntel,57.20823799,,,,,,,,,,,,,,w,0,1.222,2.454639128,1,5,0,2,2,0,1,,,,,,,,,,,,,,
,,,,,,,,,,,right.png,,p,left,615f2b3f0eafbabe579b889a,2021-10-27_11h09.42.768,arrow_simon_punish,2021.1.2,MacIntel,57.20823799,,,,,,,,,,,,,,p,1,1.257,1.597324376,1,5,0,3,3,0,1,,,,,,,,,,,,,,
,,,,,,,,,,,left.png,,w,right,615f2b3f0eafbabe579b889a,2021-10-27_11h09.42.768,arrow_simon_punish,2021.1.2,MacIntel,57.20823799,,,,,,,,,,,,,,p,0,1.608,2.247166391,1,5,1,0,4,3,1,,,,,,,,,,,,,,
,,,,,,,,,,,right.png,,p,left,615f2b3f0eafbabe579b889a,2021-10-27_11h09.42.768,arrow_simon_punish,2021.1.2,MacIntel,57.20823799,,,,,,,,,,,,,,w,0,1.273,1.838178251,1,5,1,1,5,0,1,,,,,,,,,,,,,,
,,,,,,,,,,,left.png,,w,left,615f2b3f0eafbabe579b889a,2021-10-27_11h09.42.768,arrow_simon_punish,2021.1.2,MacIntel,57.20823799,,,,,,,,,,,,,,w,1,1.472,1.685176053,0,5,1,2,6,2,1,,,,,,,,,,,,,,
,,,,,,,,,,,right.png,,p,right,615f2b3f0eafbabe579b889a,2021-10-27_11h09.42.768,arrow_simon_punish,2021.1.2,MacIntel,57.20823799,,,,,,,,,,,,,,p,1,1.839,2.498807867,1,5,1,3,7,1,1,,,,,,,,,,,,,,
,,,,,,,,,,,left.png,,w,right,615f2b3f0eafbabe579b889a,2021-10-27_11h09.42.768,arrow_simon_punish,2021.1.2,MacIntel,57.20823799,,,,,,,,,,,,,,p,0,1.506,2.102241226,1,5,2,0,8,3,1,,,,,,,,,,,,,,
,,,,,,,,,,,left.png,,w,left,615f2b3f0eafbabe579b889a,2021-10-27_11h09.42.768,arrow_simon_punish,2021.1.2,MacIntel,57.20823799,,,,,,,,,,,,,,w,1,1.609,2.331512142,1,5,2,1,9,2,1,,,,,,,,,,,,,,
,,,,,,,,,,,left.png,,w,left,615f2b3f0eafbabe579b889a,2021-10-27_11h09.42.768,arrow_simon_punish,2021.1.2,MacIntel,57.20823799,,,,,,,,,,,,,,w,1,1.422,1.646376461,0,5,2,2,10,2,1,,,,,,,,,,,,,,
,,,,,,,,,,,right.png,,p,left,615f2b3f0eafbabe579b889a,2021-10-27_11h09.42.768,arrow_simon_punish,2021.1.2,MacIntel,57.20823799,,,,,,,,,,,,,,p,1,1.306,1.569747705,1,5,2,3,11,0,1,,,,,,,,,,,,,,
,,,,,,,,,,,left.png,,w,right,615f2b3f0eafbabe579b889a,2021-10-27_11h09.42.768,arrow_simon_punish,2021.1.2,MacIntel,57.20823799,,,,,,,,,,,,,,w,1,1.443,1.539357801,0,5,3,0,12,3,1,,,,,,,,,,,,,,
,,,,,,,,,,,right.png,,p,left,615f2b3f0eafbabe579b889a,2021-10-27_11h09.42.768,arrow_simon_punish,2021.1.2,MacIntel,57.20823799,,,,,,,,,,,,,,p,1,1.825,2.079106961,1,5,3,1,13,0,1,,,,,,,,,,,,,,
,,,,,,,,,,,right.png,,p,left,615f2b3f0eafbabe579b889a,2021-10-27_11h09.42.768,arrow_simon_punish,2021.1.2,MacIntel,57.20823799,,,,,,,,,,,,,,p,1,1.976,2.475282541,1,5,3,2,14,0,1,,,,,,,,,,,,,,
,,,,,,,,,,,left.png,,w,right,615f2b3f0eafbabe579b889a,2021-10-27_11h09.42.768,arrow_simon_punish,2021.1.2,MacIntel,57.20823799,,,,,,,,,,,,,,p,0,1.672,2.389290349,1,5,3,3,15,3,1,,,,,,,,,,,,,,
,,,,,,,,,,,right.png,,p,right,615f2b3f0eafbabe579b889a,2021-10-27_11h09.42.768,arrow_simon_punish,2021.1.2,MacIntel,57.20823799,,,,,,,,,,,,,,p,1,2.074,2.202103322,1,5,4,0,16,1,1,,,,,,,,,,,,,,
,,,,,,,,,,,left.png,,w,right,615f2b3f0eafbabe579b889a,2021-10-27_11h09.42.768,arrow_simon_punish,2021.1.2,MacIntel,57.20823799,,,,,,,,,,,,,,w,1,1.741,2.232855749,1,5,4,1,17,3,1,,,,,,,,,,,,,,
,,,,,,,,,,,left.png,,w,right,615f2b3f0eafbabe579b889a,2021-10-27_11h09.42.768,arrow_simon_punish,2021.1.2,MacIntel,57.20823799,,,,,,,,,,,,,,w,1,1.548,2.04071175,0,5,4,2,18,3,1,,,,,,,,,,,,,,
,,,,,,,,,,,left.png,,w,right,615f2b3f0eafbabe579b889a,2021-10-27_11h09.42.768,arrow_simon_punish,2021.1.2,MacIntel,57.20823799,,,,,,,,,,,,,,w,1,1.456,1.810321655,0,5,4,3,19,3,1,,,,,,,,,,,,,,
,,,,,,,,,,,left.png,,w,left,615f2b3f0eafbabe579b889a,2021-10-27_11h09.42.768,arrow_simon_punish,2021.1.2,MacIntel,57.20823799,,,,,,,,,,,,,,w,1,1.508,2.094329181,0,5,5,0,20,2,1,,,,,,,,,,,,,,
,,,,,,,,,,,right.png,,p,right,615f2b3f0eafbabe579b889a,2021-10-27_11h09.42.768,arrow_simon_punish,2021.1.2,MacIntel,57.20823799,,,,,,,,,,,,,,p,1,1.426,1.850839479,0,5,5,1,21,1,1,,,,,,,,,,,,,,
,,,,,,,,,,,left.png,,w,left,615f2b3f0eafbabe579b889a,2021-10-27_11h09.42.768,arrow_simon_punish,2021.1.2,MacIntel,57.20823799,,,,,,,,,,,,,,w,1,1.473,2.152260385,0,5,5,2,22,2,1,,,,,,,,,,,,,,
,,,,,,,,,,,left.png,,w,right,615f2b3f0eafbabe579b889a,2021-10-27_11h09.42.768,arrow_simon_punish,2021.1.2,MacIntel,57.20823799,,,,,,,,,,,,,,w,1,1.323,1.734013319,1,5,5,3,23,3,1,,,,,,,,,,,,,,
,,,,,,,,,,,left.png,,w,left,615f2b3f0eafbabe579b889a,2021-10-27_11h09.42.768,arrow_simon_punish,2021.1.2,MacIntel,57.20823799,,,,,,,,,,,,,,w,1,1.507,2.451079404,0,5,6,0,24,2,1,,,,,,,,,,,,,,
,,,,,,,,,,,right.png,,p,left,615f2b3f0eafbabe579b889a,2021-10-27_11h09.42.768,arrow_simon_punish,2021.1.2,MacIntel,57.20823799,,,,,,,,,,,,,,w,0,1.306,2.285421508,1,5,6,1,25,0,1,,,,,,,,,,,,,,
,,,,,,,,,,,left.png,,w,right,615f2b3f0eafbabe579b889a,2021-10-27_11h09.42.768,arrow_simon_punish,2021.1.2,MacIntel,57.20823799,,,,,,,,,,,,,,w,1,1.571,2.114196783,0,5,6,2,26,3,1,,,,,,,,,,,,,,
,,,,,,,,,,,left.png,,w,left,615f2b3f0eafbabe579b889a,2021-10-27_11h09.42.768,arrow_simon_punish,2021.1.2,MacIntel,57.20823799,,,,,,,,,,,,,,p,0,1.289,1.96496287,1,5,6,3,27,2,1,,,,,,,,,,,,,,
,,,,,,,,,,,right.png,,p,right,615f2b3f0eafbabe579b889a,2021-10-27_11h09.42.768,arrow_simon_punish,2021.1.2,MacIntel,57.20823799,,,,,,,,,,,,,,w,0,1.473,2.009917181,1,5,7,0,28,1,1,,,,,,,,,,,,,,
,,,,,,,,,,,right.png,,p,right,615f2b3f0eafbabe579b889a,2021-10-27_11h09.42.768,arrow_simon_punish,2021.1.2,MacIntel,57.20823799,,,,,,,,,,,,,,p,1,1.772,2.467793852,1,5,7,1,29,1,1,,,,,,,,,,,,,,
,,,,,,,,,,,right.png,,p,right,615f2b3f0eafbabe579b889a,2021-10-27_11h09.42.768,arrow_simon_punish,2021.1.2,MacIntel,57.20823799,,,,,,,,,,,,,,p,1,1.557,2.381251624,0,5,7,2,30,1,1,,,,,,,,,,,,,,
,,,,,,,,,,,right.png,,p,right,615f2b3f0eafbabe579b889a,2021-10-27_11h09.42.768,arrow_simon_punish,2021.1.2,MacIntel,57.20823799,,,,,,,,,,,,,,p,1,1.589,2.350485084,0,5,7,3,31,1,1,,,,,,,,,,,,,,
,,,,,,,,,,,left.png,,w,left,615f2b3f0eafbabe579b889a,2021-10-27_11h09.42.768,arrow_simon_punish,2021.1.2,MacIntel,57.20823799,,,,,,,,,,,,,,p,0,1.524,2.474218057,1,5,8,0,32,2,1,,,,,,,,,,,,,,
,,,,,,,,,,,right.png,,p,right,615f2b3f0eafbabe579b889a,2021-10-27_11h09.42.768,arrow_simon_punish,2021.1.2,MacIntel,57.20823799,,,,,,,,,,,,,,w,0,1.028,2.120204886,1,5,8,1,33,1,1,,,,,,,,,,,,,,
,,,,,,,,,,,left.png,,w,right,615f2b3f0eafbabe579b889a,2021-10-27_11h09.42.768,arrow_simon_punish,2021.1.2,MacIntel,57.20823799,,,,,,,,,,,,,,w,1,1.49,2.44101932,0,5,8,2,34,3,1,,,,,,,,,,,,,,
,,,,,,,,,,,right.png,,p,right,615f2b3f0eafbabe579b889a,2021-10-27_11h09.42.768,arrow_simon_punish,2021.1.2,MacIntel,57.20823799,,,,,,,,,,,,,,w,0,1.676,1.921787473,1,5,8,3,35,1,1,,,,,,,,,,,,,,
,,,,,,,,,,,left.png,,w,left,615f2b3f0eafbabe579b889a,2021-10-27_11h09.42.768,arrow_simon_punish,2021.1.2,MacIntel,57.20823799,,,,,,,,,,,,,,w,1,1.173,1.622245016,1,5,9,0,36,2,1,,,,,,,,,,,,,,
,,,,,,,,,,,right.png,,p,right,615f2b3f0eafbabe579b889a,2021-10-27_11h09.42.768,arrow_simon_punish,2021.1.2,MacIntel,57.20823799,,,,,,,,,,,,,,p,1,1.493,1.655693281,0,5,9,1,37,1,1,,,,,,,,,,,,,,
,,,,,,,,,,,right.png,,p,left,615f2b3f0eafbabe579b889a,2021-10-27_11h09.42.768,arrow_simon_punish,2021.1.2,MacIntel,57.20823799,,,,,,,,,,,,,,w,0,1.224,1.816814106,1,5,9,2,38,0,1,,,,,,,,,,,,,,
,,,,,,,,,,,right.png,,p,left,615f2b3f0eafbabe579b889a,2021-10-27_11h09.42.768,arrow_simon_punish,2021.1.2,MacIntel,57.20823799,,,,,,,,,,,,,,p,1,1.489,1.782063576,0,5,9,3,39,0,1,,,,,,,,,,,,,,
,,,,,,,,,,,right.png,,p,left,615f2b3f0eafbabe579b889a,2021-10-27_11h09.42.768,arrow_simon_punish,2021.1.2,MacIntel,57.20823799,,,,,,,,,,,,,,p,1,1.61,2.118356082,1,5,10,0,40,0,1,,,,,,,,,,,,,,
,,,,,,,,,,,right.png,,p,right,615f2b3f0eafbabe579b889a,2021-10-27_11h09.42.768,arrow_simon_punish,2021.1.2,MacIntel,57.20823799,,,,,,,,,,,,,,p,1,1.505,2.010642552,0,5,10,1,41,1,1,,,,,,,,,,,,,,
,,,,,,,,,,,right.png,,p,left,615f2b3f0eafbabe579b889a,2021-10-27_11h09.42.768,arrow_simon_punish,2021.1.2,MacIntel,57.20823799,,,,,,,,,,,,,,p,1,1.624,2.020224956,1,5,10,2,42,0,1,,,,,,,,,,,,,,
,,,,,,,,,,,left.png,,w,left,615f2b3f0eafbabe579b889a,2021-10-27_11h09.42.768,arrow_simon_punish,2021.1.2,MacIntel,57.20823799,,,,,,,,,,,,,,w,1,1.524,1.505795129,0,5,10,3,43,2,1,,,,,,,,,,,,,,
,,,,,,,,,,,left.png,,w,left,615f2b3f0eafbabe579b889a,2021-10-27_11h09.42.768,arrow_simon_punish,2021.1.2,MacIntel,57.20823799,,,,,,,,,,,,,,w,1,1.138,1.554120385,1,5,11,0,44,2,1,,,,,,,,,,,,,,
,,,,,,,,,,,right.png,,p,left,615f2b3f0eafbabe579b889a,2021-10-27_11h09.42.768,arrow_simon_punish,2021.1.2,MacIntel,57.20823799,,,,,,,,,,,,,,p,1,1.391,1.651282219,1,5,11,1,45,0,1,,,,,,,,,,,,,,
,,,,,,,,,,,right.png,,p,left,615f2b3f0eafbabe579b889a,2021-10-27_11h09.42.768,arrow_simon_punish,2021.1.2,MacIntel,57.20823799,,,,,,,,,,,,,,p,1,1.558,2.006524101,0,5,11,2,46,0,1,,,,,,,,,,,,,,
,,,,,,,,,,,left.png,,w,left,615f2b3f0eafbabe579b889a,2021-10-27_11h09.42.768,arrow_simon_punish,2021.1.2,MacIntel,57.20823799,,,,,,,,,,,,,,w,1,1.523,2.08291288,0,5,11,3,47,2,1,,,,,,,,,,,,,,
,,,,,,,,,,,right.png,,p,left,615f2b3f0eafbabe579b889a,2021-10-27_11h09.42.768,arrow_simon_punish,2021.1.2,MacIntel,57.20823799,,,,,,,,,,,,,,p,1,1.773,2.089156316,1,5,12,0,48,0,1,,,,,,,,,,,,,,
,,,,,,,,,,,left.png,,w,left,615f2b3f0eafbabe579b889a,2021-10-27_11h09.42.768,arrow_simon_punish,2021.1.2,MacIntel,57.20823799,,,,,,,,,,,,,,w,1,1.373,1.907550593,1,5,12,1,49,2,1,,,,,,,,,,,,,,
,,,,,,,,,,,left.png,,w,right,615f2b3f0eafbabe579b889a,2021-10-27_11h09.42.768,arrow_simon_punish,2021.1.2,MacIntel,57.20823799,,,,,,,,,,,,,,w,1,1.056,1.819512975,1,5,12,2,50,3,1,,,,,,,,,,,,,,
,,,,,,,,,,,left.png,,w,right,615f2b3f0eafbabe579b889a,2021-10-27_11h09.42.768,arrow_simon_punish,2021.1.2,MacIntel,57.20823799,,,,,,,,,,,,,,w,1,1.274,1.622199718,1,5,12,3,51,3,1,,,,,,,,,,,,,,
,,,,,,,,,,,right.png,,p,right,615f2b3f0eafbabe579b889a,2021-10-27_11h09.42.768,arrow_simon_punish,2021.1.2,MacIntel,57.20823799,,,,,,,,,,,,,,p,1,1.59,1.572143153,0,5,13,0,52,1,1,,,,,,,,,,,,,,
,,,,,,,,,,,right.png,,p,right,615f2b3f0eafbabe579b889a,2021-10-27_11h09.42.768,arrow_simon_punish,2021.1.2,MacIntel,57.20823799,,,,,,,,,,,,,,w,0,1.439,2.269762646,1,5,13,1,53,1,1,,,,,,,,,,,,,,
,,,,,,,,,,,left.png,,w,left,615f2b3f0eafbabe579b889a,2021-10-27_11h09.42.768,arrow_simon_punish,2021.1.2,MacIntel,57.20823799,,,,,,,,,,,,,,w,1,1.389,1.997723146,1,5,13,2,54,2,1,,,,,,,,,,,,,,
,,,,,,,,,,,left.png,,w,right,615f2b3f0eafbabe579b889a,2021-10-27_11h09.42.768,arrow_simon_punish,2021.1.2,MacIntel,57.20823799,,,,,,,,,,,,,,w,1,1.024,1.51463288,1,5,13,3,55,3,1,,,,,,,,,,,,,,
,,,,,,,,,,,right.png,,p,right,615f2b3f0eafbabe579b889a,2021-10-27_11h09.42.768,arrow_simon_punish,2021.1.2,MacIntel,57.20823799,,,,,,,,,,,,,,p,1,1.525,1.934649656,0,5,14,0,56,1,1,,,,,,,,,,,,,,
,,,,,,,,,,,right.png,,p,right,615f2b3f0eafbabe579b889a,2021-10-27_11h09.42.768,arrow_simon_punish,2021.1.2,MacIntel,57.20823799,,,,,,,,,,,,,,p,1,1.527,1.906767467,0,5,14,1,57,1,1,,,,,,,,,,,,,,
,,,,,,,,,,,left.png,,w,right,615f2b3f0eafbabe579b889a,2021-10-27_11h09.42.768,arrow_simon_punish,2021.1.2,MacIntel,57.20823799,,,,,,,,,,,,,,w,1,1.406,1.923295845,0,5,14,2,58,3,1,,,,,,,,,,,,,,
,,,,,,,,,,,right.png,,p,left,615f2b3f0eafbabe579b889a,2021-10-27_11h09.42.768,arrow_simon_punish,2021.1.2,MacIntel,57.20823799,,,,,,,,,,,,,,p,1,1.191,1.544511422,1,5,14,3,59,0,1,,,,,,,,,,,,,,
,,,,,,,,,,,,,,,615f2b3f0eafbabe579b889a,2021-10-27_11h09.42.768,arrow_simon_punish,2021.1.2,MacIntel,57.20823799,,,,,,,,,,,,,,,,,,,,,,,,,space,10.542,5,1,1,3,1,1,5,,,,,
,,,,,,,,,,,right.png,,p,left,615f2b3f0eafbabe579b889a,2021-10-27_11h09.42.768,arrow_simon_punish,2021.1.2,MacIntel,57.20823799,,,,,,,,,,,,,,p,1,2.389,2.211467306,1,1,0,0,0,0,1,,,,,,,,,,,,,,
,,,,,,,,,,,left.png,,w,left,615f2b3f0eafbabe579b889a,2021-10-27_11h09.42.768,arrow_simon_punish,2021.1.2,MacIntel,57.20823799,,,,,,,,,,,,,,w,1,1.556,2.122002853,0,1,0,1,1,2,1,,,,,,,,,,,,,,
,,,,,,,,,,,right.png,,p,left,615f2b3f0eafbabe579b889a,2021-10-27_11h09.42.768,arrow_simon_punish,2021.1.2,MacIntel,57.20823799,,,,,,,,,,,,,,w,0,1.989,2.164384591,1,1,0,2,2,0,1,,,,,,,,,,,,,,
,,,,,,,,,,,left.png,,w,left,615f2b3f0eafbabe579b889a,2021-10-27_11h09.42.768,arrow_simon_punish,2021.1.2,MacIntel,57.20823799,,,,,,,,,,,,,,p,0,2.006,1.630295828,1,1,0,3,3,2,1,,,,,,,,,,,,,,
,,,,,,,,,,,left.png,,w,right,615f2b3f0eafbabe579b889a,2021-10-27_11h09.42.768,arrow_simon_punish,2021.1.2,MacIntel,57.20823799,,,,,,,,,,,,,,w,1,1.376,1.66363459,1,1,1,0,4,3,1,,,,,,,,,,,,,,
,,,,,,,,,,,right.png,,p,left,615f2b3f0eafbabe579b889a,2021-10-27_11h09.42.768,arrow_simon_punish,2021.1.2,MacIntel,57.20823799,,,,,,,,,,,,,,p,1,1.593,1.869177675,0,1,1,1,5,0,1,,,,,,,,,,,,,,
,,,,,,,,,,,right.png,,p,right,615f2b3f0eafbabe579b889a,2021-10-27_11h09.42.768,arrow_simon_punish,2021.1.2,MacIntel,57.20823799,,,,,,,,,,,,,,p,1,1.353,1.521659907,1,1,1,2,6,1,1,,,,,,,,,,,,,,
,,,,,,,,,,,right.png,,p,right,615f2b3f0eafbabe579b889a,2021-10-27_11h09.42.768,arrow_simon_punish,2021.1.2,MacIntel,57.20823799,,,,,,,,,,,,,,p,1,1.223,1.769582277,1,1,1,3,7,1,1,,,,,,,,,,,,,,
,,,,,,,,,,,right.png,,p,left,615f2b3f0eafbabe579b889a,2021-10-27_11h09.42.768,arrow_simon_punish,2021.1.2,MacIntel,57.20823799,,,,,,,,,,,,,,p,1,1.188,1.621809066,1,1,2,0,8,0,1,,,,,,,,,,,,,,
,,,,,,,,,,,left.png,,w,right,615f2b3f0eafbabe579b889a,2021-10-27_11h09.42.768,arrow_simon_punish,2021.1.2,MacIntel,57.20823799,,,,,,,,,,,,,,p,0,1.79,2.446181571,1,1,2,1,9,3,1,,,,,,,,,,,,,,
,,,,,,,,,,,right.png,,p,right,615f2b3f0eafbabe579b889a,2021-10-27_11h09.42.768,arrow_simon_punish,2021.1.2,MacIntel,57.20823799,,,,,,,,,,,,,,w,0,1.923,2.427295142,1,1,2,2,10,1,1,,,,,,,,,,,,,,
,,,,,,,,,,,left.png,,w,left,615f2b3f0eafbabe579b889a,2021-10-27_11h09.42.768,arrow_simon_punish,2021.1.2,MacIntel,57.20823799,,,,,,,,,,,,,,w,1,1.856,1.957432942,1,1,2,3,11,2,1,,,,,,,,,,,,,,
,,,,,,,,,,,left.png,,w,left,615f2b3f0eafbabe579b889a,2021-10-27_11h09.42.768,arrow_simon_punish,2021.1.2,MacIntel,57.20823799,,,,,,,,,,,,,,w,1,1.422,2.021721962,0,1,3,0,12,2,1,,,,,,,,,,,,,,
,,,,,,,,,,,left.png,,w,left,615f2b3f0eafbabe579b889a,2021-10-27_11h09.42.768,arrow_simon_punish,2021.1.2,MacIntel,57.20823799,,,,,,,,,,,,,,w,1,1.456,2.073838952,0,1,3,1,13,2,1,,,,,,,,,,,,,,
,,,,,,,,,,,left.png,,w,right,615f2b3f0eafbabe579b889a,2021-10-27_11h09.42.768,arrow_simon_punish,2021.1.2,MacIntel,57.20823799,,,,,,,,,,,,,,w,1,1.906,2.380692378,1,1,3,2,14,3,1,,,,,,,,,,,,,,
,,,,,,,,,,,right.png,,p,left,615f2b3f0eafbabe579b889a,2021-10-27_11h09.42.768,arrow_simon_punish,2021.1.2,MacIntel,57.20823799,,,,,,,,,,,,,,w,0,1.993,2.407434897,1,1,3,3,15,0,1,,,,,,,,,,,,,,
,,,,,,,,,,,right.png,,p,left,615f2b3f0eafbabe579b889a,2021-10-27_11h09.42.768,arrow_simon_punish,2021.1.2,MacIntel,57.20823799,,,,,,,,,,,,,,p,1,1.641,2.23093908,1,1,4,0,16,0,1,,,,,,,,,,,,,,
,,,,,,,,,,,left.png,,w,right,615f2b3f0eafbabe579b889a,2021-10-27_11h09.42.768,arrow_simon_punish,2021.1.2,MacIntel,57.20823799,,,,,,,,,,,,,,p,0,1.523,1.699308748,1,1,4,1,17,3,1,,,,,,,,,,,,,,
,,,,,,,,,,,right.png,,p,right,615f2b3f0eafbabe579b889a,2021-10-27_11h09.42.768,arrow_simon_punish,2021.1.2,MacIntel,57.20823799,,,,,,,,,,,,,,p,1,1.456,1.562179845,0,1,4,2,18,1,1,,,,,,,,,,,,,,
,,,,,,,,,,,left.png,,w,left,615f2b3f0eafbabe579b889a,2021-10-27_11h09.42.768,arrow_simon_punish,2021.1.2,MacIntel,57.20823799,,,,,,,,,,,,,,w,1,1.025,1.551437852,1,1,4,3,19,2,1,,,,,,,,,,,,,,
,,,,,,,,,,,left.png,,w,left,615f2b3f0eafbabe579b889a,2021-10-27_11h09.42.768,arrow_simon_punish,2021.1.2,MacIntel,57.20823799,,,,,,,,,,,,,,w,1,1.327,1.73707736,1,1,5,0,20,2,1,,,,,,,,,,,,,,
,,,,,,,,,,,right.png,,p,right,615f2b3f0eafbabe579b889a,2021-10-27_11h09.42.768,arrow_simon_punish,2021.1.2,MacIntel,57.20823799,,,,,,,,,,,,,,p,1,1.956,2.367732248,1,1,5,1,21,1,1,,,,,,,,,,,,,,
,,,,,,,,,,,right.png,,p,left,615f2b3f0eafbabe579b889a,2021-10-27_11h09.42.768,arrow_simon_punish,2021.1.2,MacIntel,57.20823799,,,,,,,,,,,,,,w,0,1.896,2.453033364,1,1,5,2,22,0,1,,,,,,,,,,,,,,
,,,,,,,,,,,left.png,,w,right,615f2b3f0eafbabe579b889a,2021-10-27_11h09.42.768,arrow_simon_punish,2021.1.2,MacIntel,57.20823799,,,,,,,,,,,,,,w,1,1.355,1.619785874,1,1,5,3,23,3,1,,,,,,,,,,,,,,
,,,,,,,,,,,left.png,,w,left,615f2b3f0eafbabe579b889a,2021-10-27_11h09.42.768,arrow_simon_punish,2021.1.2,MacIntel,57.20823799,,,,,,,,,,,,,,w,1,2.023,2.468333526,1,1,6,0,24,2,1,,,,,,,,,,,,,,
,,,,,,,,,,,left.png,,w,right,615f2b3f0eafbabe579b889a,2021-10-27_11h09.42.768,arrow_simon_punish,2021.1.2,MacIntel,57.20823799,,,,,,,,,,,,,,w,1,1.439,1.980301188,0,1,6,1,25,3,1,,,,,,,,,,,,,,
,,,,,,,,,,,right.png,,p,right,615f2b3f0eafbabe579b889a,2021-10-27_11h09.42.768,arrow_simon_punish,2021.1.2,MacIntel,57.20823799,,,,,,,,,,,,,,p,1,1.524,1.953881648,0,1,6,2,26,1,1,,,,,,,,,,,,,,
,,,,,,,,,,,left.png,,w,right,615f2b3f0eafbabe579b889a,2021-10-27_11h09.42.768,arrow_simon_punish,2021.1.2,MacIntel,57.20823799,,,,,,,,,,,,,,w,1,1.806,2.343797187,1,1,6,3,27,3,1,,,,,,,,,,,,,,
,,,,,,,,,,,right.png,,p,left,615f2b3f0eafbabe579b889a,2021-10-27_11h09.42.768,arrow_simon_punish,2021.1.2,MacIntel,57.20823799,,,,,,,,,,,,,,p,1,1.894,2.172558369,1,1,7,0,28,0,1,,,,,,,,,,,,,,
,,,,,,,,,,,right.png,,p,right,615f2b3f0eafbabe579b889a,2021-10-27_11h09.42.768,arrow_simon_punish,2021.1.2,MacIntel,57.20823799,,,,,,,,,,,,,,p,1,2.124,2.489778079,1,1,7,1,29,1,1,,,,,,,,,,,,,,
,,,,,,,,,,,left.png,,w,left,615f2b3f0eafbabe579b889a,2021-10-27_11h09.42.768,arrow_simon_punish,2021.1.2,MacIntel,57.20823799,,,,,,,,,,,,,,w,1,1.292,1.708011008,1,1,7,2,30,2,1,,,,,,,,,,,,,,
,,,,,,,,,,,right.png,,p,left,615f2b3f0eafbabe579b889a,2021-10-27_11h09.42.768,arrow_simon_punish,2021.1.2,MacIntel,57.20823799,,,,,,,,,,,,,,p,1,1.455,1.69267515,0,1,7,3,31,0,1,,,,,,,,,,,,,,
,,,,,,,,,,,right.png,,p,right,615f2b3f0eafbabe579b889a,2021-10-27_11h09.42.768,arrow_simon_punish,2021.1.2,MacIntel,57.20823799,,,,,,,,,,,,,,w,0,1.907,2.424463688,1,1,8,0,32,1,1,,,,,,,,,,,,,,
,,,,,,,,,,,left.png,,w,right,615f2b3f0eafbabe579b889a,2021-10-27_11h09.42.768,arrow_simon_punish,2021.1.2,MacIntel,57.20823799,,,,,,,,,,,,,,w,1,1.626,2.143658863,1,1,8,1,33,3,1,,,,,,,,,,,,,,
,,,,,,,,,,,left.png,,w,right,615f2b3f0eafbabe579b889a,2021-10-27_11h09.42.768,arrow_simon_punish,2021.1.2,MacIntel,57.20823799,,,,,,,,,,,,,,w,1,1.406,1.763390462,0,1,8,2,34,3,1,,,,,,,,,,,,,,
,,,,,,,,,,,right.png,,p,right,615f2b3f0eafbabe579b889a,2021-10-27_11h09.42.768,arrow_simon_punish,2021.1.2,MacIntel,57.20823799,,,,,,,,,,,,,,p,1,1.678,2.176274831,1,1,8,3,35,1,1,,,,,,,,,,,,,,
,,,,,,,,,,,left.png,,w,left,615f2b3f0eafbabe579b889a,2021-10-27_11h09.42.768,arrow_simon_punish,2021.1.2,MacIntel,57.20823799,,,,,,,,,,,,,,w,1,1.457,2.080619721,0,1,9,0,36,2,1,,,,,,,,,,,,,,
,,,,,,,,,,,right.png,,p,right,615f2b3f0eafbabe579b889a,2021-10-27_11h09.42.768,arrow_simon_punish,2021.1.2,MacIntel,57.20823799,,,,,,,,,,,,,,w,0,1.89,2.41710408,1,1,9,1,37,1,1,,,,,,,,,,,,,,
,,,,,,,,,,,right.png,,p,left,615f2b3f0eafbabe579b889a,2021-10-27_11h09.42.768,arrow_simon_punish,2021.1.2,MacIntel,57.20823799,,,,,,,,,,,,,,p,1,1.726,1.719233179,1,1,9,2,38,0,1,,,,,,,,,,,,,,
,,,,,,,,,,,right.png,,p,right,615f2b3f0eafbabe579b889a,2021-10-27_11h09.42.768,arrow_simon_punish,2021.1.2,MacIntel,57.20823799,,,,,,,,,,,,,,p,1,1.722,1.930061609,1,1,9,3,39,1,1,,,,,,,,,,,,,,
,,,,,,,,,,,right.png,,p,left,615f2b3f0eafbabe579b889a,2021-10-27_11h09.42.768,arrow_simon_punish,2021.1.2,MacIntel,57.20823799,,,,,,,,,,,,,,p,1,1.691,1.572209721,1,1,10,0,40,0,1,,,,,,,,,,,,,,
,,,,,,,,,,,right.png,,p,left,615f2b3f0eafbabe579b889a,2021-10-27_11h09.42.768,arrow_simon_punish,2021.1.2,MacIntel,57.20823799,,,,,,,,,,,,,,p,1,1.507,1.858955893,0,1,10,1,41,0,1,,,,,,,,,,,,,,
,,,,,,,,,,,right.png,,p,right,615f2b3f0eafbabe579b889a,2021-10-27_11h09.42.768,arrow_simon_punish,2021.1.2,MacIntel,57.20823799,,,,,,,,,,,,,,p,1,1.858,2.326060603,1,1,10,2,42,1,1,,,,,,,,,,,,,,
,,,,,,,,,,,left.png,,w,left,615f2b3f0eafbabe579b889a,2021-10-27_11h09.42.768,arrow_simon_punish,2021.1.2,MacIntel,57.20823799,,,,,,,,,,,,,,p,0,1.341,2.157822043,1,1,10,3,43,2,1,,,,,,,,,,,,,,
,,,,,,,,,,,left.png,,w,left,615f2b3f0eafbabe579b889a,2021-10-27_11h09.42.768,arrow_simon_punish,2021.1.2,MacIntel,57.20823799,,,,,,,,,,,,,,w,1,1.639,2.486294628,1,1,11,0,44,2,1,,,,,,,,,,,,,,
,,,,,,,,,,,left.png,,w,left,615f2b3f0eafbabe579b889a,2021-10-27_11h09.42.768,arrow_simon_punish,2021.1.2,MacIntel,57.20823799,,,,,,,,,,,,,,w,1,1.524,1.934388633,0,1,11,1,45,2,1,,,,,,,,,,,,,,
,,,,,,,,,,,left.png,,w,right,615f2b3f0eafbabe579b889a,2021-10-27_11h09.42.768,arrow_simon_punish,2021.1.2,MacIntel,57.20823799,,,,,,,,,,,,,,w,1,1.706,2.202757896,1,1,11,2,46,3,1,,,,,,,,,,,,,,
,,,,,,,,,,,right.png,,p,right,615f2b3f0eafbabe579b889a,2021-10-27_11h09.42.768,arrow_simon_punish,2021.1.2,MacIntel,57.20823799,,,,,,,,,,,,,,w,0,1.994,2.418249044,1,1,11,3,47,1,1,,,,,,,,,,,,,,
,,,,,,,,,,,right.png,,p,left,615f2b3f0eafbabe579b889a,2021-10-27_11h09.42.768,arrow_simon_punish,2021.1.2,MacIntel,57.20823799,,,,,,,,,,,,,,p,1,1.259,1.707817107,1,1,12,0,48,0,1,,,,,,,,,,,,,,
,,,,,,,,,,,left.png,,w,left,615f2b3f0eafbabe579b889a,2021-10-27_11h09.42.768,arrow_simon_punish,2021.1.2,MacIntel,57.20823799,,,,,,,,,,,,,,w,1,1.473,1.503734752,0,1,12,1,49,2,1,,,,,,,,,,,,,,
,,,,,,,,,,,left.png,,w,right,615f2b3f0eafbabe579b889a,2021-10-27_11h09.42.768,arrow_simon_punish,2021.1.2,MacIntel,57.20823799,,,,,,,,,,,,,,w,1,1.557,2.038966458,0,1,12,2,50,3,1,,,,,,,,,,,,,,
,,,,,,,,,,,right.png,,p,right,615f2b3f0eafbabe579b889a,2021-10-27_11h09.42.768,arrow_simon_punish,2021.1.2,MacIntel,57.20823799,,,,,,,,,,,,,,p,1,2.157,2.400071738,1,1,12,3,51,1,1,,,,,,,,,,,,,,
,,,,,,,,,,,right.png,,p,left,615f2b3f0eafbabe579b889a,2021-10-27_11h09.42.768,arrow_simon_punish,2021.1.2,MacIntel,57.20823799,,,,,,,,,,,,,,w,0,1.726,1.887912301,1,1,13,0,52,0,1,,,,,,,,,,,,,,
,,,,,,,,,,,right.png,,p,right,615f2b3f0eafbabe579b889a,2021-10-27_11h09.42.768,arrow_simon_punish,2021.1.2,MacIntel,57.20823799,,,,,,,,,,,,,,p,1,1.907,2.400904037,1,1,13,1,53,1,1,,,,,,,,,,,,,,
,,,,,,,,,,,left.png,,w,right,615f2b3f0eafbabe579b889a,2021-10-27_11h09.42.768,arrow_simon_punish,2021.1.2,MacIntel,57.20823799,,,,,,,,,,,,,,w,1,2.19,2.240394162,1,1,13,2,54,3,1,,,,,,,,,,,,,,
,,,,,,,,,,,right.png,,p,left,615f2b3f0eafbabe579b889a,2021-10-27_11h09.42.768,arrow_simon_punish,2021.1.2,MacIntel,57.20823799,,,,,,,,,,,,,,w,0,1.426,1.86573389,1,1,13,3,55,0,1,,,,,,,,,,,,,,
,,,,,,,,,,,left.png,,w,right,615f2b3f0eafbabe579b889a,2021-10-27_11h09.42.768,arrow_simon_punish,2021.1.2,MacIntel,57.20823799,,,,,,,,,,,,,,p,0,1.773,1.964368124,1,1,14,0,56,3,1,,,,,,,,,,,,,,
,,,,,,,,,,,left.png,,w,right,615f2b3f0eafbabe579b889a,2021-10-27_11h09.42.768,arrow_simon_punish,2021.1.2,MacIntel,57.20823799,,,,,,,,,,,,,,w,1,1.092,1.509456512,1,1,14,1,57,3,1,,,,,,,,,,,,,,
,,,,,,,,,,,left.png,,w,left,615f2b3f0eafbabe579b889a,2021-10-27_11h09.42.768,arrow_simon_punish,2021.1.2,MacIntel,57.20823799,,,,,,,,,,,,,,w,1,1.556,1.97407088,0,1,14,2,58,2,1,,,,,,,,,,,,,,
,,,,,,,,,,,left.png,,w,right,615f2b3f0eafbabe579b889a,2021-10-27_11h09.42.768,arrow_simon_punish,2021.1.2,MacIntel,57.20823799,,,,,,,,,,,,,,w,1,1.823,2.340387336,1,1,14,3,59,3,1,,,,,,,,,,,,,,
,,,,,,,,,,,,,,,615f2b3f0eafbabe579b889a,2021-10-27_11h09.42.768,arrow_simon_punish,2021.1.2,MacIntel,57.20823799,,,,,,,,,,,,,,,,,,,,,,,,,space,13.194,6,2,0,4,0,1,1,,,,,
,,,,,,,,,,,right.png,,p,left,615f2b3f0eafbabe579b889a,2021-10-27_11h09.42.768,arrow_simon_punish,2021.1.2,MacIntel,57.20823799,,,,,,,,,,,,,,p,1,2.224,2.252695532,1,5,0,0,0,0,1,,,,,,,,,,,,,,
,,,,,,,,,,,left.png,,w,right,615f2b3f0eafbabe579b889a,2021-10-27_11h09.42.768,arrow_simon_punish,2021.1.2,MacIntel,57.20823799,,,,,,,,,,,,,,w,1,1.261,1.767366785,1,5,0,1,1,3,1,,,,,,,,,,,,,,
,,,,,,,,,,,left.png,,w,left,615f2b3f0eafbabe579b889a,2021-10-27_11h09.42.768,arrow_simon_punish,2021.1.2,MacIntel,57.20823799,,,,,,,,,,,,,,w,1,1.339,1.832717462,1,5,0,2,2,2,1,,,,,,,,,,,,,,
,,,,,,,,,,,left.png,,w,left,615f2b3f0eafbabe579b889a,2021-10-27_11h09.42.768,arrow_simon_punish,2021.1.2,MacIntel,57.20823799,,,,,,,,,,,,,,w,1,1.255,1.605186718,1,5,0,3,3,2,1,,,,,,,,,,,,,,
,,,,,,,,,,,right.png,,p,left,615f2b3f0eafbabe579b889a,2021-10-27_11h09.42.768,arrow_simon_punish,2021.1.2,MacIntel,57.20823799,,,,,,,,,,,,,,p,1,1.691,1.937180902,1,5,1,0,4,0,1,,,,,,,,,,,,,,
,,,,,,,,,,,left.png,,w,right,615f2b3f0eafbabe579b889a,2021-10-27_11h09.42.768,arrow_simon_punish,2021.1.2,MacIntel,57.20823799,,,,,,,,,,,,,,w,1,1.31,1.695902217,1,5,1,1,5,3,1,,,,,,,,,,,,,,
,,,,,,,,,,,right.png,,p,left,615f2b3f0eafbabe579b889a,2021-10-27_11h09.42.768,arrow_simon_punish,2021.1.2,MacIntel,57.20823799,,,,,,,,,,,,,,p,1,1.69,2.016122963,1,5,1,2,6,0,1,,,,,,,,,,,,,,
,,,,,,,,,,,right.png,,p,right,615f2b3f0eafbabe579b889a,2021-10-27_11h09.42.768,arrow_simon_punish,2021.1.2,MacIntel,57.20823799,,,,,,,,,,,,,,p,1,1.539,2.437616348,0,5,1,3,7,1,1,,,,,,,,,,,,,,
,,,,,,,,,,,left.png,,w,left,615f2b3f0eafbabe579b889a,2021-10-27_11h09.42.768,arrow_simon_punish,2021.1.2,MacIntel,57.20823799,,,,,,,,,,,,,,w,1,1.492,2.199934951,0,5,2,0,8,2,1,,,,,,,,,,,,,,
,,,,,,,,,,,left.png,,w,left,615f2b3f0eafbabe579b889a,2021-10-27_11h09.42.768,arrow_simon_punish,2021.1.2,MacIntel,57.20823799,,,,,,,,,,,,,,w,1,1.557,2.180218393,0,5,2,1,9,2,1,,,,,,,,,,,,,,
,,,,,,,,,,,left.png,,w,left,615f2b3f0eafbabe579b889a,2021-10-27_11h09.42.768,arrow_simon_punish,2021.1.2,MacIntel,57.20823799,,,,,,,,,,,,,,w,1,1.477,2.133630033,0,5,2,2,10,2,1,,,,,,,,,,,,,,
,,,,,,,,,,,right.png,,p,left,615f2b3f0eafbabe579b889a,2021-10-27_11h09.42.768,arrow_simon_punish,2021.1.2,MacIntel,57.20823799,,,,,,,,,,,,,,p,1,1.438,1.648030775,0,5,2,3,11,0,1,,,,,,,,,,,,,,
,,,,,,,,,,,right.png,,p,left,615f2b3f0eafbabe579b889a,2021-10-27_11h09.42.768,arrow_simon_punish,2021.1.2,MacIntel,57.20823799,,,,,,,,,,,,,,w,0,1.373,1.903266367,1,5,3,0,12,0,1,,,,,,,,,,,,,,
,,,,,,,,,,,left.png,,w,right,615f2b3f0eafbabe579b889a,2021-10-27_11h09.42.768,arrow_simon_punish,2021.1.2,MacIntel,57.20823799,,,,,,,,,,,,,,w,1,1.525,2.026867286,0,5,3,1,13,3,1,,,,,,,,,,,,,,
,,,,,,,,,,,right.png,,p,right,615f2b3f0eafbabe579b889a,2021-10-27_11h09.42.768,arrow_simon_punish,2021.1.2,MacIntel,57.20823799,,,,,,,,,,,,,,p,1,1.439,1.690506187,0,5,3,2,14,1,1,,,,,,,,,,,,,,
,,,,,,,,,,,right.png,,p,left,615f2b3f0eafbabe579b889a,2021-10-27_11h09.42.768,arrow_simon_punish,2021.1.2,MacIntel,57.20823799,,,,,,,,,,,,,,p,1,1.174,1.522452892,1,5,3,3,15,0,1,,,,,,,,,,,,,,
,,,,,,,,,,,left.png,,w,right,615f2b3f0eafbabe579b889a,2021-10-27_11h09.42.768,arrow_simon_punish,2021.1.2,MacIntel,57.20823799,,,,,,,,,,,,,,w,1,1.39,1.741453241,1,5,4,0,16,3,1,,,,,,,,,,,,,,
,,,,,,,,,,,left.png,,w,right,615f2b3f0eafbabe579b889a,2021-10-27_11h09.42.768,arrow_simon_punish,2021.1.2,MacIntel,57.20823799,,,,,,,,,,,,,,w,1,1.372,1.851998433,1,5,4,1,17,3,1,,,,,,,,,,,,,,
,,,,,,,,,,,right.png,,p,right,615f2b3f0eafbabe579b889a,2021-10-27_11h09.42.768,arrow_simon_punish,2021.1.2,MacIntel,57.20823799,,,,,,,,,,,,,,p,1,2.157,2.290168155,1,5,4,2,18,1,1,,,,,,,,,,,,,,
,,,,,,,,,,,left.png,,w,left,615f2b3f0eafbabe579b889a,2021-10-27_11h09.42.768,arrow_simon_punish,2021.1.2,MacIntel,57.20823799,,,,,,,,,,,,,,w,1,1.692,2.359915238,1,5,4,3,19,2,1,,,,,,,,,,,,,,
,,,,,,,,,,,right.png,,p,left,615f2b3f0eafbabe579b889a,2021-10-27_11h09.42.768,arrow_simon_punish,2021.1.2,MacIntel,57.20823799,,,,,,,,,,,,,,w,0,1.456,2.373720078,1,5,5,0,20,0,1,,,,,,,,,,,,,,
,,,,,,,,,,,left.png,,w,right,615f2b3f0eafbabe579b889a,2021-10-27_11h09.42.768,arrow_simon_punish,2021.1.2,MacIntel,57.20823799,,,,,,,,,,,,,,p,0,1.442,2.045449319,1,5,5,1,21,3,1,,,,,,,,,,,,,,
,,,,,,,,,,,right.png,,p,left,615f2b3f0eafbabe579b889a,2021-10-27_11h09.42.768,arrow_simon_punish,2021.1.2,MacIntel,57.20823799,,,,,,,,,,,,,,w,0,1.905,2.469047248,1,5,5,2,22,0,1,,,,,,,,,,,,,,
,,,,,,,,,,,right.png,,p,right,615f2b3f0eafbabe579b889a,2021-10-27_11h09.42.768,arrow_simon_punish,2021.1.2,MacIntel,57.20823799,,,,,,,,,,,,,,p,1,1.977,2.47469134,1,5,5,3,23,1,1,,,,,,,,,,,,,,
,,,,,,,,,,,left.png,,w,left,615f2b3f0eafbabe579b889a,2021-10-27_11h09.42.768,arrow_simon_punish,2021.1.2,MacIntel,57.20823799,,,,,,,,,,,,,,p,0,2.174,1.580159167,1,5,6,0,24,2,1,,,,,,,,,,,,,,
,,,,,,,,,,,right.png,,p,right,615f2b3f0eafbabe579b889a,2021-10-27_11h09.42.768,arrow_simon_punish,2021.1.2,MacIntel,57.20823799,,,,,,,,,,,,,,p,1,1.873,1.917202561,1,5,6,1,25,1,1,,,,,,,,,,,,,,
,,,,,,,,,,,right.png,,p,right,615f2b3f0eafbabe579b889a,2021-10-27_11h09.42.768,arrow_simon_punish,2021.1.2,MacIntel,57.20823799,,,,,,,,,,,,,,p,1,1.658,1.829077928,1,5,6,2,26,1,1,,,,,,,,,,,,,,
,,,,,,,,,,,left.png,,w,left,615f2b3f0eafbabe579b889a,2021-10-27_11h09.42.768,arrow_simon_punish,2021.1.2,MacIntel,57.20823799,,,,,,,,,,,,,,w,1,1.425,1.562401632,0,5,6,3,27,2,1,,,,,,,,,,,,,,
,,,,,,,,,,,right.png,,p,left,615f2b3f0eafbabe579b889a,2021-10-27_11h09.42.768,arrow_simon_punish,2021.1.2,MacIntel,57.20823799,,,,,,,,,,,,,,p,1,1.607,2.010448307,1,5,7,0,28,0,1,,,,,,,,,,,,,,
,,,,,,,,,,,right.png,,p,left,615f2b3f0eafbabe579b889a,2021-10-27_11h09.42.768,arrow_simon_punish,2021.1.2,MacIntel,57.20823799,,,,,,,,,,,,,,p,1,1.571,1.516301209,0,5,7,1,29,0,1,,,,,,,,,,,,,,
,,,,,,,,,,,right.png,,p,left,615f2b3f0eafbabe579b889a,2021-10-27_11h09.42.768,arrow_simon_punish,2021.1.2,MacIntel,57.20823799,,,,,,,,,,,,,,p,1,1.472,1.711192141,0,5,7,2,30,0,1,,,,,,,,,,,,,,
,,,,,,,,,,,left.png,,w,right,615f2b3f0eafbabe579b889a,2021-10-27_11h09.42.768,arrow_simon_punish,2021.1.2,MacIntel,57.20823799,,,,,,,,,,,,,,w,1,1.692,2.151368035,1,5,7,3,31,3,1,,,,,,,,,,,,,,
,,,,,,,,,,,right.png,,p,right,615f2b3f0eafbabe579b889a,2021-10-27_11h09.42.768,arrow_simon_punish,2021.1.2,MacIntel,57.20823799,,,,,,,,,,,,,,p,1,1.572,1.763733444,0,5,8,0,32,1,1,,,,,,,,,,,,,,
,,,,,,,,,,,left.png,,w,right,615f2b3f0eafbabe579b889a,2021-10-27_11h09.42.768,arrow_simon_punish,2021.1.2,MacIntel,57.20823799,,,,,,,,,,,,,,p,0,1.573,2.093305594,1,5,8,1,33,3,1,,,,,,,,,,,,,,
,,,,,,,,,,,left.png,,w,right,615f2b3f0eafbabe579b889a,2021-10-27_11h09.42.768,arrow_simon_punish,2021.1.2,MacIntel,57.20823799,,,,,,,,,,,,,,p,0,1.94,2.301598953,1,5,8,2,34,3,1,,,,,,,,,,,,,,
,,,,,,,,,,,left.png,,w,left,615f2b3f0eafbabe579b889a,2021-10-27_11h09.42.768,arrow_simon_punish,2021.1.2,MacIntel,57.20823799,,,,,,,,,,,,,,w,1,1.357,1.558378796,1,5,8,3,35,2,1,,,,,,,,,,,,,,
,,,,,,,,,,,left.png,,w,left,615f2b3f0eafbabe579b889a,2021-10-27_11h09.42.768,arrow_simon_punish,2021.1.2,MacIntel,57.20823799,,,,,,,,,,,,,,w,1,1.823,2.051459543,1,5,9,0,36,2,1,,,,,,,,,,,,,,
,,,,,,,,,,,right.png,,p,right,615f2b3f0eafbabe579b889a,2021-10-27_11h09.42.768,arrow_simon_punish,2021.1.2,MacIntel,57.20823799,,,,,,,,,,,,,,p,1,2.073,1.96334947,1,5,9,1,37,1,1,,,,,,,,,,,,,,
,,,,,,,,,,,right.png,,p,left,615f2b3f0eafbabe579b889a,2021-10-27_11h09.42.768,arrow_simon_punish,2021.1.2,MacIntel,57.20823799,,,,,,,,,,,,,,p,1,2.006,1.713642323,1,5,9,2,38,0,1,,,,,,,,,,,,,,
,,,,,,,,,,,left.png,,w,left,615f2b3f0eafbabe579b889a,2021-10-27_11h09.42.768,arrow_simon_punish,2021.1.2,MacIntel,57.20823799,,,,,,,,,,,,,,w,1,1.984,2.193525424,1,5,9,3,39,2,1,,,,,,,,,,,,,,
,,,,,,,,,,,right.png,,p,right,615f2b3f0eafbabe579b889a,2021-10-27_11h09.42.768,arrow_simon_punish,2021.1.2,MacIntel,57.20823799,,,,,,,,,,,,,,p,1,1.322,1.888585533,1,5,10,0,40,1,1,,,,,,,,,,,,,,
,,,,,,,,,,,right.png,,p,right,615f2b3f0eafbabe579b889a,2021-10-27_11h09.42.768,arrow_simon_punish,2021.1.2,MacIntel,57.20823799,,,,,,,,,,,,,,p,1,1.587,1.682813962,0,5,10,1,41,1,1,,,,,,,,,,,,,,
,,,,,,,,,,,right.png,,p,right,615f2b3f0eafbabe579b889a,2021-10-27_11h09.42.768,arrow_simon_punish,2021.1.2,MacIntel,57.20823799,,,,,,,,,,,,,,p,1,1.791,2.054687308,1,5,10,2,42,1,1,,,,,,,,,,,,,,
,,,,,,,,,,,right.png,,p,left,615f2b3f0eafbabe579b889a,2021-10-27_11h09.42.768,arrow_simon_punish,2021.1.2,MacIntel,57.20823799,,,,,,,,,,,,,,w,0,1.872,1.90591425,1,5,10,3,43,0,1,,,,,,,,,,,,,,
,,,,,,,,,,,right.png,,p,left,615f2b3f0eafbabe579b889a,2021-10-27_11h09.42.768,arrow_simon_punish,2021.1.2,MacIntel,57.20823799,,,,,,,,,,,,,,p,1,2.038,2.25972237,1,5,11,0,44,0,1,,,,,,,,,,,,,,
,,,,,,,,,,,right.png,,p,right,615f2b3f0eafbabe579b889a,2021-10-27_11h09.42.768,arrow_simon_punish,2021.1.2,MacIntel,57.20823799,,,,,,,,,,,,,,p,1,1.639,2.019193583,1,5,11,1,45,1,1,,,,,,,,,,,,,,
,,,,,,,,,,,left.png,,w,right,615f2b3f0eafbabe579b889a,2021-10-27_11h09.42.768,arrow_simon_punish,2021.1.2,MacIntel,57.20823799,,,,,,,,,,,,,,w,1,1.907,2.401439469,1,5,11,2,46,3,1,,,,,,,,,,,,,,
,,,,,,,,,,,right.png,,p,left,615f2b3f0eafbabe579b889a,2021-10-27_11h09.42.768,arrow_simon_punish,2021.1.2,MacIntel,57.20823799,,,,,,,,,,,,,,p,1,1.772,1.682603273,1,5,11,3,47,0,1,,,,,,,,,,,,,,
,,,,,,,,,,,right.png,,p,right,615f2b3f0eafbabe579b889a,2021-10-27_11h09.42.768,arrow_simon_punish,2021.1.2,MacIntel,57.20823799,,,,,,,,,,,,,,p,1,1.557,2.000823404,0,5,12,0,48,1,1,,,,,,,,,,,,,,
,,,,,,,,,,,left.png,,w,right,615f2b3f0eafbabe579b889a,2021-10-27_11h09.42.768,arrow_simon_punish,2021.1.2,MacIntel,57.20823799,,,,,,,,,,,,,,w,1,1.624,2.419798423,1,5,12,1,49,3,1,,,,,,,,,,,,,,
,,,,,,,,,,,left.png,,w,left,615f2b3f0eafbabe579b889a,2021-10-27_11h09.42.768,arrow_simon_punish,2021.1.2,MacIntel,57.20823799,,,,,,,,,,,,,,w,1,1.593,1.965535864,0,5,12,2,50,2,1,,,,,,,,,,,,,,
,,,,,,,,,,,left.png,,w,left,615f2b3f0eafbabe579b889a,2021-10-27_11h09.42.768,arrow_simon_punish,2021.1.2,MacIntel,57.20823799,,,,,,,,,,,,,,w,1,1.54,1.999193718,0,5,12,3,51,2,1,,,,,,,,,,,,,,
,,,,,,,,,,,left.png,,w,right,615f2b3f0eafbabe579b889a,2021-10-27_11h09.42.768,arrow_simon_punish,2021.1.2,MacIntel,57.20823799,,,,,,,,,,,,,,p,0,1.909,2.096380306,1,5,13,0,52,3,1,,,,,,,,,,,,,,
,,,,,,,,,,,left.png,,w,right,615f2b3f0eafbabe579b889a,2021-10-27_11h09.42.768,arrow_simon_punish,2021.1.2,MacIntel,57.20823799,,,,,,,,,,,,,,p,0,1.589,2.246798752,1,5,13,1,53,3,1,,,,,,,,,,,,,,
,,,,,,,,,,,left.png,,w,right,615f2b3f0eafbabe579b889a,2021-10-27_11h09.42.768,arrow_simon_punish,2021.1.2,MacIntel,57.20823799,,,,,,,,,,,,,,p,0,1.414,1.815203864,1,5,13,2,54,3,1,,,,,,,,,,,,,,
,,,,,,,,,,,left.png,,w,left,615f2b3f0eafbabe579b889a,2021-10-27_11h09.42.768,arrow_simon_punish,2021.1.2,MacIntel,57.20823799,,,,,,,,,,,,,,p,0,1.426,1.619950312,1,5,13,3,55,2,1,,,,,,,,,,,,,,
,,,,,,,,,,,right.png,,p,right,615f2b3f0eafbabe579b889a,2021-10-27_11h09.42.768,arrow_simon_punish,2021.1.2,MacIntel,57.20823799,,,,,,,,,,,,,,w,0,1.206,1.71313336,1,5,14,0,56,1,1,,,,,,,,,,,,,,
,,,,,,,,,,,left.png,,w,right,615f2b3f0eafbabe579b889a,2021-10-27_11h09.42.768,arrow_simon_punish,2021.1.2,MacIntel,57.20823799,,,,,,,,,,,,,,w,1,1.774,2.495972509,1,5,14,1,57,3,1,,,,,,,,,,,,,,
,,,,,,,,,,,right.png,,p,right,615f2b3f0eafbabe579b889a,2021-10-27_11h09.42.768,arrow_simon_punish,2021.1.2,MacIntel,57.20823799,,,,,,,,,,,,,,p,1,1.439,2.167136067,0,5,14,2,58,1,1,,,,,,,,,,,,,,
,,,,,,,,,,,left.png,,w,left,615f2b3f0eafbabe579b889a,2021-10-27_11h09.42.768,arrow_simon_punish,2021.1.2,MacIntel,57.20823799,,,,,,,,,,,,,,w,1,1.272,1.702957943,1,5,14,3,59,2,1,,,,,,,,,,,,,,
,,,,,,,,,,,,,,,615f2b3f0eafbabe579b889a,2021-10-27_11h09.42.768,arrow_simon_punish,2021.1.2,MacIntel,57.20823799,,,,,,,,,,,,,,,,,,,,,,,,,space,18.46,7,2,1,5,1,1,5,,,,,
,,,,,,,,,,,left.png,,w,left,615f2b3f0eafbabe579b889a,2021-10-27_11h09.42.768,arrow_simon_punish,2021.1.2,MacIntel,57.20823799,,,,,,,,,,,,,,p,0,1.954,2.227943388,1,1,0,0,0,2,1,,,,,,,,,,,,,,
,,,,,,,,,,,left.png,,w,left,615f2b3f0eafbabe579b889a,2021-10-27_11h09.42.768,arrow_simon_punish,2021.1.2,MacIntel,57.20823799,,,,,,,,,,,,,,w,1,1.639,2.222146118,1,1,0,1,1,2,1,,,,,,,,,,,,,,
,,,,,,,,,,,right.png,,p,right,615f2b3f0eafbabe579b889a,2021-10-27_11h09.42.768,arrow_simon_punish,2021.1.2,MacIntel,57.20823799,,,,,,,,,,,,,,w,0,1.156,1.955551328,1,1,0,2,2,1,1,,,,,,,,,,,,,,
,,,,,,,,,,,right.png,,p,right,615f2b3f0eafbabe579b889a,2021-10-27_11h09.42.768,arrow_simon_punish,2021.1.2,MacIntel,57.20823799,,,,,,,,,,,,,,p,1,1.157,1.891756292,1,1,0,3,3,1,1,,,,,,,,,,,,,,
,,,,,,,,,,,right.png,,p,left,615f2b3f0eafbabe579b889a,2021-10-27_11h09.42.768,arrow_simon_punish,2021.1.2,MacIntel,57.20823799,,,,,,,,,,,,,,p,1,0.893,2.300824593,1,1,1,0,4,0,1,,,,,,,,,,,,,,
,,,,,,,,,,,right.png,,p,left,615f2b3f0eafbabe579b889a,2021-10-27_11h09.42.768,arrow_simon_punish,2021.1.2,MacIntel,57.20823799,,,,,,,,,,,,,,w,0,1.543,2.177680272,1,1,1,1,5,0,1,,,,,,,,,,,,,,
,,,,,,,,,,,left.png,,w,left,615f2b3f0eafbabe579b889a,2021-10-27_11h09.42.768,arrow_simon_punish,2021.1.2,MacIntel,57.20823799,,,,,,,,,,,,,,w,1,1.605,2.292544399,1,1,1,2,6,2,1,,,,,,,,,,,,,,
,,,,,,,,,,,left.png,,w,left,615f2b3f0eafbabe579b889a,2021-10-27_11h09.42.768,arrow_simon_punish,2021.1.2,MacIntel,57.20823799,,,,,,,,,,,,,,p,0,1.444,1.69666142,1,1,1,3,7,2,1,,,,,,,,,,,,,,
,,,,,,,,,,,right.png,,p,left,615f2b3f0eafbabe579b889a,2021-10-27_11h09.42.768,arrow_simon_punish,2021.1.2,MacIntel,57.20823799,,,,,,,,,,,,,,w,0,1.665,2.2479752,1,1,2,0,8,0,1,,,,,,,,,,,,,,
,,,,,,,,,,,right.png,,p,right,615f2b3f0eafbabe579b889a,2021-10-27_11h09.42.768,arrow_simon_punish,2021.1.2,MacIntel,57.20823799,,,,,,,,,,,,,,p,1,0.973,2.040805247,1,1,2,1,9,1,1,,,,,,,,,,,,,,
,,,,,,,,,,,right.png,,p,right,615f2b3f0eafbabe579b889a,2021-10-27_11h09.42.768,arrow_simon_punish,2021.1.2,MacIntel,57.20823799,,,,,,,,,,,,,,p,1,1.024,1.502686454,1,1,2,2,10,1,1,,,,,,,,,,,,,,
,,,,,,,,,,,right.png,,p,left,615f2b3f0eafbabe579b889a,2021-10-27_11h09.42.768,arrow_simon_punish,2021.1.2,MacIntel,57.20823799,,,,,,,,,,,,,,p,1,1.459,1.781942272,0,1,2,3,11,0,1,,,,,,,,,,,,,,
,,,,,,,,,,,right.png,,p,left,615f2b3f0eafbabe579b889a,2021-10-27_11h09.42.768,arrow_simon_punish,2021.1.2,MacIntel,57.20823799,,,,,,,,,,,,,,p,1,1.541,1.845817558,0,1,3,0,12,0,1,,,,,,,,,,,,,,
,,,,,,,,,,,right.png,,p,right,615f2b3f0eafbabe579b889a,2021-10-27_11h09.42.768,arrow_simon_punish,2021.1.2,MacIntel,57.20823799,,,,,,,,,,,,,,p,1,1.34,1.880970663,1,1,3,1,13,1,1,,,,,,,,,,,,,,
,,,,,,,,,,,left.png,,w,left,615f2b3f0eafbabe579b889a,2021-10-27_11h09.42.768,arrow_simon_punish,2021.1.2,MacIntel,57.20823799,,,,,,,,,,,,,,p,0,1.794,2.169229224,1,1,3,2,14,2,1,,,,,,,,,,,,,,
,,,,,,,,,,,left.png,,w,left,615f2b3f0eafbabe579b889a,2021-10-27_11h09.42.768,arrow_simon_punish,2021.1.2,MacIntel,57.20823799,,,,,,,,,,,,,,w,1,1.089,1.661992741,1,1,3,3,15,2,1,,,,,,,,,,,,,,
,,,,,,,,,,,right.png,,p,right,615f2b3f0eafbabe579b889a,2021-10-27_11h09.42.768,arrow_simon_punish,2021.1.2,MacIntel,57.20823799,,,,,,,,,,,,,,w,0,0.905,1.715715726,1,1,4,0,16,1,1,,,,,,,,,,,,,,
,,,,,,,,,,,right.png,,p,left,615f2b3f0eafbabe579b889a,2021-10-27_11h09.42.768,arrow_simon_punish,2021.1.2,MacIntel,57.20823799,,,,,,,,,,,,,,w,0,1.408,1.985294524,1,1,4,1,17,0,1,,,,,,,,,,,,,,
,,,,,,,,,,,right.png,,p,right,615f2b3f0eafbabe579b889a,2021-10-27_11h09.42.768,arrow_simon_punish,2021.1.2,MacIntel,57.20823799,,,,,,,,,,,,,,p,1,1.173,1.711454028,1,1,4,2,18,1,1,,,,,,,,,,,,,,
,,,,,,,,,,,left.png,,w,right,615f2b3f0eafbabe579b889a,2021-10-27_11h09.42.768,arrow_simon_punish,2021.1.2,MacIntel,57.20823799,,,,,,,,,,,,,,w,1,1.357,1.566118835,1,1,4,3,19,3,1,,,,,,,,,,,,,,
,,,,,,,,,,,left.png,,w,right,615f2b3f0eafbabe579b889a,2021-10-27_11h09.42.768,arrow_simon_punish,2021.1.2,MacIntel,57.20823799,,,,,,,,,,,,,,w,1,1.619,1.999787212,1,1,5,0,20,3,1,,,,,,,,,,,,,,
,,,,,,,,,,,left.png,,w,right,615f2b3f0eafbabe579b889a,2021-10-27_11h09.42.768,arrow_simon_punish,2021.1.2,MacIntel,57.20823799,,,,,,,,,,,,,,w,1,1.456,2.208330902,0,1,5,1,21,3,1,,,,,,,,,,,,,,
,,,,,,,,,,,left.png,,w,left,615f2b3f0eafbabe579b889a,2021-10-27_11h09.42.768,arrow_simon_punish,2021.1.2,MacIntel,57.20823799,,,,,,,,,,,,,,w,1,1.923,2.391077367,1,1,5,2,22,2,1,,,,,,,,,,,,,,
,,,,,,,,,,,left.png,,w,right,615f2b3f0eafbabe579b889a,2021-10-27_11h09.42.768,arrow_simon_punish,2021.1.2,MacIntel,57.20823799,,,,,,,,,,,,,,w,1,1.271,1.817156603,1,1,5,3,23,3,1,,,,,,,,,,,,,,
,,,,,,,,,,,left.png,,w,right,615f2b3f0eafbabe579b889a,2021-10-27_11h09.42.768,arrow_simon_punish,2021.1.2,MacIntel,57.20823799,,,,,,,,,,,,,,w,1,1.37,2.119061999,1,1,6,0,24,3,1,,,,,,,,,,,,,,
,,,,,,,,,,,right.png,,p,left,615f2b3f0eafbabe579b889a,2021-10-27_11h09.42.768,arrow_simon_punish,2021.1.2,MacIntel,57.20823799,,,,,,,,,,,,,,p,1,1.474,1.731856739,0,1,6,1,25,0,1,,,,,,,,,,,,,,
,,,,,,,,,,,left.png,,w,right,615f2b3f0eafbabe579b889a,2021-10-27_11h09.42.768,arrow_simon_punish,2021.1.2,MacIntel,57.20823799,,,,,,,,,,,,,,w,1,1.19,1.771398786,1,1,6,2,26,3,1,,,,,,,,,,,,,,
,,,,,,,,,,,right.png,,p,left,615f2b3f0eafbabe579b889a,2021-10-27_11h09.42.768,arrow_simon_punish,2021.1.2,MacIntel,57.20823799,,,,,,,,,,,,,,w,0,1.688,2.263184423,1,1,6,3,27,0,1,,,,,,,,,,,,,,
,,,,,,,,,,,right.png,,p,right,615f2b3f0eafbabe579b889a,2021-10-27_11h09.42.768,arrow_simon_punish,2021.1.2,MacIntel,57.20823799,,,,,,,,,,,,,,p,1,1.539,1.929060667,0,1,7,0,28,1,1,,,,,,,,,,,,,,
,,,,,,,,,,,left.png,,w,left,615f2b3f0eafbabe579b889a,2021-10-27_11h09.42.768,arrow_simon_punish,2021.1.2,MacIntel,57.20823799,,,,,,,,,,,,,,w,1,1.823,2.459651904,1,1,7,1,29,2,1,,,,,,,,,,,,,,
,,,,,,,,,,,left.png,,w,left,615f2b3f0eafbabe579b889a,2021-10-27_11h09.42.768,arrow_simon_punish,2021.1.2,MacIntel,57.20823799,,,,,,,,,,,,,,w,1,1.39,1.949521114,1,1,7,2,30,2,1,,,,,,,,,,,,,,
,,,,,,,,,,,right.png,,p,right,615f2b3f0eafbabe579b889a,2021-10-27_11h09.42.768,arrow_simon_punish,2021.1.2,MacIntel,57.20823799,,,,,,,,,,,,,,w,0,1.557,2.201766779,1,1,7,3,31,1,1,,,,,,,,,,,,,,
,,,,,,,,,,,right.png,,p,right,615f2b3f0eafbabe579b889a,2021-10-27_11h09.42.768,arrow_simon_punish,2021.1.2,MacIntel,57.20823799,,,,,,,,,,,,,,p,1,1.589,2.135188497,0,1,8,0,32,1,1,,,,,,,,,,,,,,
,,,,,,,,,,,left.png,,w,right,615f2b3f0eafbabe579b889a,2021-10-27_11h09.42.768,arrow_simon_punish,2021.1.2,MacIntel,57.20823799,,,,,,,,,,,,,,w,1,1.523,1.96163277,0,1,8,1,33,3,1,,,,,,,,,,,,,,
,,,,,,,,,,,right.png,,p,left,615f2b3f0eafbabe579b889a,2021-10-27_11h09.42.768,arrow_simon_punish,2021.1.2,MacIntel,57.20823799,,,,,,,,,,,,,,w,0,1.592,2.149498288,1,1,8,2,34,0,1,,,,,,,,,,,,,,
,,,,,,,,,,,left.png,,w,left,615f2b3f0eafbabe579b889a,2021-10-27_11h09.42.768,arrow_simon_punish,2021.1.2,MacIntel,57.20823799,,,,,,,,,,,,,,w,1,1.407,1.975547293,0,1,8,3,35,2,1,,,,,,,,,,,,,,
,,,,,,,,,,,right.png,,p,left,615f2b3f0eafbabe579b889a,2021-10-27_11h09.42.768,arrow_simon_punish,2021.1.2,MacIntel,57.20823799,,,,,,,,,,,,,,p,1,1.157,1.62787121,1,1,9,0,36,0,1,,,,,,,,,,,,,,
,,,,,,,,,,,right.png,,p,left,615f2b3f0eafbabe579b889a,2021-10-27_11h09.42.768,arrow_simon_punish,2021.1.2,MacIntel,57.20823799,,,,,,,,,,,,,,p,1,1.561,2.31674228,0,1,9,1,37,0,1,,,,,,,,,,,,,,
,,,,,,,,,,,left.png,,w,right,615f2b3f0eafbabe579b889a,2021-10-27_11h09.42.768,arrow_simon_punish,2021.1.2,MacIntel,57.20823799,,,,,,,,,,,,,,w,1,1.107,1.50614405,1,1,9,2,38,3,1,,,,,,,,,,,,,,
,,,,,,,,,,,left.png,,w,left,615f2b3f0eafbabe579b889a,2021-10-27_11h09.42.768,arrow_simon_punish,2021.1.2,MacIntel,57.20823799,,,,,,,,,,,,,,w,1,1.459,1.604378344,0,1,9,3,39,2,1,,,,,,,,,,,,,,
,,,,,,,,,,,right.png,,p,right,615f2b3f0eafbabe579b889a,2021-10-27_11h09.42.768,arrow_simon_punish,2021.1.2,MacIntel,57.20823799,,,,,,,,,,,,,,p,1,1.291,1.758065496,1,1,10,0,40,1,1,,,,,,,,,,,,,,
,,,,,,,,,,,right.png,,p,left,615f2b3f0eafbabe579b889a,2021-10-27_11h09.42.768,arrow_simon_punish,2021.1.2,MacIntel,57.20823799,,,,,,,,,,,,,,p,1,1.541,2.451919247,0,1,10,1,41,0,1,,,,,,,,,,,,,,
,,,,,,,,,,,left.png,,w,right,615f2b3f0eafbabe579b889a,2021-10-27_11h09.42.768,arrow_simon_punish,2021.1.2,MacIntel,57.20823799,,,,,,,,,,,,,,w,1,1.423,1.534236845,0,1,10,2,42,3,1,,,,,,,,,,,,,,
,,,,,,,,,,,right.png,,p,right,615f2b3f0eafbabe579b889a,2021-10-27_11h09.42.768,arrow_simon_punish,2021.1.2,MacIntel,57.20823799,,,,,,,,,,,,,,p,1,1.323,1.72815607,1,1,10,3,43,1,1,,,,,,,,,,,,,,
,,,,,,,,,,,right.png,,p,right,615f2b3f0eafbabe579b889a,2021-10-27_11h09.42.768,arrow_simon_punish,2021.1.2,MacIntel,57.20823799,,,,,,,,,,,,,,p,1,1.607,1.870150661,1,1,11,0,44,1,1,,,,,,,,,,,,,,
,,,,,,,,,,,left.png,,w,left,615f2b3f0eafbabe579b889a,2021-10-27_11h09.42.768,arrow_simon_punish,2021.1.2,MacIntel,57.20823799,,,,,,,,,,,,,,w,1,1.541,1.614563082,0,1,11,1,45,2,1,,,,,,,,,,,,,,
,,,,,,,,,,,left.png,,w,left,615f2b3f0eafbabe579b889a,2021-10-27_11h09.42.768,arrow_simon_punish,2021.1.2,MacIntel,57.20823799,,,,,,,,,,,,,,w,1,1.522,1.794473794,0,1,11,2,46,2,1,,,,,,,,,,,,,,
,,,,,,,,,,,right.png,,p,left,615f2b3f0eafbabe579b889a,2021-10-27_11h09.42.768,arrow_simon_punish,2021.1.2,MacIntel,57.20823799,,,,,,,,,,,,,,w,0,1.441,2.159720305,1,1,11,3,47,0,1,,,,,,,,,,,,,,
,,,,,,,,,,,left.png,,w,right,615f2b3f0eafbabe579b889a,2021-10-27_11h09.42.768,arrow_simon_punish,2021.1.2,MacIntel,57.20823799,,,,,,,,,,,,,,p,0,1.507,1.844773149,1,1,12,0,48,3,1,,,,,,,,,,,,,,
,,,,,,,,,,,right.png,,p,left,615f2b3f0eafbabe579b889a,2021-10-27_11h09.42.768,arrow_simon_punish,2021.1.2,MacIntel,57.20823799,,,,,,,,,,,,,,w,0,1.574,1.998033724,1,1,12,1,49,0,1,,,,,,,,,,,,,,
,,,,,,,,,,,left.png,,w,left,615f2b3f0eafbabe579b889a,2021-10-27_11h09.42.768,arrow_simon_punish,2021.1.2,MacIntel,57.20823799,,,,,,,,,,,,,,p,0,1.741,2.188851259,1,1,12,2,50,2,1,,,,,,,,,,,,,,
,,,,,,,,,,,left.png,,w,right,615f2b3f0eafbabe579b889a,2021-10-27_11h09.42.768,arrow_simon_punish,2021.1.2,MacIntel,57.20823799,,,,,,,,,,,,,,p,0,1.54,2.125123835,1,1,12,3,51,3,1,,,,,,,,,,,,,,
,,,,,,,,,,,right.png,,p,right,615f2b3f0eafbabe579b889a,2021-10-27_11h09.42.768,arrow_simon_punish,2021.1.2,MacIntel,57.20823799,,,,,,,,,,,,,,p,1,1.405,1.748856254,0,1,13,0,52,1,1,,,,,,,,,,,,,,
,,,,,,,,,,,left.png,,w,left,615f2b3f0eafbabe579b889a,2021-10-27_11h09.42.768,arrow_simon_punish,2021.1.2,MacIntel,57.20823799,,,,,,,,,,,,,,w,1,1.506,2.20573978,0,1,13,1,53,2,1,,,,,,,,,,,,,,
,,,,,,,,,,,left.png,,w,right,615f2b3f0eafbabe579b889a,2021-10-27_11h09.42.768,arrow_simon_punish,2021.1.2,MacIntel,57.20823799,,,,,,,,,,,,,,p,0,1.754,2.281463923,1,1,13,2,54,3,1,,,,,,,,,,,,,,
,,,,,,,,,,,right.png,,p,left,615f2b3f0eafbabe579b889a,2021-10-27_11h09.42.768,arrow_simon_punish,2021.1.2,MacIntel,57.20823799,,,,,,,,,,,,,,w,0,1.623,1.728795313,1,1,13,3,55,0,1,,,,,,,,,,,,,,
,,,,,,,,,,,left.png,,w,right,615f2b3f0eafbabe579b889a,2021-10-27_11h09.42.768,arrow_simon_punish,2021.1.2,MacIntel,57.20823799,,,,,,,,,,,,,,p,0,1.692,2.350523986,1,1,14,0,56,3,1,,,,,,,,,,,,,,
,,,,,,,,,,,left.png,,w,right,615f2b3f0eafbabe579b889a,2021-10-27_11h09.42.768,arrow_simon_punish,2021.1.2,MacIntel,57.20823799,,,,,,,,,,,,,,p,0,1.572,2.495399299,1,1,14,1,57,3,1,,,,,,,,,,,,,,
,,,,,,,,,,,left.png,,w,right,615f2b3f0eafbabe579b889a,2021-10-27_11h09.42.768,arrow_simon_punish,2021.1.2,MacIntel,57.20823799,,,,,,,,,,,,,,p,0,1.423,1.964491077,1,1,14,2,58,3,1,,,,,,,,,,,,,,
,,,,,,,,,,,right.png,,p,right,615f2b3f0eafbabe579b889a,2021-10-27_11h09.42.768,arrow_simon_punish,2021.1.2,MacIntel,57.20823799,,,,,,,,,,,,,,w,0,1.738,1.944258318,1,1,14,3,59,1,1,,,,,,,,,,,,,,
,,,,,,,,,,,,,,,615f2b3f0eafbabe579b889a,2021-10-27_11h09.42.768,arrow_simon_punish,2021.1.2,MacIntel,57.20823799,,,,,,,,,,,,,,,,,,,,,,,,,space,35.696,8,3,0,6,0,1,1,,,,,
,,,,,,,,,,,left.png,,w,right,615f2b3f0eafbabe579b889a,2021-10-27_11h09.42.768,arrow_simon_punish,2021.1.2,MacIntel,57.20823799,,,,,,,,,,,,,,p,0,4.644,1.567673955,1,5,0,0,0,3,1,,,,,,,,,,,,,,
,,,,,,,,,,,left.png,,w,right,615f2b3f0eafbabe579b889a,2021-10-27_11h09.42.768,arrow_simon_punish,2021.1.2,MacIntel,57.20823799,,,,,,,,,,,,,,w,1,1.357,1.648745685,1,5,0,1,1,3,1,,,,,,,,,,,,,,
,,,,,,,,,,,right.png,,p,right,615f2b3f0eafbabe579b889a,2021-10-27_11h09.42.768,arrow_simon_punish,2021.1.2,MacIntel,57.20823799,,,,,,,,,,,,,,p,1,1.577,1.623202816,0,5,0,2,2,1,1,,,,,,,,,,,,,,
