instruct_resp_simon.keys,instruct_resp_simon.corr,instruct_resp_simon.rt,trial_resp_simon.keys,trial_resp_simon.corr,trial_resp_simon.rt,trials_train_simon.thisRepN,trials_train_simon.thisTrialN,trials_train_simon.thisN,trials_train_simon.thisIndex,trials_train_simon.ran,target_file,target_pos,target_resp,target_side,participant,date,expName,psychopyVersion,OS,frameRate,instruct_resp_timing.keys,instruct_resp_timing.corr,instruct_resp_timing.rt,trial_resp_timing.keys,trial_resp_timing.rt,trials_train_timing.thisRepN,trials_train_timing.thisTrialN,trials_train_timing.thisN,trials_train_timing.thisIndex,trials_train_timing.ran,instruct_resp.keys,instruct_resp.corr,instruct_resp.rt,trial_resp.keys,trial_resp.corr,trial_resp.rt,target_onset,err,pun,trials.thisRepN,trials.thisTrialN,trials.thisN,trials.thisIndex,trials.ran,block_note_resp.keys,block_note_resp.rt,block_num,blocks.thisRepN,blocks.thisTrialN,blocks.thisN,blocks.thisIndex,blocks.ran,punish,complete_resp.keys,complete_resp.rt,raffle_trial,raffle_err,raffle_rew
space,0,39.6626,p,1,1.5455,0,0,0,1,1,right.png,,p,right,615f87082ac0e636b68e06af,2021-10-21_15h13.54.085,arrow_simon_punish,2021.1.2,Win32,59.94485074,,,,,,,,,,,,,,,,,,,,,,,,,,,,,,,,,,,,,,
,,,p,1,1.5373,0,1,1,0,1,right.png,,p,left,615f87082ac0e636b68e06af,2021-10-21_15h13.54.085,arrow_simon_punish,2021.1.2,Win32,59.94485074,,,,,,,,,,,,,,,,,,,,,,,,,,,,,,,,,,,,,,
,,,w,1,1.4714,0,2,2,3,1,left.png,,w,right,615f87082ac0e636b68e06af,2021-10-21_15h13.54.085,arrow_simon_punish,2021.1.2,Win32,59.94485074,,,,,,,,,,,,,,,,,,,,,,,,,,,,,,,,,,,,,,
,,,w,1,0.9694,0,3,3,2,1,left.png,,w,left,615f87082ac0e636b68e06af,2021-10-21_15h13.54.085,arrow_simon_punish,2021.1.2,Win32,59.94485074,,,,,,,,,,,,,,,,,,,,,,,,,,,,,,,,,,,,,,
,,,w,1,0.9794,1,0,4,2,1,left.png,,w,left,615f87082ac0e636b68e06af,2021-10-21_15h13.54.085,arrow_simon_punish,2021.1.2,Win32,59.94485074,,,,,,,,,,,,,,,,,,,,,,,,,,,,,,,,,,,,,,
,,,p,1,0.7956,1,1,5,0,1,right.png,,p,left,615f87082ac0e636b68e06af,2021-10-21_15h13.54.085,arrow_simon_punish,2021.1.2,Win32,59.94485074,,,,,,,,,,,,,,,,,,,,,,,,,,,,,,,,,,,,,,
,,,w,1,1.2892,1,2,6,3,1,left.png,,w,right,615f87082ac0e636b68e06af,2021-10-21_15h13.54.085,arrow_simon_punish,2021.1.2,Win32,59.94485074,,,,,,,,,,,,,,,,,,,,,,,,,,,,,,,,,,,,,,
,,,p,1,1.2055,1,3,7,1,1,right.png,,p,right,615f87082ac0e636b68e06af,2021-10-21_15h13.54.085,arrow_simon_punish,2021.1.2,Win32,59.94485074,,,,,,,,,,,,,,,,,,,,,,,,,,,,,,,,,,,,,,
,,,p,1,1.0429,2,0,8,0,1,right.png,,p,left,615f87082ac0e636b68e06af,2021-10-21_15h13.54.085,arrow_simon_punish,2021.1.2,Win32,59.94485074,,,,,,,,,,,,,,,,,,,,,,,,,,,,,,,,,,,,,,
,,,w,1,1.844,2,1,9,3,1,left.png,,w,right,615f87082ac0e636b68e06af,2021-10-21_15h13.54.085,arrow_simon_punish,2021.1.2,Win32,59.94485074,,,,,,,,,,,,,,,,,,,,,,,,,,,,,,,,,,,,,,
,,,w,1,0.945,2,2,10,2,1,left.png,,w,left,615f87082ac0e636b68e06af,2021-10-21_15h13.54.085,arrow_simon_punish,2021.1.2,Win32,59.94485074,,,,,,,,,,,,,,,,,,,,,,,,,,,,,,,,,,,,,,
,,,p,1,1.3404,2,3,11,1,1,right.png,,p,right,615f87082ac0e636b68e06af,2021-10-21_15h13.54.085,arrow_simon_punish,2021.1.2,Win32,59.94485074,,,,,,,,,,,,,,,,,,,,,,,,,,,,,,,,,,,,,,
,,,w,1,0.9071,3,0,12,3,1,left.png,,w,right,615f87082ac0e636b68e06af,2021-10-21_15h13.54.085,arrow_simon_punish,2021.1.2,Win32,59.94485074,,,,,,,,,,,,,,,,,,,,,,,,,,,,,,,,,,,,,,
,,,p,1,0.9935,3,1,13,0,1,right.png,,p,left,615f87082ac0e636b68e06af,2021-10-21_15h13.54.085,arrow_simon_punish,2021.1.2,Win32,59.94485074,,,,,,,,,,,,,,,,,,,,,,,,,,,,,,,,,,,,,,
,,,p,1,1.2886,3,2,14,1,1,right.png,,p,right,615f87082ac0e636b68e06af,2021-10-21_15h13.54.085,arrow_simon_punish,2021.1.2,Win32,59.94485074,,,,,,,,,,,,,,,,,,,,,,,,,,,,,,,,,,,,,,
,,,w,1,1.2556,3,3,15,2,1,left.png,,w,left,615f87082ac0e636b68e06af,2021-10-21_15h13.54.085,arrow_simon_punish,2021.1.2,Win32,59.94485074,,,,,,,,,,,,,,,,,,,,,,,,,,,,,,,,,,,,,,
,,,p,1,0.7749,4,0,16,0,1,right.png,,p,left,615f87082ac0e636b68e06af,2021-10-21_15h13.54.085,arrow_simon_punish,2021.1.2,Win32,59.94485074,,,,,,,,,,,,,,,,,,,,,,,,,,,,,,,,,,,,,,
,,,w,1,0.7275,4,1,17,3,1,left.png,,w,right,615f87082ac0e636b68e06af,2021-10-21_15h13.54.085,arrow_simon_punish,2021.1.2,Win32,59.94485074,,,,,,,,,,,,,,,,,,,,,,,,,,,,,,,,,,,,,,
,,,p,1,1.3121,4,2,18,1,1,right.png,,p,right,615f87082ac0e636b68e06af,2021-10-21_15h13.54.085,arrow_simon_punish,2021.1.2,Win32,59.94485074,,,,,,,,,,,,,,,,,,,,,,,,,,,,,,,,,,,,,,
,,,w,1,1.3798,4,3,19,2,1,left.png,,w,left,615f87082ac0e636b68e06af,2021-10-21_15h13.54.085,arrow_simon_punish,2021.1.2,Win32,59.94485074,,,,,,,,,,,,,,,,,,,,,,,,,,,,,,,,,,,,,,
,,,p,1,0.8982,5,0,20,0,1,right.png,,p,left,615f87082ac0e636b68e06af,2021-10-21_15h13.54.085,arrow_simon_punish,2021.1.2,Win32,59.94485074,,,,,,,,,,,,,,,,,,,,,,,,,,,,,,,,,,,,,,
,,,w,1,1.0997,5,1,21,2,1,left.png,,w,left,615f87082ac0e636b68e06af,2021-10-21_15h13.54.085,arrow_simon_punish,2021.1.2,Win32,59.94485074,,,,,,,,,,,,,,,,,,,,,,,,,,,,,,,,,,,,,,
,,,p,1,0.9217,5,2,22,1,1,right.png,,p,right,615f87082ac0e636b68e06af,2021-10-21_15h13.54.085,arrow_simon_punish,2021.1.2,Win32,59.94485074,,,,,,,,,,,,,,,,,,,,,,,,,,,,,,,,,,,,,,
,,,w,1,0.7459,5,3,23,3,1,left.png,,w,right,615f87082ac0e636b68e06af,2021-10-21_15h13.54.085,arrow_simon_punish,2021.1.2,Win32,59.94485074,,,,,,,,,,,,,,,,,,,,,,,,,,,,,,,,,,,,,,
,,,p,1,0.7846,6,0,24,0,1,right.png,,p,left,615f87082ac0e636b68e06af,2021-10-21_15h13.54.085,arrow_simon_punish,2021.1.2,Win32,59.94485074,,,,,,,,,,,,,,,,,,,,,,,,,,,,,,,,,,,,,,
,,,p,1,0.6643,6,1,25,1,1,right.png,,p,right,615f87082ac0e636b68e06af,2021-10-21_15h13.54.085,arrow_simon_punish,2021.1.2,Win32,59.94485074,,,,,,,,,,,,,,,,,,,,,,,,,,,,,,,,,,,,,,
,,,w,1,1.5303,6,2,26,3,1,left.png,,w,right,615f87082ac0e636b68e06af,2021-10-21_15h13.54.085,arrow_simon_punish,2021.1.2,Win32,59.94485074,,,,,,,,,,,,,,,,,,,,,,,,,,,,,,,,,,,,,,
,,,w,1,0.8829,6,3,27,2,1,left.png,,w,left,615f87082ac0e636b68e06af,2021-10-21_15h13.54.085,arrow_simon_punish,2021.1.2,Win32,59.94485074,,,,,,,,,,,,,,,,,,,,,,,,,,,,,,,,,,,,,,
,,,p,1,0.9289,7,0,28,1,1,right.png,,p,right,615f87082ac0e636b68e06af,2021-10-21_15h13.54.085,arrow_simon_punish,2021.1.2,Win32,59.94485074,,,,,,,,,,,,,,,,,,,,,,,,,,,,,,,,,,,,,,
,,,w,1,1.1013,7,1,29,2,1,left.png,,w,left,615f87082ac0e636b68e06af,2021-10-21_15h13.54.085,arrow_simon_punish,2021.1.2,Win32,59.94485074,,,,,,,,,,,,,,,,,,,,,,,,,,,,,,,,,,,,,,
,,,w,1,1.5487,7,2,30,3,1,left.png,,w,right,615f87082ac0e636b68e06af,2021-10-21_15h13.54.085,arrow_simon_punish,2021.1.2,Win32,59.94485074,,,,,,,,,,,,,,,,,,,,,,,,,,,,,,,,,,,,,,
,,,p,1,0.7185,7,3,31,0,1,right.png,,p,left,615f87082ac0e636b68e06af,2021-10-21_15h13.54.085,arrow_simon_punish,2021.1.2,Win32,59.94485074,,,,,,,,,,,,,,,,,,,,,,,,,,,,,,,,,,,,,,
,,,p,1,1.4785,8,0,32,0,1,right.png,,p,left,615f87082ac0e636b68e06af,2021-10-21_15h13.54.085,arrow_simon_punish,2021.1.2,Win32,59.94485074,,,,,,,,,,,,,,,,,,,,,,,,,,,,,,,,,,,,,,
,,,w,1,0.7424,8,1,33,3,1,left.png,,w,right,615f87082ac0e636b68e06af,2021-10-21_15h13.54.085,arrow_simon_punish,2021.1.2,Win32,59.94485074,,,,,,,,,,,,,,,,,,,,,,,,,,,,,,,,,,,,,,
,,,p,1,0.9178,8,2,34,1,1,right.png,,p,right,615f87082ac0e636b68e06af,2021-10-21_15h13.54.085,arrow_simon_punish,2021.1.2,Win32,59.94485074,,,,,,,,,,,,,,,,,,,,,,,,,,,,,,,,,,,,,,
,,,w,1,1.2561,8,3,35,2,1,left.png,,w,left,615f87082ac0e636b68e06af,2021-10-21_15h13.54.085,arrow_simon_punish,2021.1.2,Win32,59.94485074,,,,,,,,,,,,,,,,,,,,,,,,,,,,,,,,,,,,,,
,,,p,1,1.3951,9,0,36,0,1,right.png,,p,left,615f87082ac0e636b68e06af,2021-10-21_15h13.54.085,arrow_simon_punish,2021.1.2,Win32,59.94485074,,,,,,,,,,,,,,,,,,,,,,,,,,,,,,,,,,,,,,
,,,p,1,1.1969,9,1,37,1,1,right.png,,p,right,615f87082ac0e636b68e06af,2021-10-21_15h13.54.085,arrow_simon_punish,2021.1.2,Win32,59.94485074,,,,,,,,,,,,,,,,,,,,,,,,,,,,,,,,,,,,,,
,,,w,1,1.1498,9,2,38,2,1,left.png,,w,left,615f87082ac0e636b68e06af,2021-10-21_15h13.54.085,arrow_simon_punish,2021.1.2,Win32,59.94485074,,,,,,,,,,,,,,,,,,,,,,,,,,,,,,,,,,,,,,
,,,w,1,1.2819,9,3,39,3,1,left.png,,w,right,615f87082ac0e636b68e06af,2021-10-21_15h13.54.085,arrow_simon_punish,2021.1.2,Win32,59.94485074,,,,,,,,,,,,,,,,,,,,,,,,,,,,,,,,,,,,,,
,,,,,,,,,,,,,,,615f87082ac0e636b68e06af,2021-10-21_15h13.54.085,arrow_simon_punish,2021.1.2,Win32,59.94485074,space,0,43.9235,w,3.2471,0,0,0,0,1,,,,,,,,,,,,,,,,,,,,,,,,,,,,
,,,,,,,,,,,,,,,615f87082ac0e636b68e06af,2021-10-21_15h13.54.085,arrow_simon_punish,2021.1.2,Win32,59.94485074,,,,w,2.7258,1,0,1,0,1,,,,,,,,,,,,,,,,,,,,,,,,,,,,
,,,,,,,,,,,,,,,615f87082ac0e636b68e06af,2021-10-21_15h13.54.085,arrow_simon_punish,2021.1.2,Win32,59.94485074,,,,w,2.4576,2,0,2,0,1,,,,,,,,,,,,,,,,,,,,,,,,,,,,
,,,,,,,,,,,,,,,615f87082ac0e636b68e06af,2021-10-21_15h13.54.085,arrow_simon_punish,2021.1.2,Win32,59.94485074,,,,w,2.2119,3,0,3,0,1,,,,,,,,,,,,,,,,,,,,,,,,,,,,
,,,,,,,,,,,,,,,615f87082ac0e636b68e06af,2021-10-21_15h13.54.085,arrow_simon_punish,2021.1.2,Win32,59.94485074,,,,w,2.4617,4,0,4,0,1,,,,,,,,,,,,,,,,,,,,,,,,,,,,
,,,,,,,,,,,,,,,615f87082ac0e636b68e06af,2021-10-21_15h13.54.085,arrow_simon_punish,2021.1.2,Win32,59.94485074,,,,p,2.1618,5,0,5,0,1,,,,,,,,,,,,,,,,,,,,,,,,,,,,
,,,,,,,,,,,,,,,615f87082ac0e636b68e06af,2021-10-21_15h13.54.085,arrow_simon_punish,2021.1.2,Win32,59.94485074,,,,p,2.3909,6,0,6,0,1,,,,,,,,,,,,,,,,,,,,,,,,,,,,
,,,,,,,,,,,,,,,615f87082ac0e636b68e06af,2021-10-21_15h13.54.085,arrow_simon_punish,2021.1.2,Win32,59.94485074,,,,p,2.5128,7,0,7,0,1,,,,,,,,,,,,,,,,,,,,,,,,,,,,
,,,,,,,,,,,,,,,615f87082ac0e636b68e06af,2021-10-21_15h13.54.085,arrow_simon_punish,2021.1.2,Win32,59.94485074,,,,p,2.6264,8,0,8,0,1,,,,,,,,,,,,,,,,,,,,,,,,,,,,
,,,,,,,,,,,,,,,615f87082ac0e636b68e06af,2021-10-21_15h13.54.085,arrow_simon_punish,2021.1.2,Win32,59.94485074,,,,p,2.5192,9,0,9,0,1,,,,,,,,,,,,,,,,,,,,,,,,,,,,
,,,,,,,,,,,,,,,615f87082ac0e636b68e06af,2021-10-21_15h13.54.085,arrow_simon_punish,2021.1.2,Win32,59.94485074,,,,p,2.5226,10,0,10,0,1,,,,,,,,,,,,,,,,,,,,,,,,,,,,
,,,,,,,,,,,,,,,615f87082ac0e636b68e06af,2021-10-21_15h13.54.085,arrow_simon_punish,2021.1.2,Win32,59.94485074,,,,w,2.4416,11,0,11,0,1,,,,,,,,,,,,,,,,,,,,,,,,,,,,
,,,,,,,,,,,,,,,615f87082ac0e636b68e06af,2021-10-21_15h13.54.085,arrow_simon_punish,2021.1.2,Win32,59.94485074,,,,p,2.55,12,0,12,0,1,,,,,,,,,,,,,,,,,,,,,,,,,,,,
,,,,,,,,,,,,,,,615f87082ac0e636b68e06af,2021-10-21_15h13.54.085,arrow_simon_punish,2021.1.2,Win32,59.94485074,,,,w,2.6078,13,0,13,0,1,,,,,,,,,,,,,,,,,,,,,,,,,,,,
,,,,,,,,,,,,,,,615f87082ac0e636b68e06af,2021-10-21_15h13.54.085,arrow_simon_punish,2021.1.2,Win32,59.94485074,,,,w,2.5976,14,0,14,0,1,,,,,,,,,,,,,,,,,,,,,,,,,,,,
,,,,,,,,,,,,,,,615f87082ac0e636b68e06af,2021-10-21_15h13.54.085,arrow_simon_punish,2021.1.2,Win32,59.94485074,,,,p,2.6862,15,0,15,0,1,,,,,,,,,,,,,,,,,,,,,,,,,,,,
,,,,,,,,,,,,,,,615f87082ac0e636b68e06af,2021-10-21_15h13.54.085,arrow_simon_punish,2021.1.2,Win32,59.94485074,,,,w,2.5022,16,0,16,0,1,,,,,,,,,,,,,,,,,,,,,,,,,,,,
,,,,,,,,,,,,,,,615f87082ac0e636b68e06af,2021-10-21_15h13.54.085,arrow_simon_punish,2021.1.2,Win32,59.94485074,,,,p,2.5814,17,0,17,0,1,,,,,,,,,,,,,,,,,,,,,,,,,,,,
,,,,,,,,,,,,,,,615f87082ac0e636b68e06af,2021-10-21_15h13.54.085,arrow_simon_punish,2021.1.2,Win32,59.94485074,,,,w,2.5557,18,0,18,0,1,,,,,,,,,,,,,,,,,,,,,,,,,,,,
,,,,,,,,,,,,,,,615f87082ac0e636b68e06af,2021-10-21_15h13.54.085,arrow_simon_punish,2021.1.2,Win32,59.94485074,,,,p,2.5238,19,0,19,0,1,,,,,,,,,,,,,,,,,,,,,,,,,,,,
,,,,,,,,,,,,,,,615f87082ac0e636b68e06af,2021-10-21_15h13.54.085,arrow_simon_punish,2021.1.2,Win32,59.94485074,,,,p,2.6992,20,0,20,0,1,,,,,,,,,,,,,,,,,,,,,,,,,,,,
,,,,,,,,,,,,,,,615f87082ac0e636b68e06af,2021-10-21_15h13.54.085,arrow_simon_punish,2021.1.2,Win32,59.94485074,,,,p,2.5902,21,0,21,0,1,,,,,,,,,,,,,,,,,,,,,,,,,,,,
,,,,,,,,,,,,,,,615f87082ac0e636b68e06af,2021-10-21_15h13.54.085,arrow_simon_punish,2021.1.2,Win32,59.94485074,,,,p,2.5398,22,0,22,0,1,,,,,,,,,,,,,,,,,,,,,,,,,,,,
,,,,,,,,,,,,,,,615f87082ac0e636b68e06af,2021-10-21_15h13.54.085,arrow_simon_punish,2021.1.2,Win32,59.94485074,,,,w,2.5816,23,0,23,0,1,,,,,,,,,,,,,,,,,,,,,,,,,,,,
,,,,,,,,,,,,,,,615f87082ac0e636b68e06af,2021-10-21_15h13.54.085,arrow_simon_punish,2021.1.2,Win32,59.94485074,,,,p,2.5358,24,0,24,0,1,,,,,,,,,,,,,,,,,,,,,,,,,,,,
,,,,,,,,,,,,,,,615f87082ac0e636b68e06af,2021-10-21_15h13.54.085,arrow_simon_punish,2021.1.2,Win32,59.94485074,,,,w,2.5237,25,0,25,0,1,,,,,,,,,,,,,,,,,,,,,,,,,,,,
,,,,,,,,,,,,,,,615f87082ac0e636b68e06af,2021-10-21_15h13.54.085,arrow_simon_punish,2021.1.2,Win32,59.94485074,,,,p,2.4945,26,0,26,0,1,,,,,,,,,,,,,,,,,,,,,,,,,,,,
,,,,,,,,,,,,,,,615f87082ac0e636b68e06af,2021-10-21_15h13.54.085,arrow_simon_punish,2021.1.2,Win32,59.94485074,,,,p,2.6214,27,0,27,0,1,,,,,,,,,,,,,,,,,,,,,,,,,,,,
,,,,,,,,,,,,,,,615f87082ac0e636b68e06af,2021-10-21_15h13.54.085,arrow_simon_punish,2021.1.2,Win32,59.94485074,,,,p,2.7325,28,0,28,0,1,,,,,,,,,,,,,,,,,,,,,,,,,,,,
,,,,,,,,,,,,,,,615f87082ac0e636b68e06af,2021-10-21_15h13.54.085,arrow_simon_punish,2021.1.2,Win32,59.94485074,,,,p,2.6027,29,0,29,0,1,,,,,,,,,,,,,,,,,,,,,,,,,,,,
,,,,,,,,,,,,,,,615f87082ac0e636b68e06af,2021-10-21_15h13.54.085,arrow_simon_punish,2021.1.2,Win32,59.94485074,,,,p,2.4888,30,0,30,0,1,,,,,,,,,,,,,,,,,,,,,,,,,,,,
,,,,,,,,,,,,,,,615f87082ac0e636b68e06af,2021-10-21_15h13.54.085,arrow_simon_punish,2021.1.2,Win32,59.94485074,,,,w,2.5141,31,0,31,0,1,,,,,,,,,,,,,,,,,,,,,,,,,,,,
,,,,,,,,,,,,,,,615f87082ac0e636b68e06af,2021-10-21_15h13.54.085,arrow_simon_punish,2021.1.2,Win32,59.94485074,,,,w,2.4748,32,0,32,0,1,,,,,,,,,,,,,,,,,,,,,,,,,,,,
,,,,,,,,,,,,,,,615f87082ac0e636b68e06af,2021-10-21_15h13.54.085,arrow_simon_punish,2021.1.2,Win32,59.94485074,,,,w,2.555,33,0,33,0,1,,,,,,,,,,,,,,,,,,,,,,,,,,,,
,,,,,,,,,,,,,,,615f87082ac0e636b68e06af,2021-10-21_15h13.54.085,arrow_simon_punish,2021.1.2,Win32,59.94485074,,,,w,2.4971,34,0,34,0,1,,,,,,,,,,,,,,,,,,,,,,,,,,,,
,,,,,,,,,,,,,,,615f87082ac0e636b68e06af,2021-10-21_15h13.54.085,arrow_simon_punish,2021.1.2,Win32,59.94485074,,,,w,2.6706,35,0,35,0,1,,,,,,,,,,,,,,,,,,,,,,,,,,,,
,,,,,,,,,,,,,,,615f87082ac0e636b68e06af,2021-10-21_15h13.54.085,arrow_simon_punish,2021.1.2,Win32,59.94485074,,,,w,2.6385,36,0,36,0,1,,,,,,,,,,,,,,,,,,,,,,,,,,,,
,,,,,,,,,,,,,,,615f87082ac0e636b68e06af,2021-10-21_15h13.54.085,arrow_simon_punish,2021.1.2,Win32,59.94485074,,,,w,2.4497,37,0,37,0,1,,,,,,,,,,,,,,,,,,,,,,,,,,,,
,,,,,,,,,,,,,,,615f87082ac0e636b68e06af,2021-10-21_15h13.54.085,arrow_simon_punish,2021.1.2,Win32,59.94485074,,,,w,2.4418,38,0,38,0,1,,,,,,,,,,,,,,,,,,,,,,,,,,,,
,,,,,,,,,,,,,,,615f87082ac0e636b68e06af,2021-10-21_15h13.54.085,arrow_simon_punish,2021.1.2,Win32,59.94485074,,,,w,2.4952,39,0,39,0,1,,,,,,,,,,,,,,,,,,,,,,,,,,,,
,,,,,,,,,,,,,,,615f87082ac0e636b68e06af,2021-10-21_15h13.54.085,arrow_simon_punish,2021.1.2,Win32,59.94485074,,,,w,2.6995,40,0,40,0,1,,,,,,,,,,,,,,,,,,,,,,,,,,,,
,,,,,,,,,,,,,,,615f87082ac0e636b68e06af,2021-10-21_15h13.54.085,arrow_simon_punish,2021.1.2,Win32,59.94485074,,,,w,2.3627,41,0,41,0,1,,,,,,,,,,,,,,,,,,,,,,,,,,,,
,,,,,,,,,,,,,,,615f87082ac0e636b68e06af,2021-10-21_15h13.54.085,arrow_simon_punish,2021.1.2,Win32,59.94485074,,,,w,2.3885,42,0,42,0,1,,,,,,,,,,,,,,,,,,,,,,,,,,,,
,,,,,,,,,,,,,,,615f87082ac0e636b68e06af,2021-10-21_15h13.54.085,arrow_simon_punish,2021.1.2,Win32,59.94485074,,,,w,2.4912,43,0,43,0,1,,,,,,,,,,,,,,,,,,,,,,,,,,,,
,,,,,,,,,,,,,,,615f87082ac0e636b68e06af,2021-10-21_15h13.54.085,arrow_simon_punish,2021.1.2,Win32,59.94485074,,,,p,2.5192,44,0,44,0,1,,,,,,,,,,,,,,,,,,,,,,,,,,,,
,,,,,,,,,,,,,,,615f87082ac0e636b68e06af,2021-10-21_15h13.54.085,arrow_simon_punish,2021.1.2,Win32,59.94485074,,,,p,2.5194,45,0,45,0,1,,,,,,,,,,,,,,,,,,,,,,,,,,,,
,,,,,,,,,,,,,,,615f87082ac0e636b68e06af,2021-10-21_15h13.54.085,arrow_simon_punish,2021.1.2,Win32,59.94485074,,,,p,2.5192,46,0,46,0,1,,,,,,,,,,,,,,,,,,,,,,,,,,,,
,,,,,,,,,,,,,,,615f87082ac0e636b68e06af,2021-10-21_15h13.54.085,arrow_simon_punish,2021.1.2,Win32,59.94485074,,,,w,2.5502,47,0,47,0,1,,,,,,,,,,,,,,,,,,,,,,,,,,,,
,,,,,,,,,,,,,,,615f87082ac0e636b68e06af,2021-10-21_15h13.54.085,arrow_simon_punish,2021.1.2,Win32,59.94485074,,,,w,2.6226,48,0,48,0,1,,,,,,,,,,,,,,,,,,,,,,,,,,,,
,,,,,,,,,,,,,,,615f87082ac0e636b68e06af,2021-10-21_15h13.54.085,arrow_simon_punish,2021.1.2,Win32,59.94485074,,,,w,2.4714,49,0,49,0,1,,,,,,,,,,,,,,,,,,,,,,,,,,,,
,,,,,,,,,,,,,,,615f87082ac0e636b68e06af,2021-10-21_15h13.54.085,arrow_simon_punish,2021.1.2,Win32,59.94485074,,,,w,2.496,50,0,50,0,1,,,,,,,,,,,,,,,,,,,,,,,,,,,,
,,,,,,,,,,,,,,,615f87082ac0e636b68e06af,2021-10-21_15h13.54.085,arrow_simon_punish,2021.1.2,Win32,59.94485074,,,,w,2.3829,51,0,51,0,1,,,,,,,,,,,,,,,,,,,,,,,,,,,,
,,,,,,,,,,,,,,,615f87082ac0e636b68e06af,2021-10-21_15h13.54.085,arrow_simon_punish,2021.1.2,Win32,59.94485074,,,,w,2.4255,52,0,52,0,1,,,,,,,,,,,,,,,,,,,,,,,,,,,,
,,,,,,,,,,,,,,,615f87082ac0e636b68e06af,2021-10-21_15h13.54.085,arrow_simon_punish,2021.1.2,Win32,59.94485074,,,,w,2.5859,53,0,53,0,1,,,,,,,,,,,,,,,,,,,,,,,,,,,,
,,,,,,,,,,,,,,,615f87082ac0e636b68e06af,2021-10-21_15h13.54.085,arrow_simon_punish,2021.1.2,Win32,59.94485074,,,,w,2.3541,54,0,54,0,1,,,,,,,,,,,,,,,,,,,,,,,,,,,,
,,,,,,,,,,,,,,,615f87082ac0e636b68e06af,2021-10-21_15h13.54.085,arrow_simon_punish,2021.1.2,Win32,59.94485074,,,,w,2.5179,55,0,55,0,1,,,,,,,,,,,,,,,,,,,,,,,,,,,,
,,,,,,,,,,,,,,,615f87082ac0e636b68e06af,2021-10-21_15h13.54.085,arrow_simon_punish,2021.1.2,Win32,59.94485074,,,,w,2.5052,56,0,56,0,1,,,,,,,,,,,,,,,,,,,,,,,,,,,,
,,,,,,,,,,,,,,,615f87082ac0e636b68e06af,2021-10-21_15h13.54.085,arrow_simon_punish,2021.1.2,Win32,59.94485074,,,,w,2.4212,57,0,57,0,1,,,,,,,,,,,,,,,,,,,,,,,,,,,,
,,,,,,,,,,,,,,,615f87082ac0e636b68e06af,2021-10-21_15h13.54.085,arrow_simon_punish,2021.1.2,Win32,59.94485074,,,,w,2.5089,58,0,58,0,1,,,,,,,,,,,,,,,,,,,,,,,,,,,,
,,,,,,,,,,,,,,,615f87082ac0e636b68e06af,2021-10-21_15h13.54.085,arrow_simon_punish,2021.1.2,Win32,59.94485074,,,,w,2.4784,59,0,59,0,1,,,,,,,,,,,,,,,,,,,,,,,,,,,,
,,,,,,,,,,,right.png,,p,right,615f87082ac0e636b68e06af,2021-10-21_15h13.54.085,arrow_simon_punish,2021.1.2,Win32,59.94485074,,,,,,,,,,,space,0,70.3482,w,0,0.6721,1.815977543,1,1,0,0,0,1,1,,,,,,,,,,,,,,
,,,,,,,,,,,left.png,,w,left,615f87082ac0e636b68e06af,2021-10-21_15h13.54.085,arrow_simon_punish,2021.1.2,Win32,59.94485074,,,,,,,,,,,,,,w,1,0.7597,2.497786151,1,1,0,1,1,2,1,,,,,,,,,,,,,,
,,,,,,,,,,,right.png,,p,left,615f87082ac0e636b68e06af,2021-10-21_15h13.54.085,arrow_simon_punish,2021.1.2,Win32,59.94485074,,,,,,,,,,,,,,p,1,0.7098,1.664187894,1,1,0,2,2,0,1,,,,,,,,,,,,,,
,,,,,,,,,,,right.png,,p,right,615f87082ac0e636b68e06af,2021-10-21_15h13.54.085,arrow_simon_punish,2021.1.2,Win32,59.94485074,,,,,,,,,,,,,,p,1,1.3106,2.048783631,1,1,0,3,3,1,1,,,,,,,,,,,,,,
,,,,,,,,,,,left.png,,w,right,615f87082ac0e636b68e06af,2021-10-21_15h13.54.085,arrow_simon_punish,2021.1.2,Win32,59.94485074,,,,,,,,,,,,,,w,1,0.9865,2.033865514,1,1,1,0,4,3,1,,,,,,,,,,,,,,
,,,,,,,,,,,right.png,,p,right,615f87082ac0e636b68e06af,2021-10-21_15h13.54.085,arrow_simon_punish,2021.1.2,Win32,59.94485074,,,,,,,,,,,,,,p,1,1.0297,1.744928177,1,1,1,1,5,1,1,,,,,,,,,,,,,,
,,,,,,,,,,,left.png,,w,right,615f87082ac0e636b68e06af,2021-10-21_15h13.54.085,arrow_simon_punish,2021.1.2,Win32,59.94485074,,,,,,,,,,,,,,w,1,1.4275,2.462662978,0,1,1,2,6,3,1,,,,,,,,,,,,,,
,,,,,,,,,,,left.png,,w,left,615f87082ac0e636b68e06af,2021-10-21_15h13.54.085,arrow_simon_punish,2021.1.2,Win32,59.94485074,,,,,,,,,,,,,,w,1,1.4998,2.24032773,0,1,1,3,7,2,1,,,,,,,,,,,,,,
,,,,,,,,,,,right.png,,p,right,615f87082ac0e636b68e06af,2021-10-21_15h13.54.085,arrow_simon_punish,2021.1.2,Win32,59.94485074,,,,,,,,,,,,,,p,1,1.4802,2.37207521,0,1,2,0,8,1,1,,,,,,,,,,,,,,
,,,,,,,,,,,right.png,,p,left,615f87082ac0e636b68e06af,2021-10-21_15h13.54.085,arrow_simon_punish,2021.1.2,Win32,59.94485074,,,,,,,,,,,,,,p,1,1.4597,2.39970348,0,1,2,1,9,0,1,,,,,,,,,,,,,,
,,,,,,,,,,,left.png,,w,left,615f87082ac0e636b68e06af,2021-10-21_15h13.54.085,arrow_simon_punish,2021.1.2,Win32,59.94485074,,,,,,,,,,,,,,w,1,1.1365,2.243818633,1,1,2,2,10,2,1,,,,,,,,,,,,,,
,,,,,,,,,,,left.png,,w,right,615f87082ac0e636b68e06af,2021-10-21_15h13.54.085,arrow_simon_punish,2021.1.2,Win32,59.94485074,,,,,,,,,,,,,,w,1,1.1615,2.138348335,1,1,2,3,11,3,1,,,,,,,,,,,,,,
,,,,,,,,,,,left.png,,w,left,615f87082ac0e636b68e06af,2021-10-21_15h13.54.085,arrow_simon_punish,2021.1.2,Win32,59.94485074,,,,,,,,,,,,,,w,1,0.7967,1.632649105,1,1,3,0,12,2,1,,,,,,,,,,,,,,
,,,,,,,,,,,left.png,,w,right,615f87082ac0e636b68e06af,2021-10-21_15h13.54.085,arrow_simon_punish,2021.1.2,Win32,59.94485074,,,,,,,,,,,,,,w,1,1.6386,2.498180541,1,1,3,1,13,3,1,,,,,,,,,,,,,,
,,,,,,,,,,,right.png,,p,left,615f87082ac0e636b68e06af,2021-10-21_15h13.54.085,arrow_simon_punish,2021.1.2,Win32,59.94485074,,,,,,,,,,,,,,p,1,1.469,2.18342648,0,1,3,2,14,0,1,,,,,,,,,,,,,,
,,,,,,,,,,,left.png,,w,right,615f87082ac0e636b68e06af,2021-10-21_15h13.54.085,arrow_simon_punish,2021.1.2,Win32,59.94485074,,,,,,,,,,,,,,w,1,0.9435,1.841476102,1,1,3,3,15,3,1,,,,,,,,,,,,,,
,,,,,,,,,,,left.png,,w,left,615f87082ac0e636b68e06af,2021-10-21_15h13.54.085,arrow_simon_punish,2021.1.2,Win32,59.94485074,,,,,,,,,,,,,,w,1,1.4852,2.0543982,0,1,4,0,16,2,1,,,,,,,,,,,,,,
,,,,,,,,,,,left.png,,w,left,615f87082ac0e636b68e06af,2021-10-21_15h13.54.085,arrow_simon_punish,2021.1.2,Win32,59.94485074,,,,,,,,,,,,,,w,1,1.4019,1.729320837,0,1,4,1,17,2,1,,,,,,,,,,,,,,
,,,,,,,,,,,left.png,,w,left,615f87082ac0e636b68e06af,2021-10-21_15h13.54.085,arrow_simon_punish,2021.1.2,Win32,59.94485074,,,,,,,,,,,,,,w,1,1.3334,1.773705071,1,1,4,2,18,2,1,,,,,,,,,,,,,,
,,,,,,,,,,,right.png,,p,right,615f87082ac0e636b68e06af,2021-10-21_15h13.54.085,arrow_simon_punish,2021.1.2,Win32,59.94485074,,,,,,,,,,,,,,p,1,1.3681,1.75294505,1,1,4,3,19,1,1,,,,,,,,,,,,,,
,,,,,,,,,,,right.png,,p,left,615f87082ac0e636b68e06af,2021-10-21_15h13.54.085,arrow_simon_punish,2021.1.2,Win32,59.94485074,,,,,,,,,,,,,,p,1,1.5375,1.777120949,0,1,5,0,20,0,1,,,,,,,,,,,,,,
,,,,,,,,,,,left.png,,w,right,615f87082ac0e636b68e06af,2021-10-21_15h13.54.085,arrow_simon_punish,2021.1.2,Win32,59.94485074,,,,,,,,,,,,,,w,1,1.3283,1.501402098,1,1,5,1,21,3,1,,,,,,,,,,,,,,
,,,,,,,,,,,left.png,,w,left,615f87082ac0e636b68e06af,2021-10-21_15h13.54.085,arrow_simon_punish,2021.1.2,Win32,59.94485074,,,,,,,,,,,,,,w,1,1.5002,2.245893033,0,1,5,2,22,2,1,,,,,,,,,,,,,,
,,,,,,,,,,,left.png,,w,left,615f87082ac0e636b68e06af,2021-10-21_15h13.54.085,arrow_simon_punish,2021.1.2,Win32,59.94485074,,,,,,,,,,,,,,w,1,1.468,1.925665262,0,1,5,3,23,2,1,,,,,,,,,,,,,,
,,,,,,,,,,,left.png,,w,right,615f87082ac0e636b68e06af,2021-10-21_15h13.54.085,arrow_simon_punish,2021.1.2,Win32,59.94485074,,,,,,,,,,,,,,w,1,1.3505,1.720524403,1,1,6,0,24,3,1,,,,,,,,,,,,,,
,,,,,,,,,,,right.png,,p,left,615f87082ac0e636b68e06af,2021-10-21_15h13.54.085,arrow_simon_punish,2021.1.2,Win32,59.94485074,,,,,,,,,,,,,,p,1,1.4517,1.932062776,0,1,6,1,25,0,1,,,,,,,,,,,,,,
,,,,,,,,,,,left.png,,w,right,615f87082ac0e636b68e06af,2021-10-21_15h13.54.085,arrow_simon_punish,2021.1.2,Win32,59.94485074,,,,,,,,,,,,,,w,1,1.3927,1.921443308,1,1,6,2,26,3,1,,,,,,,,,,,,,,
,,,,,,,,,,,right.png,,p,left,615f87082ac0e636b68e06af,2021-10-21_15h13.54.085,arrow_simon_punish,2021.1.2,Win32,59.94485074,,,,,,,,,,,,,,p,1,1.5227,2.097432728,0,1,6,3,27,0,1,,,,,,,,,,,,,,
,,,,,,,,,,,right.png,,p,right,615f87082ac0e636b68e06af,2021-10-21_15h13.54.085,arrow_simon_punish,2021.1.2,Win32,59.94485074,,,,,,,,,,,,,,p,1,1.435,1.551036671,0,1,7,0,28,1,1,,,,,,,,,,,,,,
,,,,,,,,,,,left.png,,w,left,615f87082ac0e636b68e06af,2021-10-21_15h13.54.085,arrow_simon_punish,2021.1.2,Win32,59.94485074,,,,,,,,,,,,,,w,1,1.3535,1.938486349,1,1,7,1,29,2,1,,,,,,,,,,,,,,
,,,,,,,,,,,right.png,,p,right,615f87082ac0e636b68e06af,2021-10-21_15h13.54.085,arrow_simon_punish,2021.1.2,Win32,59.94485074,,,,,,,,,,,,,,p,1,1.3683,1.740354545,1,1,7,2,30,1,1,,,,,,,,,,,,,,
,,,,,,,,,,,left.png,,w,right,615f87082ac0e636b68e06af,2021-10-21_15h13.54.085,arrow_simon_punish,2021.1.2,Win32,59.94485074,,,,,,,,,,,,,,w,1,1.3527,1.750760784,1,1,7,3,31,3,1,,,,,,,,,,,,,,
,,,,,,,,,,,right.png,,p,right,615f87082ac0e636b68e06af,2021-10-21_15h13.54.085,arrow_simon_punish,2021.1.2,Win32,59.94485074,,,,,,,,,,,,,,p,1,1.4525,1.923978682,0,1,8,0,32,1,1,,,,,,,,,,,,,,
,,,,,,,,,,,left.png,,w,right,615f87082ac0e636b68e06af,2021-10-21_15h13.54.085,arrow_simon_punish,2021.1.2,Win32,59.94485074,,,,,,,,,,,,,,w,1,1.4237,1.671315056,0,1,8,1,33,3,1,,,,,,,,,,,,,,
,,,,,,,,,,,right.png,,p,right,615f87082ac0e636b68e06af,2021-10-21_15h13.54.085,arrow_simon_punish,2021.1.2,Win32,59.94485074,,,,,,,,,,,,,,p,1,1.4181,2.109791327,0,1,8,2,34,1,1,,,,,,,,,,,,,,
,,,,,,,,,,,right.png,,p,right,615f87082ac0e636b68e06af,2021-10-21_15h13.54.085,arrow_simon_punish,2021.1.2,Win32,59.94485074,,,,,,,,,,,,,,p,1,1.5883,1.910159533,0,1,8,3,35,1,1,,,,,,,,,,,,,,
,,,,,,,,,,,left.png,,w,left,615f87082ac0e636b68e06af,2021-10-21_15h13.54.085,arrow_simon_punish,2021.1.2,Win32,59.94485074,,,,,,,,,,,,,,w,1,1.7165,2.219635162,1,1,9,0,36,2,1,,,,,,,,,,,,,,
,,,,,,,,,,,right.png,,p,right,615f87082ac0e636b68e06af,2021-10-21_15h13.54.085,arrow_simon_punish,2021.1.2,Win32,59.94485074,,,,,,,,,,,,,,p,1,1.55,2.019921065,0,1,9,1,37,1,1,,,,,,,,,,,,,,
,,,,,,,,,,,right.png,,p,left,615f87082ac0e636b68e06af,2021-10-21_15h13.54.085,arrow_simon_punish,2021.1.2,Win32,59.94485074,,,,,,,,,,,,,,p,1,1.5621,1.886901759,0,1,9,2,38,0,1,,,,,,,,,,,,,,
,,,,,,,,,,,left.png,,w,right,615f87082ac0e636b68e06af,2021-10-21_15h13.54.085,arrow_simon_punish,2021.1.2,Win32,59.94485074,,,,,,,,,,,,,,w,1,1.4727,1.737607118,0,1,9,3,39,3,1,,,,,,,,,,,,,,
,,,,,,,,,,,right.png,,p,left,615f87082ac0e636b68e06af,2021-10-21_15h13.54.085,arrow_simon_punish,2021.1.2,Win32,59.94485074,,,,,,,,,,,,,,p,1,1.5784,2.312679127,0,1,10,0,40,0,1,,,,,,,,,,,,,,
,,,,,,,,,,,right.png,,p,right,615f87082ac0e636b68e06af,2021-10-21_15h13.54.085,arrow_simon_punish,2021.1.2,Win32,59.94485074,,,,,,,,,,,,,,p,1,1.4605,1.76116515,0,1,10,1,41,1,1,,,,,,,,,,,,,,
,,,,,,,,,,,right.png,,p,right,615f87082ac0e636b68e06af,2021-10-21_15h13.54.085,arrow_simon_punish,2021.1.2,Win32,59.94485074,,,,,,,,,,,,,,p,1,1.5227,1.535060351,0,1,10,2,42,1,1,,,,,,,,,,,,,,
,,,,,,,,,,,right.png,,p,right,615f87082ac0e636b68e06af,2021-10-21_15h13.54.085,arrow_simon_punish,2021.1.2,Win32,59.94485074,,,,,,,,,,,,,,p,1,1.6477,2.339085853,1,1,10,3,43,1,1,,,,,,,,,,,,,,
,,,,,,,,,,,right.png,,p,left,615f87082ac0e636b68e06af,2021-10-21_15h13.54.085,arrow_simon_punish,2021.1.2,Win32,59.94485074,,,,,,,,,,,,,,p,1,1.682,2.303331005,1,1,11,0,44,0,1,,,,,,,,,,,,,,
,,,,,,,,,,,right.png,,p,left,615f87082ac0e636b68e06af,2021-10-21_15h13.54.085,arrow_simon_punish,2021.1.2,Win32,59.94485074,,,,,,,,,,,,,,p,1,1.4103,1.80084356,0,1,11,1,45,0,1,,,,,,,,,,,,,,
,,,,,,,,,,,right.png,,p,left,615f87082ac0e636b68e06af,2021-10-21_15h13.54.085,arrow_simon_punish,2021.1.2,Win32,59.94485074,,,,,,,,,,,,,,p,1,1.4302,1.82497923,0,1,11,2,46,0,1,,,,,,,,,,,,,,
,,,,,,,,,,,right.png,,p,right,615f87082ac0e636b68e06af,2021-10-21_15h13.54.085,arrow_simon_punish,2021.1.2,Win32,59.94485074,,,,,,,,,,,,,,p,1,1.6436,2.487219154,1,1,11,3,47,1,1,,,,,,,,,,,,,,
,,,,,,,,,,,right.png,,p,left,615f87082ac0e636b68e06af,2021-10-21_15h13.54.085,arrow_simon_punish,2021.1.2,Win32,59.94485074,,,,,,,,,,,,,,p,1,1.5401,1.859514831,0,1,12,0,48,0,1,,,,,,,,,,,,,,
,,,,,,,,,,,right.png,,p,left,615f87082ac0e636b68e06af,2021-10-21_15h13.54.085,arrow_simon_punish,2021.1.2,Win32,59.94485074,,,,,,,,,,,,,,p,1,1.7175,2.162520478,1,1,12,1,49,0,1,,,,,,,,,,,,,,
,,,,,,,,,,,right.png,,p,left,615f87082ac0e636b68e06af,2021-10-21_15h13.54.085,arrow_simon_punish,2021.1.2,Win32,59.94485074,,,,,,,,,,,,,,p,1,1.4652,1.514696295,0,1,12,2,50,0,1,,,,,,,,,,,,,,
,,,,,,,,,,,left.png,,w,right,615f87082ac0e636b68e06af,2021-10-21_15h13.54.085,arrow_simon_punish,2021.1.2,Win32,59.94485074,,,,,,,,,,,,,,p,0,1.5884,2.430688965,1,1,12,3,51,3,1,,,,,,,,,,,,,,
,,,,,,,,,,,left.png,,w,right,615f87082ac0e636b68e06af,2021-10-21_15h13.54.085,arrow_simon_punish,2021.1.2,Win32,59.94485074,,,,,,,,,,,,,,w,1,1.7745,2.41768161,1,1,13,0,52,3,1,,,,,,,,,,,,,,
,,,,,,,,,,,left.png,,w,left,615f87082ac0e636b68e06af,2021-10-21_15h13.54.085,arrow_simon_punish,2021.1.2,Win32,59.94485074,,,,,,,,,,,,,,w,1,1.743,2.477056705,1,1,13,1,53,2,1,,,,,,,,,,,,,,
,,,,,,,,,,,left.png,,w,right,615f87082ac0e636b68e06af,2021-10-21_15h13.54.085,arrow_simon_punish,2021.1.2,Win32,59.94485074,,,,,,,,,,,,,,w,1,1.4046,1.769792157,0,1,13,2,54,3,1,,,,,,,,,,,,,,
,,,,,,,,,,,left.png,,w,right,615f87082ac0e636b68e06af,2021-10-21_15h13.54.085,arrow_simon_punish,2021.1.2,Win32,59.94485074,,,,,,,,,,,,,,w,1,1.437,2.333948085,0,1,13,3,55,3,1,,,,,,,,,,,,,,
,,,,,,,,,,,right.png,,p,left,615f87082ac0e636b68e06af,2021-10-21_15h13.54.085,arrow_simon_punish,2021.1.2,Win32,59.94485074,,,,,,,,,,,,,,p,1,1.7607,2.3301251,1,1,14,0,56,0,1,,,,,,,,,,,,,,
,,,,,,,,,,,left.png,,w,left,615f87082ac0e636b68e06af,2021-10-21_15h13.54.085,arrow_simon_punish,2021.1.2,Win32,59.94485074,,,,,,,,,,,,,,w,1,1.9185,2.207834778,1,1,14,1,57,2,1,,,,,,,,,,,,,,
,,,,,,,,,,,left.png,,w,left,615f87082ac0e636b68e06af,2021-10-21_15h13.54.085,arrow_simon_punish,2021.1.2,Win32,59.94485074,,,,,,,,,,,,,,w,1,1.6231,2.315423416,1,1,14,2,58,2,1,,,,,,,,,,,,,,
,,,,,,,,,,,left.png,,w,left,615f87082ac0e636b68e06af,2021-10-21_15h13.54.085,arrow_simon_punish,2021.1.2,Win32,59.94485074,,,,,,,,,,,,,,w,1,1.5208,2.101154984,0,1,14,3,59,2,1,,,,,,,,,,,,,,
,,,,,,,,,,,,,,,615f87082ac0e636b68e06af,2021-10-21_15h13.54.085,arrow_simon_punish,2021.1.2,Win32,59.94485074,,,,,,,,,,,,,,,,,,,,,,,,,space,48.7147,2,0,0,0,0,1,1,,,,,
,,,,,,,,,,,left.png,,w,right,615f87082ac0e636b68e06af,2021-10-21_15h13.54.085,arrow_simon_punish,2021.1.2,Win32,59.94485074,,,,,,,,,,,,,,w,1,1.7317,2.494109276,1,5,0,0,0,3,1,,,,,,,,,,,,,,
,,,,,,,,,,,left.png,,w,left,615f87082ac0e636b68e06af,2021-10-21_15h13.54.085,arrow_simon_punish,2021.1.2,Win32,59.94485074,,,,,,,,,,,,,,w,1,1.2368,1.747797368,1,5,0,1,1,2,1,,,,,,,,,,,,,,
,,,,,,,,,,,right.png,,p,left,615f87082ac0e636b68e06af,2021-10-21_15h13.54.085,arrow_simon_punish,2021.1.2,Win32,59.94485074,,,,,,,,,,,,,,p,1,1.4015,1.635266008,0,5,0,2,2,0,1,,,,,,,,,,,,,,
,,,,,,,,,,,left.png,,w,right,615f87082ac0e636b68e06af,2021-10-21_15h13.54.085,arrow_simon_punish,2021.1.2,Win32,59.94485074,,,,,,,,,,,,,,w,1,1.4327,1.60197415,0,5,0,3,3,3,1,,,,,,,,,,,,,,
,,,,,,,,,,,right.png,,p,right,615f87082ac0e636b68e06af,2021-10-21_15h13.54.085,arrow_simon_punish,2021.1.2,Win32,59.94485074,,,,,,,,,,,,,,p,1,1.4956,2.292412425,0,5,1,0,4,1,1,,,,,,,,,,,,,,
,,,,,,,,,,,left.png,,w,right,615f87082ac0e636b68e06af,2021-10-21_15h13.54.085,arrow_simon_punish,2021.1.2,Win32,59.94485074,,,,,,,,,,,,,,w,1,1.4045,1.530234363,0,5,1,1,5,3,1,,,,,,,,,,,,,,
,,,,,,,,,,,right.png,,p,right,615f87082ac0e636b68e06af,2021-10-21_15h13.54.085,arrow_simon_punish,2021.1.2,Win32,59.94485074,,,,,,,,,,,,,,p,1,1.4104,1.779736836,0,5,1,2,6,1,1,,,,,,,,,,,,,,
,,,,,,,,,,,right.png,,p,right,615f87082ac0e636b68e06af,2021-10-21_15h13.54.085,arrow_simon_punish,2021.1.2,Win32,59.94485074,,,,,,,,,,,,,,p,1,1.509,2.106147888,0,5,1,3,7,1,1,,,,,,,,,,,,,,
,,,,,,,,,,,left.png,,w,right,615f87082ac0e636b68e06af,2021-10-21_15h13.54.085,arrow_simon_punish,2021.1.2,Win32,59.94485074,,,,,,,,,,,,,,w,1,1.4742,1.73002371,0,5,2,0,8,3,1,,,,,,,,,,,,,,
,,,,,,,,,,,left.png,,w,left,615f87082ac0e636b68e06af,2021-10-21_15h13.54.085,arrow_simon_punish,2021.1.2,Win32,59.94485074,,,,,,,,,,,,,,w,1,1.4263,1.945863142,0,5,2,1,9,2,1,,,,,,,,,,,,,,
,,,,,,,,,,,right.png,,p,right,615f87082ac0e636b68e06af,2021-10-21_15h13.54.085,arrow_simon_punish,2021.1.2,Win32,59.94485074,,,,,,,,,,,,,,p,1,1.4555,2.059756299,0,5,2,2,10,1,1,,,,,,,,,,,,,,
,,,,,,,,,,,left.png,,w,left,615f87082ac0e636b68e06af,2021-10-21_15h13.54.085,arrow_simon_punish,2021.1.2,Win32,59.94485074,,,,,,,,,,,,,,w,1,1.4013,1.713851391,0,5,2,3,11,2,1,,,,,,,,,,,,,,
,,,,,,,,,,,left.png,,w,right,615f87082ac0e636b68e06af,2021-10-21_15h13.54.085,arrow_simon_punish,2021.1.2,Win32,59.94485074,,,,,,,,,,,,,,w,1,1.4531,2.014038533,0,5,3,0,12,3,1,,,,,,,,,,,,,,
,,,,,,,,,,,right.png,,p,right,615f87082ac0e636b68e06af,2021-10-21_15h13.54.085,arrow_simon_punish,2021.1.2,Win32,59.94485074,,,,,,,,,,,,,,p,1,1.4302,1.898065744,0,5,3,1,13,1,1,,,,,,,,,,,,,,
,,,,,,,,,,,left.png,,w,left,615f87082ac0e636b68e06af,2021-10-21_15h13.54.085,arrow_simon_punish,2021.1.2,Win32,59.94485074,,,,,,,,,,,,,,w,1,1.5607,2.308194434,0,5,3,2,14,2,1,,,,,,,,,,,,,,
,,,,,,,,,,,right.png,,p,left,615f87082ac0e636b68e06af,2021-10-21_15h13.54.085,arrow_simon_punish,2021.1.2,Win32,59.94485074,,,,,,,,,,,,,,p,1,1.4832,2.339656418,0,5,3,3,15,0,1,,,,,,,,,,,,,,
,,,,,,,,,,,right.png,,p,left,615f87082ac0e636b68e06af,2021-10-21_15h13.54.085,arrow_simon_punish,2021.1.2,Win32,59.94485074,,,,,,,,,,,,,,p,1,1.4363,1.971819783,0,5,4,0,16,0,1,,,,,,,,,,,,,,
,,,,,,,,,,,left.png,,w,left,615f87082ac0e636b68e06af,2021-10-21_15h13.54.085,arrow_simon_punish,2021.1.2,Win32,59.94485074,,,,,,,,,,,,,,w,1,1.4145,2.066775943,0,5,4,1,17,2,1,,,,,,,,,,,,,,
,,,,,,,,,,,right.png,,p,left,615f87082ac0e636b68e06af,2021-10-21_15h13.54.085,arrow_simon_punish,2021.1.2,Win32,59.94485074,,,,,,,,,,,,,,p,1,1.3518,1.918351644,1,5,4,2,18,0,1,,,,,,,,,,,,,,
,,,,,,,,,,,left.png,,w,left,615f87082ac0e636b68e06af,2021-10-21_15h13.54.085,arrow_simon_punish,2021.1.2,Win32,59.94485074,,,,,,,,,,,,,,w,1,1.479,2.075611543,0,5,4,3,19,2,1,,,,,,,,,,,,,,
,,,,,,,,,,,left.png,,w,right,615f87082ac0e636b68e06af,2021-10-21_15h13.54.085,arrow_simon_punish,2021.1.2,Win32,59.94485074,,,,,,,,,,,,,,w,1,1.4406,1.738543187,0,5,5,0,20,3,1,,,,,,,,,,,,,,
,,,,,,,,,,,right.png,,p,left,615f87082ac0e636b68e06af,2021-10-21_15h13.54.085,arrow_simon_punish,2021.1.2,Win32,59.94485074,,,,,,,,,,,,,,p,1,1.5159,1.974088311,0,5,5,1,21,0,1,,,,,,,,,,,,,,
,,,,,,,,,,,right.png,,p,left,615f87082ac0e636b68e06af,2021-10-21_15h13.54.085,arrow_simon_punish,2021.1.2,Win32,59.94485074,,,,,,,,,,,,,,p,1,1.5685,1.750906036,0,5,5,2,22,0,1,,,,,,,,,,,,,,
,,,,,,,,,,,left.png,,w,left,615f87082ac0e636b68e06af,2021-10-21_15h13.54.085,arrow_simon_punish,2021.1.2,Win32,59.94485074,,,,,,,,,,,,,,w,1,1.395,1.537503688,1,5,5,3,23,2,1,,,,,,,,,,,,,,
,,,,,,,,,,,right.png,,p,left,615f87082ac0e636b68e06af,2021-10-21_15h13.54.085,arrow_simon_punish,2021.1.2,Win32,59.94485074,,,,,,,,,,,,,,p,1,1.4867,1.557467534,0,5,6,0,24,0,1,,,,,,,,,,,,,,
,,,,,,,,,,,right.png,,p,left,615f87082ac0e636b68e06af,2021-10-21_15h13.54.085,arrow_simon_punish,2021.1.2,Win32,59.94485074,,,,,,,,,,,,,,p,1,1.4472,1.610649558,0,5,6,1,25,0,1,,,,,,,,,,,,,,
,,,,,,,,,,,right.png,,p,right,615f87082ac0e636b68e06af,2021-10-21_15h13.54.085,arrow_simon_punish,2021.1.2,Win32,59.94485074,,,,,,,,,,,,,,p,1,1.5167,2.254418944,0,5,6,2,26,1,1,,,,,,,,,,,,,,
,,,,,,,,,,,left.png,,w,right,615f87082ac0e636b68e06af,2021-10-21_15h13.54.085,arrow_simon_punish,2021.1.2,Win32,59.94485074,,,,,,,,,,,,,,w,1,1.6715,1.830478335,1,5,6,3,27,3,1,,,,,,,,,,,,,,
,,,,,,,,,,,right.png,,p,right,615f87082ac0e636b68e06af,2021-10-21_15h13.54.085,arrow_simon_punish,2021.1.2,Win32,59.94485074,,,,,,,,,,,,,,p,1,1.6377,2.472497846,1,5,7,0,28,1,1,,,,,,,,,,,,,,
,,,,,,,,,,,right.png,,p,left,615f87082ac0e636b68e06af,2021-10-21_15h13.54.085,arrow_simon_punish,2021.1.2,Win32,59.94485074,,,,,,,,,,,,,,p,1,1.4133,1.669777217,0,5,7,1,29,0,1,,,,,,,,,,,,,,
,,,,,,,,,,,left.png,,w,right,615f87082ac0e636b68e06af,2021-10-21_15h13.54.085,arrow_simon_punish,2021.1.2,Win32,59.94485074,,,,,,,,,,,,,,w,1,1.349,1.592154804,1,5,7,2,30,3,1,,,,,,,,,,,,,,
,,,,,,,,,,,right.png,,p,right,615f87082ac0e636b68e06af,2021-10-21_15h13.54.085,arrow_simon_punish,2021.1.2,Win32,59.94485074,,,,,,,,,,,,,,p,1,1.6616,2.347828781,1,5,7,3,31,1,1,,,,,,,,,,,,,,
,,,,,,,,,,,right.png,,p,right,615f87082ac0e636b68e06af,2021-10-21_15h13.54.085,arrow_simon_punish,2021.1.2,Win32,59.94485074,,,,,,,,,,,,,,p,1,1.4887,2.116925815,0,5,8,0,32,1,1,,,,,,,,,,,,,,
,,,,,,,,,,,left.png,,w,left,615f87082ac0e636b68e06af,2021-10-21_15h13.54.085,arrow_simon_punish,2021.1.2,Win32,59.94485074,,,,,,,,,,,,,,w,1,1.3449,1.763628425,1,5,8,1,33,2,1,,,,,,,,,,,,,,
,,,,,,,,,,,right.png,,p,right,615f87082ac0e636b68e06af,2021-10-21_15h13.54.085,arrow_simon_punish,2021.1.2,Win32,59.94485074,,,,,,,,,,,,,,p,1,1.4095,2.243120992,0,5,8,2,34,1,1,,,,,,,,,,,,,,
,,,,,,,,,,,right.png,,p,right,615f87082ac0e636b68e06af,2021-10-21_15h13.54.085,arrow_simon_punish,2021.1.2,Win32,59.94485074,,,,,,,,,,,,,,p,1,1.343,2.130159204,1,5,8,3,35,1,1,,,,,,,,,,,,,,
,,,,,,,,,,,left.png,,w,right,615f87082ac0e636b68e06af,2021-10-21_15h13.54.085,arrow_simon_punish,2021.1.2,Win32,59.94485074,,,,,,,,,,,,,,w,1,1.4823,2.433300484,0,5,9,0,36,3,1,,,,,,,,,,,,,,
,,,,,,,,,,,right.png,,p,right,615f87082ac0e636b68e06af,2021-10-21_15h13.54.085,arrow_simon_punish,2021.1.2,Win32,59.94485074,,,,,,,,,,,,,,p,1,1.5868,2.381727502,0,5,9,1,37,1,1,,,,,,,,,,,,,,
,,,,,,,,,,,right.png,,p,left,615f87082ac0e636b68e06af,2021-10-21_15h13.54.085,arrow_simon_punish,2021.1.2,Win32,59.94485074,,,,,,,,,,,,,,p,1,1.4778,2.311577909,0,5,9,2,38,0,1,,,,,,,,,,,,,,
,,,,,,,,,,,left.png,,w,left,615f87082ac0e636b68e06af,2021-10-21_15h13.54.085,arrow_simon_punish,2021.1.2,Win32,59.94485074,,,,,,,,,,,,,,w,1,1.4642,1.560310767,0,5,9,3,39,2,1,,,,,,,,,,,,,,
,,,,,,,,,,,left.png,,w,left,615f87082ac0e636b68e06af,2021-10-21_15h13.54.085,arrow_simon_punish,2021.1.2,Win32,59.94485074,,,,,,,,,,,,,,w,1,1.5174,2.175850835,0,5,10,0,40,2,1,,,,,,,,,,,,,,
,,,,,,,,,,,left.png,,w,left,615f87082ac0e636b68e06af,2021-10-21_15h13.54.085,arrow_simon_punish,2021.1.2,Win32,59.94485074,,,,,,,,,,,,,,w,1,1.5133,2.342013368,0,5,10,1,41,2,1,,,,,,,,,,,,,,
,,,,,,,,,,,left.png,,w,right,615f87082ac0e636b68e06af,2021-10-21_15h13.54.085,arrow_simon_punish,2021.1.2,Win32,59.94485074,,,,,,,,,,,,,,w,1,1.5861,2.303018354,0,5,10,2,42,3,1,,,,,,,,,,,,,,
,,,,,,,,,,,left.png,,w,left,615f87082ac0e636b68e06af,2021-10-21_15h13.54.085,arrow_simon_punish,2021.1.2,Win32,59.94485074,,,,,,,,,,,,,,w,1,1.4986,1.988088331,0,5,10,3,43,2,1,,,,,,,,,,,,,,
,,,,,,,,,,,left.png,,w,right,615f87082ac0e636b68e06af,2021-10-21_15h13.54.085,arrow_simon_punish,2021.1.2,Win32,59.94485074,,,,,,,,,,,,,,w,1,1.4949,1.957851155,0,5,11,0,44,3,1,,,,,,,,,,,,,,
,,,,,,,,,,,right.png,,p,right,615f87082ac0e636b68e06af,2021-10-21_15h13.54.085,arrow_simon_punish,2021.1.2,Win32,59.94485074,,,,,,,,,,,,,,p,1,1.6998,2.208653777,1,5,11,1,45,1,1,,,,,,,,,,,,,,
,,,,,,,,,,,right.png,,p,left,615f87082ac0e636b68e06af,2021-10-21_15h13.54.085,arrow_simon_punish,2021.1.2,Win32,59.94485074,,,,,,,,,,,,,,p,1,1.589,2.277167906,0,5,11,2,46,0,1,,,,,,,,,,,,,,
,,,,,,,,,,,left.png,,w,right,615f87082ac0e636b68e06af,2021-10-21_15h13.54.085,arrow_simon_punish,2021.1.2,Win32,59.94485074,,,,,,,,,,,,,,w,1,1.4776,1.760827417,0,5,11,3,47,3,1,,,,,,,,,,,,,,
,,,,,,,,,,,left.png,,w,right,615f87082ac0e636b68e06af,2021-10-21_15h13.54.085,arrow_simon_punish,2021.1.2,Win32,59.94485074,,,,,,,,,,,,,,w,1,1.3038,1.596067334,1,5,12,0,48,3,1,,,,,,,,,,,,,,
,,,,,,,,,,,right.png,,p,left,615f87082ac0e636b68e06af,2021-10-21_15h13.54.085,arrow_simon_punish,2021.1.2,Win32,59.94485074,,,,,,,,,,,,,,p,1,1.7002,2.186401566,1,5,12,1,49,0,1,,,,,,,,,,,,,,
,,,,,,,,,,,left.png,,w,right,615f87082ac0e636b68e06af,2021-10-21_15h13.54.085,arrow_simon_punish,2021.1.2,Win32,59.94485074,,,,,,,,,,,,,,w,1,1.4249,1.898943454,0,5,12,2,50,3,1,,,,,,,,,,,,,,
,,,,,,,,,,,right.png,,p,right,615f87082ac0e636b68e06af,2021-10-21_15h13.54.085,arrow_simon_punish,2021.1.2,Win32,59.94485074,,,,,,,,,,,,,,p,1,1.5026,1.503021226,0,5,12,3,51,1,1,,,,,,,,,,,,,,
,,,,,,,,,,,right.png,,p,left,615f87082ac0e636b68e06af,2021-10-21_15h13.54.085,arrow_simon_punish,2021.1.2,Win32,59.94485074,,,,,,,,,,,,,,p,1,1.4486,1.993879067,0,5,13,0,52,0,1,,,,,,,,,,,,,,
,,,,,,,,,,,right.png,,p,left,615f87082ac0e636b68e06af,2021-10-21_15h13.54.085,arrow_simon_punish,2021.1.2,Win32,59.94485074,,,,,,,,,,,,,,p,1,1.5186,2.231360556,0,5,13,1,53,0,1,,,,,,,,,,,,,,
,,,,,,,,,,,right.png,,p,left,615f87082ac0e636b68e06af,2021-10-21_15h13.54.085,arrow_simon_punish,2021.1.2,Win32,59.94485074,,,,,,,,,,,,,,p,1,1.5566,2.350797517,0,5,13,2,54,0,1,,,,,,,,,,,,,,
,,,,,,,,,,,left.png,,w,right,615f87082ac0e636b68e06af,2021-10-21_15h13.54.085,arrow_simon_punish,2021.1.2,Win32,59.94485074,,,,,,,,,,,,,,w,1,1.4926,1.627669549,0,5,13,3,55,3,1,,,,,,,,,,,,,,
,,,,,,,,,,,left.png,,w,left,615f87082ac0e636b68e06af,2021-10-21_15h13.54.085,arrow_simon_punish,2021.1.2,Win32,59.94485074,,,,,,,,,,,,,,w,1,1.5494,1.976427844,0,5,14,0,56,2,1,,,,,,,,,,,,,,
,,,,,,,,,,,left.png,,w,left,615f87082ac0e636b68e06af,2021-10-21_15h13.54.085,arrow_simon_punish,2021.1.2,Win32,59.94485074,,,,,,,,,,,,,,w,1,1.5241,2.447873254,0,5,14,1,57,2,1,,,,,,,,,,,,,,
,,,,,,,,,,,right.png,,p,right,615f87082ac0e636b68e06af,2021-10-21_15h13.54.085,arrow_simon_punish,2021.1.2,Win32,59.94485074,,,,,,,,,,,,,,p,1,1.512,2.326998544,0,5,14,2,58,1,1,,,,,,,,,,,,,,
,,,,,,,,,,,left.png,,w,left,615f87082ac0e636b68e06af,2021-10-21_15h13.54.085,arrow_simon_punish,2021.1.2,Win32,59.94485074,,,,,,,,,,,,,,w,1,1.666,2.491346659,1,5,14,3,59,2,1,,,,,,,,,,,,,,
,,,,,,,,,,,,,,,615f87082ac0e636b68e06af,2021-10-21_15h13.54.085,arrow_simon_punish,2021.1.2,Win32,59.94485074,,,,,,,,,,,,,,,,,,,,,,,,,space,58.0781,3,0,1,1,1,1,5,,,,,
,,,,,,,,,,,left.png,,w,left,615f87082ac0e636b68e06af,2021-10-21_15h13.54.085,arrow_simon_punish,2021.1.2,Win32,59.94485074,,,,,,,,,,,,,,w,1,1.3132,2.200941784,1,1,0,0,0,2,1,,,,,,,,,,,,,,
,,,,,,,,,,,right.png,,p,left,615f87082ac0e636b68e06af,2021-10-21_15h13.54.085,arrow_simon_punish,2021.1.2,Win32,59.94485074,,,,,,,,,,,,,,p,1,1.322,1.773290509,1,1,0,1,1,0,1,,,,,,,,,,,,,,
,,,,,,,,,,,left.png,,w,right,615f87082ac0e636b68e06af,2021-10-21_15h13.54.085,arrow_simon_punish,2021.1.2,Win32,59.94485074,,,,,,,,,,,,,,w,1,1.3903,1.812024193,1,1,0,2,2,3,1,,,,,,,,,,,,,,
,,,,,,,,,,,left.png,,w,right,615f87082ac0e636b68e06af,2021-10-21_15h13.54.085,arrow_simon_punish,2021.1.2,Win32,59.94485074,,,,,,,,,,,,,,w,1,1.6956,1.925031951,1,1,0,3,3,3,1,,,,,,,,,,,,,,
,,,,,,,,,,,right.png,,p,left,615f87082ac0e636b68e06af,2021-10-21_15h13.54.085,arrow_simon_punish,2021.1.2,Win32,59.94485074,,,,,,,,,,,,,,p,1,1.494,2.255243866,0,1,1,0,4,0,1,,,,,,,,,,,,,,
,,,,,,,,,,,right.png,,p,left,615f87082ac0e636b68e06af,2021-10-21_15h13.54.085,arrow_simon_punish,2021.1.2,Win32,59.94485074,,,,,,,,,,,,,,w,0,1.5217,1.887706508,1,1,1,1,5,0,1,,,,,,,,,,,,,,
,,,,,,,,,,,right.png,,p,left,615f87082ac0e636b68e06af,2021-10-21_15h13.54.085,arrow_simon_punish,2021.1.2,Win32,59.94485074,,,,,,,,,,,,,,w,0,1.4998,1.618267533,1,1,1,2,6,0,1,,,,,,,,,,,,,,
,,,,,,,,,,,left.png,,w,right,615f87082ac0e636b68e06af,2021-10-21_15h13.54.085,arrow_simon_punish,2021.1.2,Win32,59.94485074,,,,,,,,,,,,,,p,0,1.3101,1.858541129,1,1,1,3,7,3,1,,,,,,,,,,,,,,
,,,,,,,,,,,left.png,,w,left,615f87082ac0e636b68e06af,2021-10-21_15h13.54.085,arrow_simon_punish,2021.1.2,Win32,59.94485074,,,,,,,,,,,,,,w,1,1.5039,1.557134796,0,1,2,0,8,2,1,,,,,,,,,,,,,,
,,,,,,,,,,,left.png,,w,right,615f87082ac0e636b68e06af,2021-10-21_15h13.54.085,arrow_simon_punish,2021.1.2,Win32,59.94485074,,,,,,,,,,,,,,w,1,1.3661,2.262895676,1,1,2,1,9,3,1,,,,,,,,,,,,,,
,,,,,,,,,,,right.png,,p,left,615f87082ac0e636b68e06af,2021-10-21_15h13.54.085,arrow_simon_punish,2021.1.2,Win32,59.94485074,,,,,,,,,,,,,,p,1,1.479,2.057717703,0,1,2,2,10,0,1,,,,,,,,,,,,,,
,,,,,,,,,,,right.png,,p,right,615f87082ac0e636b68e06af,2021-10-21_15h13.54.085,arrow_simon_punish,2021.1.2,Win32,59.94485074,,,,,,,,,,,,,,p,1,1.3386,1.671025163,1,1,2,3,11,1,1,,,,,,,,,,,,,,
,,,,,,,,,,,left.png,,w,left,615f87082ac0e636b68e06af,2021-10-21_15h13.54.085,arrow_simon_punish,2021.1.2,Win32,59.94485074,,,,,,,,,,,,,,w,1,1.5847,1.773572504,0,1,3,0,12,2,1,,,,,,,,,,,,,,
,,,,,,,,,,,right.png,,p,right,615f87082ac0e636b68e06af,2021-10-21_15h13.54.085,arrow_simon_punish,2021.1.2,Win32,59.94485074,,,,,,,,,,,,,,p,1,1.3323,1.82127368,1,1,3,1,13,1,1,,,,,,,,,,,,,,
,,,,,,,,,,,left.png,,w,left,615f87082ac0e636b68e06af,2021-10-21_15h13.54.085,arrow_simon_punish,2021.1.2,Win32,59.94485074,,,,,,,,,,,,,,w,1,1.5972,2.288906925,0,1,3,2,14,2,1,,,,,,,,,,,,,,
,,,,,,,,,,,right.png,,p,right,615f87082ac0e636b68e06af,2021-10-21_15h13.54.085,arrow_simon_punish,2021.1.2,Win32,59.94485074,,,,,,,,,,,,,,p,1,1.3882,2.221883312,1,1,3,3,15,1,1,,,,,,,,,,,,,,
,,,,,,,,,,,left.png,,w,left,615f87082ac0e636b68e06af,2021-10-21_15h13.54.085,arrow_simon_punish,2021.1.2,Win32,59.94485074,,,,,,,,,,,,,,w,1,1.405,1.999687754,0,1,4,0,16,2,1,,,,,,,,,,,,,,
,,,,,,,,,,,left.png,,w,left,615f87082ac0e636b68e06af,2021-10-21_15h13.54.085,arrow_simon_punish,2021.1.2,Win32,59.94485074,,,,,,,,,,,,,,w,1,1.5065,1.963327643,0,1,4,1,17,2,1,,,,,,,,,,,,,,
,,,,,,,,,,,right.png,,p,right,615f87082ac0e636b68e06af,2021-10-21_15h13.54.085,arrow_simon_punish,2021.1.2,Win32,59.94485074,,,,,,,,,,,,,,p,1,1.4789,2.253342678,0,1,4,2,18,1,1,,,,,,,,,,,,,,
,,,,,,,,,,,right.png,,p,left,615f87082ac0e636b68e06af,2021-10-21_15h13.54.085,arrow_simon_punish,2021.1.2,Win32,59.94485074,,,,,,,,,,,,,,p,1,1.5922,1.632499894,0,1,4,3,19,0,1,,,,,,,,,,,,,,
,,,,,,,,,,,left.png,,w,right,615f87082ac0e636b68e06af,2021-10-21_15h13.54.085,arrow_simon_punish,2021.1.2,Win32,59.94485074,,,,,,,,,,,,,,w,1,1.5188,2.192949519,0,1,5,0,20,3,1,,,,,,,,,,,,,,
,,,,,,,,,,,right.png,,p,right,615f87082ac0e636b68e06af,2021-10-21_15h13.54.085,arrow_simon_punish,2021.1.2,Win32,59.94485074,,,,,,,,,,,,,,p,1,1.6047,2.4274283,1,1,5,1,21,1,1,,,,,,,,,,,,,,
,,,,,,,,,,,left.png,,w,right,615f87082ac0e636b68e06af,2021-10-21_15h13.54.085,arrow_simon_punish,2021.1.2,Win32,59.94485074,,,,,,,,,,,,,,w,1,1.4356,2.051182009,0,1,5,2,22,3,1,,,,,,,,,,,,,,
,,,,,,,,,,,left.png,,w,left,615f87082ac0e636b68e06af,2021-10-21_15h13.54.085,arrow_simon_punish,2021.1.2,Win32,59.94485074,,,,,,,,,,,,,,w,1,1.418,2.162457101,0,1,5,3,23,2,1,,,,,,,,,,,,,,
,,,,,,,,,,,left.png,,w,left,615f87082ac0e636b68e06af,2021-10-21_15h13.54.085,arrow_simon_punish,2021.1.2,Win32,59.94485074,,,,,,,,,,,,,,w,1,1.5324,2.285335877,0,1,6,0,24,2,1,,,,,,,,,,,,,,
,,,,,,,,,,,left.png,,w,left,615f87082ac0e636b68e06af,2021-10-21_15h13.54.085,arrow_simon_punish,2021.1.2,Win32,59.94485074,,,,,,,,,,,,,,w,1,1.5497,2.29133831,0,1,6,1,25,2,1,,,,,,,,,,,,,,
,,,,,,,,,,,right.png,,p,left,615f87082ac0e636b68e06af,2021-10-21_15h13.54.085,arrow_simon_punish,2021.1.2,Win32,59.94485074,,,,,,,,,,,,,,p,1,1.6268,2.067054273,1,1,6,2,26,0,1,,,,,,,,,,,,,,
,,,,,,,,,,,right.png,,p,right,615f87082ac0e636b68e06af,2021-10-21_15h13.54.085,arrow_simon_punish,2021.1.2,Win32,59.94485074,,,,,,,,,,,,,,p,1,1.4549,2.076095039,0,1,6,3,27,1,1,,,,,,,,,,,,,,
,,,,,,,,,,,right.png,,p,right,615f87082ac0e636b68e06af,2021-10-21_15h13.54.085,arrow_simon_punish,2021.1.2,Win32,59.94485074,,,,,,,,,,,,,,p,1,1.4896,2.222205363,0,1,7,0,28,1,1,,,,,,,,,,,,,,
,,,,,,,,,,,left.png,,w,right,615f87082ac0e636b68e06af,2021-10-21_15h13.54.085,arrow_simon_punish,2021.1.2,Win32,59.94485074,,,,,,,,,,,,,,w,1,1.4416,1.57857843,0,1,7,1,29,3,1,,,,,,,,,,,,,,
,,,,,,,,,,,right.png,,p,right,615f87082ac0e636b68e06af,2021-10-21_15h13.54.085,arrow_simon_punish,2021.1.2,Win32,59.94485074,,,,,,,,,,,,,,w,0,1.5002,2.369829205,1,1,7,2,30,1,1,,,,,,,,,,,,,,
,,,,,,,,,,,right.png,,p,left,615f87082ac0e636b68e06af,2021-10-21_15h13.54.085,arrow_simon_punish,2021.1.2,Win32,59.94485074,,,,,,,,,,,,,,p,1,1.8824,2.343090313,1,1,7,3,31,0,1,,,,,,,,,,,,,,
,,,,,,,,,,,left.png,,w,right,615f87082ac0e636b68e06af,2021-10-21_15h13.54.085,arrow_simon_punish,2021.1.2,Win32,59.94485074,,,,,,,,,,,,,,w,1,1.3609,1.539610837,1,1,8,0,32,3,1,,,,,,,,,,,,,,
,,,,,,,,,,,right.png,,p,left,615f87082ac0e636b68e06af,2021-10-21_15h13.54.085,arrow_simon_punish,2021.1.2,Win32,59.94485074,,,,,,,,,,,,,,p,1,1.5775,1.634246465,0,1,8,1,33,0,1,,,,,,,,,,,,,,
,,,,,,,,,,,left.png,,w,left,615f87082ac0e636b68e06af,2021-10-21_15h13.54.085,arrow_simon_punish,2021.1.2,Win32,59.94485074,,,,,,,,,,,,,,w,1,1.3897,1.757866775,1,1,8,2,34,2,1,,,,,,,,,,,,,,
,,,,,,,,,,,right.png,,p,right,615f87082ac0e636b68e06af,2021-10-21_15h13.54.085,arrow_simon_punish,2021.1.2,Win32,59.94485074,,,,,,,,,,,,,,p,1,1.4805,1.943394528,0,1,8,3,35,1,1,,,,,,,,,,,,,,
,,,,,,,,,,,right.png,,p,left,615f87082ac0e636b68e06af,2021-10-21_15h13.54.085,arrow_simon_punish,2021.1.2,Win32,59.94485074,,,,,,,,,,,,,,p,1,1.6255,2.484364485,1,1,9,0,36,0,1,,,,,,,,,,,,,,
,,,,,,,,,,,right.png,,p,left,615f87082ac0e636b68e06af,2021-10-21_15h13.54.085,arrow_simon_punish,2021.1.2,Win32,59.94485074,,,,,,,,,,,,,,p,1,1.5129,1.662448217,0,1,9,1,37,0,1,,,,,,,,,,,,,,
,,,,,,,,,,,right.png,,p,right,615f87082ac0e636b68e06af,2021-10-21_15h13.54.085,arrow_simon_punish,2021.1.2,Win32,59.94485074,,,,,,,,,,,,,,p,1,1.4849,1.909613458,0,1,9,2,38,1,1,,,,,,,,,,,,,,
,,,,,,,,,,,left.png,,w,right,615f87082ac0e636b68e06af,2021-10-21_15h13.54.085,arrow_simon_punish,2021.1.2,Win32,59.94485074,,,,,,,,,,,,,,w,1,1.3286,1.933567855,1,1,9,3,39,3,1,,,,,,,,,,,,,,
,,,,,,,,,,,right.png,,p,left,615f87082ac0e636b68e06af,2021-10-21_15h13.54.085,arrow_simon_punish,2021.1.2,Win32,59.94485074,,,,,,,,,,,,,,p,1,1.691,1.978166432,1,1,10,0,40,0,1,,,,,,,,,,,,,,
,,,,,,,,,,,right.png,,p,right,615f87082ac0e636b68e06af,2021-10-21_15h13.54.085,arrow_simon_punish,2021.1.2,Win32,59.94485074,,,,,,,,,,,,,,p,1,1.6587,2.493983701,1,1,10,1,41,1,1,,,,,,,,,,,,,,
,,,,,,,,,,,left.png,,w,right,615f87082ac0e636b68e06af,2021-10-21_15h13.54.085,arrow_simon_punish,2021.1.2,Win32,59.94485074,,,,,,,,,,,,,,w,1,1.4802,2.286320093,0,1,10,2,42,3,1,,,,,,,,,,,,,,
,,,,,,,,,,,left.png,,w,left,615f87082ac0e636b68e06af,2021-10-21_15h13.54.085,arrow_simon_punish,2021.1.2,Win32,59.94485074,,,,,,,,,,,,,,w,1,1.7556,2.36006935,1,1,10,3,43,2,1,,,,,,,,,,,,,,
,,,,,,,,,,,left.png,,w,left,615f87082ac0e636b68e06af,2021-10-21_15h13.54.085,arrow_simon_punish,2021.1.2,Win32,59.94485074,,,,,,,,,,,,,,w,1,1.4146,2.226868565,0,1,11,0,44,2,1,,,,,,,,,,,,,,
,,,,,,,,,,,right.png,,p,right,615f87082ac0e636b68e06af,2021-10-21_15h13.54.085,arrow_simon_punish,2021.1.2,Win32,59.94485074,,,,,,,,,,,,,,p,1,1.4972,1.571792982,0,1,11,1,45,1,1,,,,,,,,,,,,,,
,,,,,,,,,,,right.png,,p,left,615f87082ac0e636b68e06af,2021-10-21_15h13.54.085,arrow_simon_punish,2021.1.2,Win32,59.94485074,,,,,,,,,,,,,,p,1,1.5544,1.697199727,0,1,11,2,46,0,1,,,,,,,,,,,,,,
,,,,,,,,,,,left.png,,w,left,615f87082ac0e636b68e06af,2021-10-21_15h13.54.085,arrow_simon_punish,2021.1.2,Win32,59.94485074,,,,,,,,,,,,,,w,1,1.5434,2.381841256,0,1,11,3,47,2,1,,,,,,,,,,,,,,
,,,,,,,,,,,left.png,,w,right,615f87082ac0e636b68e06af,2021-10-21_15h13.54.085,arrow_simon_punish,2021.1.2,Win32,59.94485074,,,,,,,,,,,,,,w,1,1.4399,2.130658285,0,1,12,0,48,3,1,,,,,,,,,,,,,,
,,,,,,,,,,,left.png,,w,right,615f87082ac0e636b68e06af,2021-10-21_15h13.54.085,arrow_simon_punish,2021.1.2,Win32,59.94485074,,,,,,,,,,,,,,w,1,1.5008,1.553262706,0,1,12,1,49,3,1,,,,,,,,,,,,,,
,,,,,,,,,,,left.png,,w,left,615f87082ac0e636b68e06af,2021-10-21_15h13.54.085,arrow_simon_punish,2021.1.2,Win32,59.94485074,,,,,,,,,,,,,,w,1,1.3205,1.742556654,1,1,12,2,50,2,1,,,,,,,,,,,,,,
,,,,,,,,,,,left.png,,w,right,615f87082ac0e636b68e06af,2021-10-21_15h13.54.085,arrow_simon_punish,2021.1.2,Win32,59.94485074,,,,,,,,,,,,,,w,1,1.4223,1.87336179,0,1,12,3,51,3,1,,,,,,,,,,,,,,
,,,,,,,,,,,right.png,,p,right,615f87082ac0e636b68e06af,2021-10-21_15h13.54.085,arrow_simon_punish,2021.1.2,Win32,59.94485074,,,,,,,,,,,,,,p,1,1.5669,2.386969256,0,1,13,0,52,1,1,,,,,,,,,,,,,,
,,,,,,,,,,,left.png,,w,left,615f87082ac0e636b68e06af,2021-10-21_15h13.54.085,arrow_simon_punish,2021.1.2,Win32,59.94485074,,,,,,,,,,,,,,w,1,1.3033,2.038842338,1,1,13,1,53,2,1,,,,,,,,,,,,,,
,,,,,,,,,,,right.png,,p,left,615f87082ac0e636b68e06af,2021-10-21_15h13.54.085,arrow_simon_punish,2021.1.2,Win32,59.94485074,,,,,,,,,,,,,,p,1,1.4682,1.825856842,0,1,13,2,54,0,1,,,,,,,,,,,,,,
,,,,,,,,,,,left.png,,w,right,615f87082ac0e636b68e06af,2021-10-21_15h13.54.085,arrow_simon_punish,2021.1.2,Win32,59.94485074,,,,,,,,,,,,,,w,1,1.3285,1.741350793,1,1,13,3,55,3,1,,,,,,,,,,,,,,
,,,,,,,,,,,right.png,,p,left,615f87082ac0e636b68e06af,2021-10-21_15h13.54.085,arrow_simon_punish,2021.1.2,Win32,59.94485074,,,,,,,,,,,,,,p,1,1.4685,1.641056788,0,1,14,0,56,0,1,,,,,,,,,,,,,,
,,,,,,,,,,,right.png,,p,right,615f87082ac0e636b68e06af,2021-10-21_15h13.54.085,arrow_simon_punish,2021.1.2,Win32,59.94485074,,,,,,,,,,,,,,p,1,1.3693,1.815343947,1,1,14,1,57,1,1,,,,,,,,,,,,,,
,,,,,,,,,,,right.png,,p,right,615f87082ac0e636b68e06af,2021-10-21_15h13.54.085,arrow_simon_punish,2021.1.2,Win32,59.94485074,,,,,,,,,,,,,,p,1,1.5659,2.126185484,0,1,14,2,58,1,1,,,,,,,,,,,,,,
,,,,,,,,,,,left.png,,w,right,615f87082ac0e636b68e06af,2021-10-21_15h13.54.085,arrow_simon_punish,2021.1.2,Win32,59.94485074,,,,,,,,,,,,,,w,1,1.4539,1.737869544,0,1,14,3,59,3,1,,,,,,,,,,,,,,
,,,,,,,,,,,,,,,615f87082ac0e636b68e06af,2021-10-21_15h13.54.085,arrow_simon_punish,2021.1.2,Win32,59.94485074,,,,,,,,,,,,,,,,,,,,,,,,,space,12.807,4,1,0,2,0,1,1,,,,,
,,,,,,,,,,,left.png,,w,left,615f87082ac0e636b68e06af,2021-10-21_15h13.54.085,arrow_simon_punish,2021.1.2,Win32,59.94485074,,,,,,,,,,,,,,w,1,1.5631,2.451409367,0,5,0,0,0,2,1,,,,,,,,,,,,,,
,,,,,,,,,,,right.png,,p,left,615f87082ac0e636b68e06af,2021-10-21_15h13.54.085,arrow_simon_punish,2021.1.2,Win32,59.94485074,,,,,,,,,,,,,,p,1,1.4942,2.153547799,0,5,0,1,1,0,1,,,,,,,,,,,,,,
,,,,,,,,,,,left.png,,w,left,615f87082ac0e636b68e06af,2021-10-21_15h13.54.085,arrow_simon_punish,2021.1.2,Win32,59.94485074,,,,,,,,,,,,,,w,1,1.4876,2.453509156,0,5,0,2,2,2,1,,,,,,,,,,,,,,
,,,,,,,,,,,left.png,,w,right,615f87082ac0e636b68e06af,2021-10-21_15h13.54.085,arrow_simon_punish,2021.1.2,Win32,59.94485074,,,,,,,,,,,,,,w,1,1.4161,1.770691003,0,5,0,3,3,3,1,,,,,,,,,,,,,,
,,,,,,,,,,,right.png,,p,left,615f87082ac0e636b68e06af,2021-10-21_15h13.54.085,arrow_simon_punish,2021.1.2,Win32,59.94485074,,,,,,,,,,,,,,p,1,1.419,1.970627703,0,5,1,0,4,0,1,,,,,,,,,,,,,,
,,,,,,,,,,,right.png,,p,right,615f87082ac0e636b68e06af,2021-10-21_15h13.54.085,arrow_simon_punish,2021.1.2,Win32,59.94485074,,,,,,,,,,,,,,p,1,1.3424,1.868865085,1,5,1,1,5,1,1,,,,,,,,,,,,,,
,,,,,,,,,,,left.png,,w,left,615f87082ac0e636b68e06af,2021-10-21_15h13.54.085,arrow_simon_punish,2021.1.2,Win32,59.94485074,,,,,,,,,,,,,,w,1,1.4424,1.941464751,0,5,1,2,6,2,1,,,,,,,,,,,,,,
,,,,,,,,,,,right.png,,p,right,615f87082ac0e636b68e06af,2021-10-21_15h13.54.085,arrow_simon_punish,2021.1.2,Win32,59.94485074,,,,,,,,,,,,,,p,1,1.5028,2.359196873,0,5,1,3,7,1,1,,,,,,,,,,,,,,
,,,,,,,,,,,left.png,,w,right,615f87082ac0e636b68e06af,2021-10-21_15h13.54.085,arrow_simon_punish,2021.1.2,Win32,59.94485074,,,,,,,,,,,,,,w,1,1.4213,2.09861349,0,5,2,0,8,3,1,,,,,,,,,,,,,,
,,,,,,,,,,,right.png,,p,left,615f87082ac0e636b68e06af,2021-10-21_15h13.54.085,arrow_simon_punish,2021.1.2,Win32,59.94485074,,,,,,,,,,,,,,p,1,1.4583,1.778490193,0,5,2,1,9,0,1,,,,,,,,,,,,,,
,,,,,,,,,,,right.png,,p,right,615f87082ac0e636b68e06af,2021-10-21_15h13.54.085,arrow_simon_punish,2021.1.2,Win32,59.94485074,,,,,,,,,,,,,,p,1,1.4782,2.001967159,0,5,2,2,10,1,1,,,,,,,,,,,,,,
,,,,,,,,,,,left.png,,w,right,615f87082ac0e636b68e06af,2021-10-21_15h13.54.085,arrow_simon_punish,2021.1.2,Win32,59.94485074,,,,,,,,,,,,,,w,1,1.4539,1.561256223,0,5,2,3,11,3,1,,,,,,,,,,,,,,
,,,,,,,,,,,left.png,,w,right,615f87082ac0e636b68e06af,2021-10-21_15h13.54.085,arrow_simon_punish,2021.1.2,Win32,59.94485074,,,,,,,,,,,,,,w,1,1.4644,1.916467298,0,5,3,0,12,3,1,,,,,,,,,,,,,,
,,,,,,,,,,,right.png,,p,left,615f87082ac0e636b68e06af,2021-10-21_15h13.54.085,arrow_simon_punish,2021.1.2,Win32,59.94485074,,,,,,,,,,,,,,p,1,1.468,2.188369134,0,5,3,1,13,0,1,,,,,,,,,,,,,,
,,,,,,,,,,,right.png,,p,left,615f87082ac0e636b68e06af,2021-10-21_15h13.54.085,arrow_simon_punish,2021.1.2,Win32,59.94485074,,,,,,,,,,,,,,p,1,1.4069,1.609618604,0,5,3,2,14,0,1,,,,,,,,,,,,,,
,,,,,,,,,,,right.png,,p,right,615f87082ac0e636b68e06af,2021-10-21_15h13.54.085,arrow_simon_punish,2021.1.2,Win32,59.94485074,,,,,,,,,,,,,,p,1,1.6222,2.459669862,1,5,3,3,15,1,1,,,,,,,,,,,,,,
,,,,,,,,,,,left.png,,w,right,615f87082ac0e636b68e06af,2021-10-21_15h13.54.085,arrow_simon_punish,2021.1.2,Win32,59.94485074,,,,,,,,,,,,,,w,1,1.4223,1.596962864,0,5,4,0,16,3,1,,,,,,,,,,,,,,
,,,,,,,,,,,left.png,,w,right,615f87082ac0e636b68e06af,2021-10-21_15h13.54.085,arrow_simon_punish,2021.1.2,Win32,59.94485074,,,,,,,,,,,,,,w,1,1.5013,2.010487514,0,5,4,1,17,3,1,,,,,,,,,,,,,,
,,,,,,,,,,,left.png,,w,right,615f87082ac0e636b68e06af,2021-10-21_15h13.54.085,arrow_simon_punish,2021.1.2,Win32,59.94485074,,,,,,,,,,,,,,w,1,1.4043,2.241835777,0,5,4,2,18,3,1,,,,,,,,,,,,,,
,,,,,,,,,,,left.png,,w,left,615f87082ac0e636b68e06af,2021-10-21_15h13.54.085,arrow_simon_punish,2021.1.2,Win32,59.94485074,,,,,,,,,,,,,,w,1,1.435,1.897530417,0,5,4,3,19,2,1,,,,,,,,,,,,,,
,,,,,,,,,,,right.png,,p,left,615f87082ac0e636b68e06af,2021-10-21_15h13.54.085,arrow_simon_punish,2021.1.2,Win32,59.94485074,,,,,,,,,,,,,,p,1,1.5971,1.705271181,0,5,5,0,20,0,1,,,,,,,,,,,,,,
,,,,,,,,,,,left.png,,w,right,615f87082ac0e636b68e06af,2021-10-21_15h13.54.085,arrow_simon_punish,2021.1.2,Win32,59.94485074,,,,,,,,,,,,,,w,1,1.4075,2.085762727,0,5,5,1,21,3,1,,,,,,,,,,,,,,
,,,,,,,,,,,right.png,,p,left,615f87082ac0e636b68e06af,2021-10-21_15h13.54.085,arrow_simon_punish,2021.1.2,Win32,59.94485074,,,,,,,,,,,,,,p,1,1.5983,2.086009483,0,5,5,2,22,0,1,,,,,,,,,,,,,,
,,,,,,,,,,,left.png,,w,right,615f87082ac0e636b68e06af,2021-10-21_15h13.54.085,arrow_simon_punish,2021.1.2,Win32,59.94485074,,,,,,,,,,,,,,w,1,1.5664,2.071843056,0,5,5,3,23,3,1,,,,,,,,,,,,,,
,,,,,,,,,,,left.png,,w,left,615f87082ac0e636b68e06af,2021-10-21_15h13.54.085,arrow_simon_punish,2021.1.2,Win32,59.94485074,,,,,,,,,,,,,,w,1,1.6519,2.234827206,1,5,6,0,24,2,1,,,,,,,,,,,,,,
,,,,,,,,,,,right.png,,p,right,615f87082ac0e636b68e06af,2021-10-21_15h13.54.085,arrow_simon_punish,2021.1.2,Win32,59.94485074,,,,,,,,,,,,,,p,1,1.569,1.707397949,0,5,6,1,25,1,1,,,,,,,,,,,,,,
,,,,,,,,,,,left.png,,w,right,615f87082ac0e636b68e06af,2021-10-21_15h13.54.085,arrow_simon_punish,2021.1.2,Win32,59.94485074,,,,,,,,,,,,,,w,1,1.4885,1.620835621,0,5,6,2,26,3,1,,,,,,,,,,,,,,
,,,,,,,,,,,right.png,,p,left,615f87082ac0e636b68e06af,2021-10-21_15h13.54.085,arrow_simon_punish,2021.1.2,Win32,59.94485074,,,,,,,,,,,,,,p,1,1.5106,1.739843016,0,5,6,3,27,0,1,,,,,,,,,,,,,,
,,,,,,,,,,,right.png,,p,left,615f87082ac0e636b68e06af,2021-10-21_15h13.54.085,arrow_simon_punish,2021.1.2,Win32,59.94485074,,,,,,,,,,,,,,p,1,1.409,1.909185246,0,5,7,0,28,0,1,,,,,,,,,,,,,,
,,,,,,,,,,,right.png,,p,right,615f87082ac0e636b68e06af,2021-10-21_15h13.54.085,arrow_simon_punish,2021.1.2,Win32,59.94485074,,,,,,,,,,,,,,p,1,1.417,2.030304965,0,5,7,1,29,1,1,,,,,,,,,,,,,,
,,,,,,,,,,,right.png,,p,right,615f87082ac0e636b68e06af,2021-10-21_15h13.54.085,arrow_simon_punish,2021.1.2,Win32,59.94485074,,,,,,,,,,,,,,p,1,1.4182,2.043335098,0,5,7,2,30,1,1,,,,,,,,,,,,,,
,,,,,,,,,,,left.png,,w,right,615f87082ac0e636b68e06af,2021-10-21_15h13.54.085,arrow_simon_punish,2021.1.2,Win32,59.94485074,,,,,,,,,,,,,,w,1,1.4516,2.331091333,0,5,7,3,31,3,1,,,,,,,,,,,,,,
,,,,,,,,,,,left.png,,w,right,615f87082ac0e636b68e06af,2021-10-21_15h13.54.085,arrow_simon_punish,2021.1.2,Win32,59.94485074,,,,,,,,,,,,,,w,1,1.4203,1.507210806,0,5,8,0,32,3,1,,,,,,,,,,,,,,
,,,,,,,,,,,right.png,,p,left,615f87082ac0e636b68e06af,2021-10-21_15h13.54.085,arrow_simon_punish,2021.1.2,Win32,59.94485074,,,,,,,,,,,,,,p,1,1.5238,2.388263475,0,5,8,1,33,0,1,,,,,,,,,,,,,,
,,,,,,,,,,,left.png,,w,left,615f87082ac0e636b68e06af,2021-10-21_15h13.54.085,arrow_simon_punish,2021.1.2,Win32,59.94485074,,,,,,,,,,,,,,w,1,1.7181,2.312962796,1,5,8,2,34,2,1,,,,,,,,,,,,,,
,,,,,,,,,,,right.png,,p,right,615f87082ac0e636b68e06af,2021-10-21_15h13.54.085,arrow_simon_punish,2021.1.2,Win32,59.94485074,,,,,,,,,,,,,,p,1,1.4603,2.111235916,0,5,8,3,35,1,1,,,,,,,,,,,,,,
,,,,,,,,,,,left.png,,w,left,615f87082ac0e636b68e06af,2021-10-21_15h13.54.085,arrow_simon_punish,2021.1.2,Win32,59.94485074,,,,,,,,,,,,,,w,1,1.4681,1.521072461,0,5,9,0,36,2,1,,,,,,,,,,,,,,
,,,,,,,,,,,right.png,,p,left,615f87082ac0e636b68e06af,2021-10-21_15h13.54.085,arrow_simon_punish,2021.1.2,Win32,59.94485074,,,,,,,,,,,,,,p,1,1.5897,2.084988525,0,5,9,1,37,0,1,,,,,,,,,,,,,,
,,,,,,,,,,,right.png,,p,left,615f87082ac0e636b68e06af,2021-10-21_15h13.54.085,arrow_simon_punish,2021.1.2,Win32,59.94485074,,,,,,,,,,,,,,p,1,1.5805,2.258803767,0,5,9,2,38,0,1,,,,,,,,,,,,,,
,,,,,,,,,,,right.png,,p,right,615f87082ac0e636b68e06af,2021-10-21_15h13.54.085,arrow_simon_punish,2021.1.2,Win32,59.94485074,,,,,,,,,,,,,,p,1,1.6533,2.43544928,1,5,9,3,39,1,1,,,,,,,,,,,,,,
,,,,,,,,,,,right.png,,p,right,615f87082ac0e636b68e06af,2021-10-21_15h13.54.085,arrow_simon_punish,2021.1.2,Win32,59.94485074,,,,,,,,,,,,,,p,1,1.5084,2.248032868,0,5,10,0,40,1,1,,,,,,,,,,,,,,
,,,,,,,,,,,right.png,,p,right,615f87082ac0e636b68e06af,2021-10-21_15h13.54.085,arrow_simon_punish,2021.1.2,Win32,59.94485074,,,,,,,,,,,,,,p,1,1.6415,1.771113406,1,5,10,1,41,1,1,,,,,,,,,,,,,,
,,,,,,,,,,,left.png,,w,left,615f87082ac0e636b68e06af,2021-10-21_15h13.54.085,arrow_simon_punish,2021.1.2,Win32,59.94485074,,,,,,,,,,,,,,w,1,1.2947,1.879881502,1,5,10,2,42,2,1,,,,,,,,,,,,,,
,,,,,,,,,,,right.png,,p,right,615f87082ac0e636b68e06af,2021-10-21_15h13.54.085,arrow_simon_punish,2021.1.2,Win32,59.94485074,,,,,,,,,,,,,,p,1,1.5615,2.42810926,0,5,10,3,43,1,1,,,,,,,,,,,,,,
,,,,,,,,,,,left.png,,w,left,615f87082ac0e636b68e06af,2021-10-21_15h13.54.085,arrow_simon_punish,2021.1.2,Win32,59.94485074,,,,,,,,,,,,,,w,1,1.3611,1.990757005,1,5,11,0,44,2,1,,,,,,,,,,,,,,
,,,,,,,,,,,left.png,,w,left,615f87082ac0e636b68e06af,2021-10-21_15h13.54.085,arrow_simon_punish,2021.1.2,Win32,59.94485074,,,,,,,,,,,,,,w,1,1.3326,1.936957976,1,5,11,1,45,2,1,,,,,,,,,,,,,,
,,,,,,,,,,,right.png,,p,left,615f87082ac0e636b68e06af,2021-10-21_15h13.54.085,arrow_simon_punish,2021.1.2,Win32,59.94485074,,,,,,,,,,,,,,p,1,1.3197,1.554266858,1,5,11,2,46,0,1,,,,,,,,,,,,,,
,,,,,,,,,,,left.png,,w,right,615f87082ac0e636b68e06af,2021-10-21_15h13.54.085,arrow_simon_punish,2021.1.2,Win32,59.94485074,,,,,,,,,,,,,,w,1,1.4954,2.349894238,0,5,11,3,47,3,1,,,,,,,,,,,,,,
,,,,,,,,,,,left.png,,w,right,615f87082ac0e636b68e06af,2021-10-21_15h13.54.085,arrow_simon_punish,2021.1.2,Win32,59.94485074,,,,,,,,,,,,,,w,1,1.4701,2.224790398,0,5,12,0,48,3,1,,,,,,,,,,,,,,
,,,,,,,,,,,right.png,,p,right,615f87082ac0e636b68e06af,2021-10-21_15h13.54.085,arrow_simon_punish,2021.1.2,Win32,59.94485074,,,,,,,,,,,,,,p,1,1.5222,1.59766573,0,5,12,1,49,1,1,,,,,,,,,,,,,,
,,,,,,,,,,,right.png,,p,left,615f87082ac0e636b68e06af,2021-10-21_15h13.54.085,arrow_simon_punish,2021.1.2,Win32,59.94485074,,,,,,,,,,,,,,p,1,1.4445,1.954737749,0,5,12,2,50,0,1,,,,,,,,,,,,,,
,,,,,,,,,,,left.png,,w,right,615f87082ac0e636b68e06af,2021-10-21_15h13.54.085,arrow_simon_punish,2021.1.2,Win32,59.94485074,,,,,,,,,,,,,,w,1,1.5234,1.66846388,0,5,12,3,51,3,1,,,,,,,,,,,,,,
,,,,,,,,,,,left.png,,w,left,615f87082ac0e636b68e06af,2021-10-21_15h13.54.085,arrow_simon_punish,2021.1.2,Win32,59.94485074,,,,,,,,,,,,,,w,1,1.5005,1.802768709,0,5,13,0,52,2,1,,,,,,,,,,,,,,
,,,,,,,,,,,left.png,,w,left,615f87082ac0e636b68e06af,2021-10-21_15h13.54.085,arrow_simon_punish,2021.1.2,Win32,59.94485074,,,,,,,,,,,,,,w,1,1.635,2.247533625,1,5,13,1,53,2,1,,,,,,,,,,,,,,
,,,,,,,,,,,left.png,,w,left,615f87082ac0e636b68e06af,2021-10-21_15h13.54.085,arrow_simon_punish,2021.1.2,Win32,59.94485074,,,,,,,,,,,,,,w,1,1.5695,2.167937737,0,5,13,2,54,2,1,,,,,,,,,,,,,,
,,,,,,,,,,,left.png,,w,left,615f87082ac0e636b68e06af,2021-10-21_15h13.54.085,arrow_simon_punish,2021.1.2,Win32,59.94485074,,,,,,,,,,,,,,w,1,1.334,1.558356323,1,5,13,3,55,2,1,,,,,,,,,,,,,,
,,,,,,,,,,,right.png,,p,left,615f87082ac0e636b68e06af,2021-10-21_15h13.54.085,arrow_simon_punish,2021.1.2,Win32,59.94485074,,,,,,,,,,,,,,p,1,1.3905,1.846930615,1,5,14,0,56,0,1,,,,,,,,,,,,,,
,,,,,,,,,,,right.png,,p,right,615f87082ac0e636b68e06af,2021-10-21_15h13.54.085,arrow_simon_punish,2021.1.2,Win32,59.94485074,,,,,,,,,,,,,,p,1,1.4044,1.680000212,0,5,14,1,57,1,1,,,,,,,,,,,,,,
,,,,,,,,,,,right.png,,p,right,615f87082ac0e636b68e06af,2021-10-21_15h13.54.085,arrow_simon_punish,2021.1.2,Win32,59.94485074,,,,,,,,,,,,,,p,1,1.4787,1.771933078,0,5,14,2,58,1,1,,,,,,,,,,,,,,
,,,,,,,,,,,left.png,,w,left,615f87082ac0e636b68e06af,2021-10-21_15h13.54.085,arrow_simon_punish,2021.1.2,Win32,59.94485074,,,,,,,,,,,,,,w,1,1.3892,1.853477826,1,5,14,3,59,2,1,,,,,,,,,,,,,,
,,,,,,,,,,,,,,,615f87082ac0e636b68e06af,2021-10-21_15h13.54.085,arrow_simon_punish,2021.1.2,Win32,59.94485074,,,,,,,,,,,,,,,,,,,,,,,,,space,15.7312,5,1,1,3,1,1,5,,,,,
,,,,,,,,,,,right.png,,p,left,615f87082ac0e636b68e06af,2021-10-21_15h13.54.085,arrow_simon_punish,2021.1.2,Win32,59.94485074,,,,,,,,,,,,,,p,1,1.2824,1.775282478,1,1,0,0,0,0,1,,,,,,,,,,,,,,
,,,,,,,,,,,right.png,,p,left,615f87082ac0e636b68e06af,2021-10-21_15h13.54.085,arrow_simon_punish,2021.1.2,Win32,59.94485074,,,,,,,,,,,,,,p,1,1.4278,1.704127733,0,1,0,1,1,0,1,,,,,,,,,,,,,,
,,,,,,,,,,,right.png,,p,left,615f87082ac0e636b68e06af,2021-10-21_15h13.54.085,arrow_simon_punish,2021.1.2,Win32,59.94485074,,,,,,,,,,,,,,p,1,1.4834,2.006530757,0,1,0,2,2,0,1,,,,,,,,,,,,,,
,,,,,,,,,,,left.png,,w,right,615f87082ac0e636b68e06af,2021-10-21_15h13.54.085,arrow_simon_punish,2021.1.2,Win32,59.94485074,,,,,,,,,,,,,,w,1,1.3492,1.970855088,1,1,0,3,3,3,1,,,,,,,,,,,,,,
,,,,,,,,,,,right.png,,p,right,615f87082ac0e636b68e06af,2021-10-21_15h13.54.085,arrow_simon_punish,2021.1.2,Win32,59.94485074,,,,,,,,,,,,,,p,1,1.4917,2.086532893,0,1,1,0,4,1,1,,,,,,,,,,,,,,
,,,,,,,,,,,left.png,,w,right,615f87082ac0e636b68e06af,2021-10-21_15h13.54.085,arrow_simon_punish,2021.1.2,Win32,59.94485074,,,,,,,,,,,,,,w,1,1.3219,1.93153313,1,1,1,1,5,3,1,,,,,,,,,,,,,,
,,,,,,,,,,,right.png,,p,left,615f87082ac0e636b68e06af,2021-10-21_15h13.54.085,arrow_simon_punish,2021.1.2,Win32,59.94485074,,,,,,,,,,,,,,p,1,1.4727,2.291992747,0,1,1,2,6,0,1,,,,,,,,,,,,,,
,,,,,,,,,,,right.png,,p,left,615f87082ac0e636b68e06af,2021-10-21_15h13.54.085,arrow_simon_punish,2021.1.2,Win32,59.94485074,,,,,,,,,,,,,,p,1,1.3842,2.248413728,1,1,1,3,7,0,1,,,,,,,,,,,,,,
,,,,,,,,,,,left.png,,w,right,615f87082ac0e636b68e06af,2021-10-21_15h13.54.085,arrow_simon_punish,2021.1.2,Win32,59.94485074,,,,,,,,,,,,,,w,1,1.2611,1.944283214,1,1,2,0,8,3,1,,,,,,,,,,,,,,
,,,,,,,,,,,left.png,,w,left,615f87082ac0e636b68e06af,2021-10-21_15h13.54.085,arrow_simon_punish,2021.1.2,Win32,59.94485074,,,,,,,,,,,,,,w,1,1.5858,2.479079823,0,1,2,1,9,2,1,,,,,,,,,,,,,,
,,,,,,,,,,,left.png,,w,left,615f87082ac0e636b68e06af,2021-10-21_15h13.54.085,arrow_simon_punish,2021.1.2,Win32,59.94485074,,,,,,,,,,,,,,w,1,1.5984,2.464828976,0,1,2,2,10,2,1,,,,,,,,,,,,,,
,,,,,,,,,,,left.png,,w,right,615f87082ac0e636b68e06af,2021-10-21_15h13.54.085,arrow_simon_punish,2021.1.2,Win32,59.94485074,,,,,,,,,,,,,,w,1,1.3991,1.795227727,1,1,2,3,11,3,1,,,,,,,,,,,,,,
,,,,,,,,,,,left.png,,w,left,615f87082ac0e636b68e06af,2021-10-21_15h13.54.085,arrow_simon_punish,2021.1.2,Win32,59.94485074,,,,,,,,,,,,,,w,1,1.4084,1.624317179,0,1,3,0,12,2,1,,,,,,,,,,,,,,
,,,,,,,,,,,right.png,,p,left,615f87082ac0e636b68e06af,2021-10-21_15h13.54.085,arrow_simon_punish,2021.1.2,Win32,59.94485074,,,,,,,,,,,,,,p,1,1.4225,1.890901865,0,1,3,1,13,0,1,,,,,,,,,,,,,,
,,,,,,,,,,,right.png,,p,right,615f87082ac0e636b68e06af,2021-10-21_15h13.54.085,arrow_simon_punish,2021.1.2,Win32,59.94485074,,,,,,,,,,,,,,p,1,1.5212,1.735907651,0,1,3,2,14,1,1,,,,,,,,,,,,,,
,,,,,,,,,,,left.png,,w,left,615f87082ac0e636b68e06af,2021-10-21_15h13.54.085,arrow_simon_punish,2021.1.2,Win32,59.94485074,,,,,,,,,,,,,,w,1,1.4973,2.071048367,0,1,3,3,15,2,1,,,,,,,,,,,,,,
,,,,,,,,,,,left.png,,w,right,615f87082ac0e636b68e06af,2021-10-21_15h13.54.085,arrow_simon_punish,2021.1.2,Win32,59.94485074,,,,,,,,,,,,,,w,1,1.6351,1.746086827,1,1,4,0,16,3,1,,,,,,,,,,,,,,
,,,,,,,,,,,left.png,,w,right,615f87082ac0e636b68e06af,2021-10-21_15h13.54.085,arrow_simon_punish,2021.1.2,Win32,59.94485074,,,,,,,,,,,,,,w,1,1.6264,2.008588322,1,1,4,1,17,3,1,,,,,,,,,,,,,,
,,,,,,,,,,,left.png,,w,right,615f87082ac0e636b68e06af,2021-10-21_15h13.54.085,arrow_simon_punish,2021.1.2,Win32,59.94485074,,,,,,,,,,,,,,w,1,1.4692,1.70552706,0,1,4,2,18,3,1,,,,,,,,,,,,,,
,,,,,,,,,,,right.png,,p,right,615f87082ac0e636b68e06af,2021-10-21_15h13.54.085,arrow_simon_punish,2021.1.2,Win32,59.94485074,,,,,,,,,,,,,,p,1,1.532,1.799484976,0,1,4,3,19,1,1,,,,,,,,,,,,,,
,,,,,,,,,,,left.png,,w,right,615f87082ac0e636b68e06af,2021-10-21_15h13.54.085,arrow_simon_punish,2021.1.2,Win32,59.94485074,,,,,,,,,,,,,,w,1,1.3704,2.050909188,1,1,5,0,20,3,1,,,,,,,,,,,,,,
,,,,,,,,,,,left.png,,w,left,615f87082ac0e636b68e06af,2021-10-21_15h13.54.085,arrow_simon_punish,2021.1.2,Win32,59.94485074,,,,,,,,,,,,,,w,1,1.6386,1.982461391,1,1,5,1,21,2,1,,,,,,,,,,,,,,
,,,,,,,,,,,left.png,,w,right,615f87082ac0e636b68e06af,2021-10-21_15h13.54.085,arrow_simon_punish,2021.1.2,Win32,59.94485074,,,,,,,,,,,,,,w,1,1.5703,2.139478898,0,1,5,2,22,3,1,,,,,,,,,,,,,,
,,,,,,,,,,,left.png,,w,left,615f87082ac0e636b68e06af,2021-10-21_15h13.54.085,arrow_simon_punish,2021.1.2,Win32,59.94485074,,,,,,,,,,,,,,w,1,1.7262,2.156576012,1,1,5,3,23,2,1,,,,,,,,,,,,,,
,,,,,,,,,,,right.png,,p,right,615f87082ac0e636b68e06af,2021-10-21_15h13.54.085,arrow_simon_punish,2021.1.2,Win32,59.94485074,,,,,,,,,,,,,,p,1,1.2977,1.911955588,1,1,6,0,24,1,1,,,,,,,,,,,,,,
,,,,,,,,,,,left.png,,w,right,615f87082ac0e636b68e06af,2021-10-21_15h13.54.085,arrow_simon_punish,2021.1.2,Win32,59.94485074,,,,,,,,,,,,,,w,1,1.3018,1.789009906,1,1,6,1,25,3,1,,,,,,,,,,,,,,
,,,,,,,,,,,right.png,,p,right,615f87082ac0e636b68e06af,2021-10-21_15h13.54.085,arrow_simon_punish,2021.1.2,Win32,59.94485074,,,,,,,,,,,,,,p,1,1.4792,1.713977819,0,1,6,2,26,1,1,,,,,,,,,,,,,,
,,,,,,,,,,,right.png,,p,right,615f87082ac0e636b68e06af,2021-10-21_15h13.54.085,arrow_simon_punish,2021.1.2,Win32,59.94485074,,,,,,,,,,,,,,p,1,1.5061,1.613120942,0,1,6,3,27,1,1,,,,,,,,,,,,,,
,,,,,,,,,,,left.png,,w,right,615f87082ac0e636b68e06af,2021-10-21_15h13.54.085,arrow_simon_punish,2021.1.2,Win32,59.94485074,,,,,,,,,,,,,,w,1,1.6096,2.458171402,1,1,7,0,28,3,1,,,,,,,,,,,,,,
,,,,,,,,,,,right.png,,p,right,615f87082ac0e636b68e06af,2021-10-21_15h13.54.085,arrow_simon_punish,2021.1.2,Win32,59.94485074,,,,,,,,,,,,,,p,1,1.5111,1.919382722,0,1,7,1,29,1,1,,,,,,,,,,,,,,
,,,,,,,,,,,left.png,,w,left,615f87082ac0e636b68e06af,2021-10-21_15h13.54.085,arrow_simon_punish,2021.1.2,Win32,59.94485074,,,,,,,,,,,,,,w,1,1.5856,2.49927333,0,1,7,2,30,2,1,,,,,,,,,,,,,,
,,,,,,,,,,,right.png,,p,left,615f87082ac0e636b68e06af,2021-10-21_15h13.54.085,arrow_simon_punish,2021.1.2,Win32,59.94485074,,,,,,,,,,,,,,p,1,1.6348,2.091844311,1,1,7,3,31,0,1,,,,,,,,,,,,,,
,,,,,,,,,,,right.png,,p,left,615f87082ac0e636b68e06af,2021-10-21_15h13.54.085,arrow_simon_punish,2021.1.2,Win32,59.94485074,,,,,,,,,,,,,,p,1,1.3682,1.682670957,1,1,8,0,32,0,1,,,,,,,,,,,,,,
,,,,,,,,,,,right.png,,p,right,615f87082ac0e636b68e06af,2021-10-21_15h13.54.085,arrow_simon_punish,2021.1.2,Win32,59.94485074,,,,,,,,,,,,,,p,1,1.4071,1.609682243,0,1,8,1,33,1,1,,,,,,,,,,,,,,
,,,,,,,,,,,right.png,,p,left,615f87082ac0e636b68e06af,2021-10-21_15h13.54.085,arrow_simon_punish,2021.1.2,Win32,59.94485074,,,,,,,,,,,,,,p,1,1.6476,2.347602514,1,1,8,2,34,0,1,,,,,,,,,,,,,,
,,,,,,,,,,,right.png,,p,left,615f87082ac0e636b68e06af,2021-10-21_15h13.54.085,arrow_simon_punish,2021.1.2,Win32,59.94485074,,,,,,,,,,,,,,p,1,1.4116,1.650466741,0,1,8,3,35,0,1,,,,,,,,,,,,,,
,,,,,,,,,,,left.png,,w,left,615f87082ac0e636b68e06af,2021-10-21_15h13.54.085,arrow_simon_punish,2021.1.2,Win32,59.94485074,,,,,,,,,,,,,,w,1,1.4442,1.876946614,0,1,9,0,36,2,1,,,,,,,,,,,,,,
,,,,,,,,,,,right.png,,p,left,615f87082ac0e636b68e06af,2021-10-21_15h13.54.085,arrow_simon_punish,2021.1.2,Win32,59.94485074,,,,,,,,,,,,,,p,1,1.7047,2.426847872,1,1,9,1,37,0,1,,,,,,,,,,,,,,
,,,,,,,,,,,left.png,,w,left,615f87082ac0e636b68e06af,2021-10-21_15h13.54.085,arrow_simon_punish,2021.1.2,Win32,59.94485074,,,,,,,,,,,,,,w,1,1.6092,1.822888607,1,1,9,2,38,2,1,,,,,,,,,,,,,,
,,,,,,,,,,,right.png,,p,right,615f87082ac0e636b68e06af,2021-10-21_15h13.54.085,arrow_simon_punish,2021.1.2,Win32,59.94485074,,,,,,,,,,,,,,p,1,1.8065,1.924000948,1,1,9,3,39,1,1,,,,,,,,,,,,,,
,,,,,,,,,,,left.png,,w,right,615f87082ac0e636b68e06af,2021-10-21_15h13.54.085,arrow_simon_punish,2021.1.2,Win32,59.94485074,,,,,,,,,,,,,,w,1,1.6771,1.809544244,1,1,10,0,40,3,1,,,,,,,,,,,,,,
,,,,,,,,,,,right.png,,p,right,615f87082ac0e636b68e06af,2021-10-21_15h13.54.085,arrow_simon_punish,2021.1.2,Win32,59.94485074,,,,,,,,,,,,,,p,1,1.4798,1.959857085,0,1,10,1,41,1,1,,,,,,,,,,,,,,
,,,,,,,,,,,left.png,,w,left,615f87082ac0e636b68e06af,2021-10-21_15h13.54.085,arrow_simon_punish,2021.1.2,Win32,59.94485074,,,,,,,,,,,,,,w,1,1.2545,1.568096776,1,1,10,2,42,2,1,,,,,,,,,,,,,,
,,,,,,,,,,,left.png,,w,left,615f87082ac0e636b68e06af,2021-10-21_15h13.54.085,arrow_simon_punish,2021.1.2,Win32,59.94485074,,,,,,,,,,,,,,w,1,1.4597,1.684523694,0,1,10,3,43,2,1,,,,,,,,,,,,,,
,,,,,,,,,,,right.png,,p,right,615f87082ac0e636b68e06af,2021-10-21_15h13.54.085,arrow_simon_punish,2021.1.2,Win32,59.94485074,,,,,,,,,,,,,,p,1,1.4916,1.988304494,0,1,11,0,44,1,1,,,,,,,,,,,,,,
,,,,,,,,,,,left.png,,w,right,615f87082ac0e636b68e06af,2021-10-21_15h13.54.085,arrow_simon_punish,2021.1.2,Win32,59.94485074,,,,,,,,,,,,,,w,1,1.5076,1.56701508,0,1,11,1,45,3,1,,,,,,,,,,,,,,
,,,,,,,,,,,left.png,,w,left,615f87082ac0e636b68e06af,2021-10-21_15h13.54.085,arrow_simon_punish,2021.1.2,Win32,59.94485074,,,,,,,,,,,,,,w,1,1.3498,1.594985792,1,1,11,2,46,2,1,,,,,,,,,,,,,,
,,,,,,,,,,,right.png,,p,right,615f87082ac0e636b68e06af,2021-10-21_15h13.54.085,arrow_simon_punish,2021.1.2,Win32,59.94485074,,,,,,,,,,,,,,p,1,1.4484,2.034236693,0,1,11,3,47,1,1,,,,,,,,,,,,,,
,,,,,,,,,,,right.png,,p,left,615f87082ac0e636b68e06af,2021-10-21_15h13.54.085,arrow_simon_punish,2021.1.2,Win32,59.94485074,,,,,,,,,,,,,,p,1,1.6017,2.342630907,1,1,12,0,48,0,1,,,,,,,,,,,,,,
,,,,,,,,,,,left.png,,w,left,615f87082ac0e636b68e06af,2021-10-21_15h13.54.085,arrow_simon_punish,2021.1.2,Win32,59.94485074,,,,,,,,,,,,,,w,1,1.4513,2.265165105,0,1,12,1,49,2,1,,,,,,,,,,,,,,
,,,,,,,,,,,right.png,,p,right,615f87082ac0e636b68e06af,2021-10-21_15h13.54.085,arrow_simon_punish,2021.1.2,Win32,59.94485074,,,,,,,,,,,,,,p,1,1.3795,1.595056645,1,1,12,2,50,1,1,,,,,,,,,,,,,,
,,,,,,,,,,,left.png,,w,right,615f87082ac0e636b68e06af,2021-10-21_15h13.54.085,arrow_simon_punish,2021.1.2,Win32,59.94485074,,,,,,,,,,,,,,w,1,1.4016,2.045138019,0,1,12,3,51,3,1,,,,,,,,,,,,,,
,,,,,,,,,,,left.png,,w,left,615f87082ac0e636b68e06af,2021-10-21_15h13.54.085,arrow_simon_punish,2021.1.2,Win32,59.94485074,,,,,,,,,,,,,,w,1,1.253,1.862184012,1,1,13,0,52,2,1,,,,,,,,,,,,,,
,,,,,,,,,,,right.png,,p,left,615f87082ac0e636b68e06af,2021-10-21_15h13.54.085,arrow_simon_punish,2021.1.2,Win32,59.94485074,,,,,,,,,,,,,,p,1,1.5787,2.448613949,0,1,13,1,53,0,1,,,,,,,,,,,,,,
,,,,,,,,,,,right.png,,p,left,615f87082ac0e636b68e06af,2021-10-21_15h13.54.085,arrow_simon_punish,2021.1.2,Win32,59.94485074,,,,,,,,,,,,,,p,1,1.8284,2.485400989,1,1,13,2,54,0,1,,,,,,,,,,,,,,
,,,,,,,,,,,left.png,,w,right,615f87082ac0e636b68e06af,2021-10-21_15h13.54.085,arrow_simon_punish,2021.1.2,Win32,59.94485074,,,,,,,,,,,,,,w,1,1.4918,1.695989459,0,1,13,3,55,3,1,,,,,,,,,,,,,,
,,,,,,,,,,,right.png,,p,left,615f87082ac0e636b68e06af,2021-10-21_15h13.54.085,arrow_simon_punish,2021.1.2,Win32,59.94485074,,,,,,,,,,,,,,p,1,1.3116,1.70719876,1,1,14,0,56,0,1,,,,,,,,,,,,,,
,,,,,,,,,,,right.png,,p,right,615f87082ac0e636b68e06af,2021-10-21_15h13.54.085,arrow_simon_punish,2021.1.2,Win32,59.94485074,,,,,,,,,,,,,,p,1,1.3578,1.708638835,1,1,14,1,57,1,1,,,,,,,,,,,,,,
,,,,,,,,,,,right.png,,p,right,615f87082ac0e636b68e06af,2021-10-21_15h13.54.085,arrow_simon_punish,2021.1.2,Win32,59.94485074,,,,,,,,,,,,,,p,1,1.287,1.659275155,1,1,14,2,58,1,1,,,,,,,,,,,,,,
,,,,,,,,,,,left.png,,w,left,615f87082ac0e636b68e06af,2021-10-21_15h13.54.085,arrow_simon_punish,2021.1.2,Win32,59.94485074,,,,,,,,,,,,,,w,1,1.575,2.394815001,0,1,14,3,59,2,1,,,,,,,,,,,,,,
,,,,,,,,,,,,,,,615f87082ac0e636b68e06af,2021-10-21_15h13.54.085,arrow_simon_punish,2021.1.2,Win32,59.94485074,,,,,,,,,,,,,,,,,,,,,,,,,space,8.1133,6,2,0,4,0,1,1,,,,,
,,,,,,,,,,,right.png,,p,right,615f87082ac0e636b68e06af,2021-10-21_15h13.54.085,arrow_simon_punish,2021.1.2,Win32,59.94485074,,,,,,,,,,,,,,p,1,1.3923,1.972329467,1,5,0,0,0,1,1,,,,,,,,,,,,,,
,,,,,,,,,,,left.png,,w,right,615f87082ac0e636b68e06af,2021-10-21_15h13.54.085,arrow_simon_punish,2021.1.2,Win32,59.94485074,,,,,,,,,,,,,,w,1,1.6095,2.330203138,1,5,0,1,1,3,1,,,,,,,,,,,,,,
,,,,,,,,,,,right.png,,p,right,615f87082ac0e636b68e06af,2021-10-21_15h13.54.085,arrow_simon_punish,2021.1.2,Win32,59.94485074,,,,,,,,,,,,,,p,1,1.3066,1.732748275,1,5,0,2,2,1,1,,,,,,,,,,,,,,
,,,,,,,,,,,left.png,,w,right,615f87082ac0e636b68e06af,2021-10-21_15h13.54.085,arrow_simon_punish,2021.1.2,Win32,59.94485074,,,,,,,,,,,,,,w,1,1.4499,2.321636313,0,5,0,3,3,3,1,,,,,,,,,,,,,,
,,,,,,,,,,,right.png,,p,right,615f87082ac0e636b68e06af,2021-10-21_15h13.54.085,arrow_simon_punish,2021.1.2,Win32,59.94485074,,,,,,,,,,,,,,p,1,1.3792,2.478748044,1,5,1,0,4,1,1,,,,,,,,,,,,,,
,,,,,,,,,,,left.png,,w,left,615f87082ac0e636b68e06af,2021-10-21_15h13.54.085,arrow_simon_punish,2021.1.2,Win32,59.94485074,,,,,,,,,,,,,,w,1,1.3607,1.512464917,1,5,1,1,5,2,1,,,,,,,,,,,,,,
,,,,,,,,,,,left.png,,w,left,615f87082ac0e636b68e06af,2021-10-21_15h13.54.085,arrow_simon_punish,2021.1.2,Win32,59.94485074,,,,,,,,,,,,,,w,1,1.383,1.943867177,1,5,1,2,6,2,1,,,,,,,,,,,,,,
,,,,,,,,,,,left.png,,w,right,615f87082ac0e636b68e06af,2021-10-21_15h13.54.085,arrow_simon_punish,2021.1.2,Win32,59.94485074,,,,,,,,,,,,,,w,1,1.497,2.232103322,0,5,1,3,7,3,1,,,,,,,,,,,,,,
,,,,,,,,,,,left.png,,w,left,615f87082ac0e636b68e06af,2021-10-21_15h13.54.085,arrow_simon_punish,2021.1.2,Win32,59.94485074,,,,,,,,,,,,,,w,1,1.4261,2.344831037,0,5,2,0,8,2,1,,,,,,,,,,,,,,
,,,,,,,,,,,right.png,,p,left,615f87082ac0e636b68e06af,2021-10-21_15h13.54.085,arrow_simon_punish,2021.1.2,Win32,59.94485074,,,,,,,,,,,,,,p,1,1.3265,1.552026005,1,5,2,1,9,0,1,,,,,,,,,,,,,,
,,,,,,,,,,,right.png,,p,right,615f87082ac0e636b68e06af,2021-10-21_15h13.54.085,arrow_simon_punish,2021.1.2,Win32,59.94485074,,,,,,,,,,,,,,p,1,1.3486,1.9446164,1,5,2,2,10,1,1,,,,,,,,,,,,,,
,,,,,,,,,,,right.png,,p,right,615f87082ac0e636b68e06af,2021-10-21_15h13.54.085,arrow_simon_punish,2021.1.2,Win32,59.94485074,,,,,,,,,,,,,,p,1,1.4314,1.677829232,0,5,2,3,11,1,1,,,,,,,,,,,,,,
,,,,,,,,,,,right.png,,p,left,615f87082ac0e636b68e06af,2021-10-21_15h13.54.085,arrow_simon_punish,2021.1.2,Win32,59.94485074,,,,,,,,,,,,,,p,1,1.4311,1.512304111,0,5,3,0,12,0,1,,,,,,,,,,,,,,
,,,,,,,,,,,right.png,,p,left,615f87082ac0e636b68e06af,2021-10-21_15h13.54.085,arrow_simon_punish,2021.1.2,Win32,59.94485074,,,,,,,,,,,,,,p,1,1.6468,2.458302095,1,5,3,1,13,0,1,,,,,,,,,,,,,,
,,,,,,,,,,,right.png,,p,left,615f87082ac0e636b68e06af,2021-10-21_15h13.54.085,arrow_simon_punish,2021.1.2,Win32,59.94485074,,,,,,,,,,,,,,p,1,1.6332,2.404523952,1,5,3,2,14,0,1,,,,,,,,,,,,,,
,,,,,,,,,,,left.png,,w,left,615f87082ac0e636b68e06af,2021-10-21_15h13.54.085,arrow_simon_punish,2021.1.2,Win32,59.94485074,,,,,,,,,,,,,,w,1,1.2642,1.837636297,1,5,3,3,15,2,1,,,,,,,,,,,,,,
,,,,,,,,,,,left.png,,w,right,615f87082ac0e636b68e06af,2021-10-21_15h13.54.085,arrow_simon_punish,2021.1.2,Win32,59.94485074,,,,,,,,,,,,,,w,1,1.3762,2.096452897,1,5,4,0,16,3,1,,,,,,,,,,,,,,
,,,,,,,,,,,right.png,,p,left,615f87082ac0e636b68e06af,2021-10-21_15h13.54.085,arrow_simon_punish,2021.1.2,Win32,59.94485074,,,,,,,,,,,,,,p,1,1.7064,1.678726862,1,5,4,1,17,0,1,,,,,,,,,,,,,,
,,,,,,,,,,,right.png,,p,right,615f87082ac0e636b68e06af,2021-10-21_15h13.54.085,arrow_simon_punish,2021.1.2,Win32,59.94485074,,,,,,,,,,,,,,p,1,1.4729,2.320677114,0,5,4,2,18,1,1,,,,,,,,,,,,,,
,,,,,,,,,,,left.png,,w,left,615f87082ac0e636b68e06af,2021-10-21_15h13.54.085,arrow_simon_punish,2021.1.2,Win32,59.94485074,,,,,,,,,,,,,,w,1,1.5181,2.430353844,0,5,4,3,19,2,1,,,,,,,,,,,,,,
,,,,,,,,,,,right.png,,p,left,615f87082ac0e636b68e06af,2021-10-21_15h13.54.085,arrow_simon_punish,2021.1.2,Win32,59.94485074,,,,,,,,,,,,,,p,1,1.4318,2.004546545,0,5,5,0,20,0,1,,,,,,,,,,,,,,
,,,,,,,,,,,right.png,,p,left,615f87082ac0e636b68e06af,2021-10-21_15h13.54.085,arrow_simon_punish,2021.1.2,Win32,59.94485074,,,,,,,,,,,,,,p,1,1.4875,1.700614589,0,5,5,1,21,0,1,,,,,,,,,,,,,,
,,,,,,,,,,,left.png,,w,right,615f87082ac0e636b68e06af,2021-10-21_15h13.54.085,arrow_simon_punish,2021.1.2,Win32,59.94485074,,,,,,,,,,,,,,w,1,1.4204,2.241848046,0,5,5,2,22,3,1,,,,,,,,,,,,,,
,,,,,,,,,,,left.png,,w,left,615f87082ac0e636b68e06af,2021-10-21_15h13.54.085,arrow_simon_punish,2021.1.2,Win32,59.94485074,,,,,,,,,,,,,,w,1,1.4847,1.78731187,0,5,5,3,23,2,1,,,,,,,,,,,,,,
,,,,,,,,,,,left.png,,w,right,615f87082ac0e636b68e06af,2021-10-21_15h13.54.085,arrow_simon_punish,2021.1.2,Win32,59.94485074,,,,,,,,,,,,,,w,1,1.4395,1.624725504,0,5,6,0,24,3,1,,,,,,,,,,,,,,
,,,,,,,,,,,right.png,,p,right,615f87082ac0e636b68e06af,2021-10-21_15h13.54.085,arrow_simon_punish,2021.1.2,Win32,59.94485074,,,,,,,,,,,,,,p,1,1.5187,2.066922407,0,5,6,1,25,1,1,,,,,,,,,,,,,,
,,,,,,,,,,,right.png,,p,right,615f87082ac0e636b68e06af,2021-10-21_15h13.54.085,arrow_simon_punish,2021.1.2,Win32,59.94485074,,,,,,,,,,,,,,p,1,1.4932,1.671698576,0,5,6,2,26,1,1,,,,,,,,,,,,,,
,,,,,,,,,,,left.png,,w,left,615f87082ac0e636b68e06af,2021-10-21_15h13.54.085,arrow_simon_punish,2021.1.2,Win32,59.94485074,,,,,,,,,,,,,,w,1,1.3193,1.774474375,1,5,6,3,27,2,1,,,,,,,,,,,,,,
,,,,,,,,,,,right.png,,p,left,615f87082ac0e636b68e06af,2021-10-21_15h13.54.085,arrow_simon_punish,2021.1.2,Win32,59.94485074,,,,,,,,,,,,,,p,1,1.5496,1.775612047,0,5,7,0,28,0,1,,,,,,,,,,,,,,
,,,,,,,,,,,right.png,,p,left,615f87082ac0e636b68e06af,2021-10-21_15h13.54.085,arrow_simon_punish,2021.1.2,Win32,59.94485074,,,,,,,,,,,,,,p,1,1.7073,1.986299956,1,5,7,1,29,0,1,,,,,,,,,,,,,,
,,,,,,,,,,,right.png,,p,right,615f87082ac0e636b68e06af,2021-10-21_15h13.54.085,arrow_simon_punish,2021.1.2,Win32,59.94485074,,,,,,,,,,,,,,p,1,1.6292,2.071702744,1,5,7,2,30,1,1,,,,,,,,,,,,,,
,,,,,,,,,,,right.png,,p,right,615f87082ac0e636b68e06af,2021-10-21_15h13.54.085,arrow_simon_punish,2021.1.2,Win32,59.94485074,,,,,,,,,,,,,,p,1,1.4184,1.770517925,0,5,7,3,31,1,1,,,,,,,,,,,,,,
,,,,,,,,,,,left.png,,w,left,615f87082ac0e636b68e06af,2021-10-21_15h13.54.085,arrow_simon_punish,2021.1.2,Win32,59.94485074,,,,,,,,,,,,,,w,1,1.3233,1.832875141,1,5,8,0,32,2,1,,,,,,,,,,,,,,
,,,,,,,,,,,left.png,,w,right,615f87082ac0e636b68e06af,2021-10-21_15h13.54.085,arrow_simon_punish,2021.1.2,Win32,59.94485074,,,,,,,,,,,,,,w,1,1.7226,2.218754993,1,5,8,1,33,3,1,,,,,,,,,,,,,,
,,,,,,,,,,,right.png,,p,right,615f87082ac0e636b68e06af,2021-10-21_15h13.54.085,arrow_simon_punish,2021.1.2,Win32,59.94485074,,,,,,,,,,,,,,p,1,1.655,1.871872255,1,5,8,2,34,1,1,,,,,,,,,,,,,,
,,,,,,,,,,,left.png,,w,left,615f87082ac0e636b68e06af,2021-10-21_15h13.54.085,arrow_simon_punish,2021.1.2,Win32,59.94485074,,,,,,,,,,,,,,w,1,1.4,1.853558281,1,5,8,3,35,2,1,,,,,,,,,,,,,,
,,,,,,,,,,,right.png,,p,left,615f87082ac0e636b68e06af,2021-10-21_15h13.54.085,arrow_simon_punish,2021.1.2,Win32,59.94485074,,,,,,,,,,,,,,p,1,1.3847,2.239888359,1,5,9,0,36,0,1,,,,,,,,,,,,,,
,,,,,,,,,,,right.png,,p,right,615f87082ac0e636b68e06af,2021-10-21_15h13.54.085,arrow_simon_punish,2021.1.2,Win32,59.94485074,,,,,,,,,,,,,,p,1,1.3829,2.486811575,1,5,9,1,37,1,1,,,,,,,,,,,,,,
,,,,,,,,,,,right.png,,p,left,615f87082ac0e636b68e06af,2021-10-21_15h13.54.085,arrow_simon_punish,2021.1.2,Win32,59.94485074,,,,,,,,,,,,,,p,1,1.2684,1.803285416,1,5,9,2,38,0,1,,,,,,,,,,,,,,
,,,,,,,,,,,left.png,,w,left,615f87082ac0e636b68e06af,2021-10-21_15h13.54.085,arrow_simon_punish,2021.1.2,Win32,59.94485074,,,,,,,,,,,,,,w,1,1.6037,2.096909965,1,5,9,3,39,2,1,,,,,,,,,,,,,,
,,,,,,,,,,,left.png,,w,left,615f87082ac0e636b68e06af,2021-10-21_15h13.54.085,arrow_simon_punish,2021.1.2,Win32,59.94485074,,,,,,,,,,,,,,w,1,1.5764,2.150091566,0,5,10,0,40,2,1,,,,,,,,,,,,,,
,,,,,,,,,,,left.png,,w,right,615f87082ac0e636b68e06af,2021-10-21_15h13.54.085,arrow_simon_punish,2021.1.2,Win32,59.94485074,,,,,,,,,,,,,,w,1,1.4834,2.00770763,0,5,10,1,41,3,1,,,,,,,,,,,,,,
,,,,,,,,,,,left.png,,w,left,615f87082ac0e636b68e06af,2021-10-21_15h13.54.085,arrow_simon_punish,2021.1.2,Win32,59.94485074,,,,,,,,,,,,,,w,1,1.255,1.998333207,1,5,10,2,42,2,1,,,,,,,,,,,,,,
,,,,,,,,,,,left.png,,w,right,615f87082ac0e636b68e06af,2021-10-21_15h13.54.085,arrow_simon_punish,2021.1.2,Win32,59.94485074,,,,,,,,,,,,,,w,1,1.9746,2.432944322,1,5,10,3,43,3,1,,,,,,,,,,,,,,
,,,,,,,,,,,left.png,,w,right,615f87082ac0e636b68e06af,2021-10-21_15h13.54.085,arrow_simon_punish,2021.1.2,Win32,59.94485074,,,,,,,,,,,,,,w,1,1.8975,2.329519081,1,5,11,0,44,3,1,,,,,,,,,,,,,,
,,,,,,,,,,,left.png,,w,left,615f87082ac0e636b68e06af,2021-10-21_15h13.54.085,arrow_simon_punish,2021.1.2,Win32,59.94485074,,,,,,,,,,,,,,w,1,1.7303,2.453134415,1,5,11,1,45,2,1,,,,,,,,,,,,,,
,,,,,,,,,,,left.png,,w,right,615f87082ac0e636b68e06af,2021-10-21_15h13.54.085,arrow_simon_punish,2021.1.2,Win32,59.94485074,,,,,,,,,,,,,,w,1,1.4295,2.069051575,0,5,11,2,46,3,1,,,,,,,,,,,,,,
,,,,,,,,,,,left.png,,w,right,615f87082ac0e636b68e06af,2021-10-21_15h13.54.085,arrow_simon_punish,2021.1.2,Win32,59.94485074,,,,,,,,,,,,,,w,1,1.5058,1.853364995,0,5,11,3,47,3,1,,,,,,,,,,,,,,
,,,,,,,,,,,right.png,,p,right,615f87082ac0e636b68e06af,2021-10-21_15h13.54.085,arrow_simon_punish,2021.1.2,Win32,59.94485074,,,,,,,,,,,,,,p,1,1.512,2.349307497,0,5,12,0,48,1,1,,,,,,,,,,,,,,
,,,,,,,,,,,left.png,,w,left,615f87082ac0e636b68e06af,2021-10-21_15h13.54.085,arrow_simon_punish,2021.1.2,Win32,59.94485074,,,,,,,,,,,,,,w,1,1.4524,1.960043932,0,5,12,1,49,2,1,,,,,,,,,,,,,,
,,,,,,,,,,,left.png,,w,right,615f87082ac0e636b68e06af,2021-10-21_15h13.54.085,arrow_simon_punish,2021.1.2,Win32,59.94485074,,,,,,,,,,,,,,w,1,1.4555,1.943457729,0,5,12,2,50,3,1,,,,,,,,,,,,,,
,,,,,,,,,,,left.png,,w,right,615f87082ac0e636b68e06af,2021-10-21_15h13.54.085,arrow_simon_punish,2021.1.2,Win32,59.94485074,,,,,,,,,,,,,,w,1,1.4927,2.139482427,0,5,12,3,51,3,1,,,,,,,,,,,,,,
,,,,,,,,,,,right.png,,p,left,615f87082ac0e636b68e06af,2021-10-21_15h13.54.085,arrow_simon_punish,2021.1.2,Win32,59.94485074,,,,,,,,,,,,,,p,1,1.5278,2.133739874,0,5,13,0,52,0,1,,,,,,,,,,,,,,
,,,,,,,,,,,left.png,,w,left,615f87082ac0e636b68e06af,2021-10-21_15h13.54.085,arrow_simon_punish,2021.1.2,Win32,59.94485074,,,,,,,,,,,,,,w,1,1.5319,1.792943132,0,5,13,1,53,2,1,,,,,,,,,,,,,,
,,,,,,,,,,,right.png,,p,right,615f87082ac0e636b68e06af,2021-10-21_15h13.54.085,arrow_simon_punish,2021.1.2,Win32,59.94485074,,,,,,,,,,,,,,p,1,1.7017,2.412181193,1,5,13,2,54,1,1,,,,,,,,,,,,,,
,,,,,,,,,,,left.png,,w,right,615f87082ac0e636b68e06af,2021-10-21_15h13.54.085,arrow_simon_punish,2021.1.2,Win32,59.94485074,,,,,,,,,,,,,,w,1,1.4787,2.048869826,0,5,13,3,55,3,1,,,,,,,,,,,,,,
,,,,,,,,,,,right.png,,p,left,615f87082ac0e636b68e06af,2021-10-21_15h13.54.085,arrow_simon_punish,2021.1.2,Win32,59.94485074,,,,,,,,,,,,,,p,1,1.5672,2.457254396,0,5,14,0,56,0,1,,,,,,,,,,,,,,
,,,,,,,,,,,right.png,,p,right,615f87082ac0e636b68e06af,2021-10-21_15h13.54.085,arrow_simon_punish,2021.1.2,Win32,59.94485074,,,,,,,,,,,,,,p,1,1.4852,1.877005344,0,5,14,1,57,1,1,,,,,,,,,,,,,,
,,,,,,,,,,,right.png,,p,left,615f87082ac0e636b68e06af,2021-10-21_15h13.54.085,arrow_simon_punish,2021.1.2,Win32,59.94485074,,,,,,,,,,,,,,p,1,1.4925,1.912977411,0,5,14,2,58,0,1,,,,,,,,,,,,,,
,,,,,,,,,,,right.png,,p,left,615f87082ac0e636b68e06af,2021-10-21_15h13.54.085,arrow_simon_punish,2021.1.2,Win32,59.94485074,,,,,,,,,,,,,,p,1,1.5264,2.356161648,0,5,14,3,59,0,1,,,,,,,,,,,,,,
,,,,,,,,,,,,,,,615f87082ac0e636b68e06af,2021-10-21_15h13.54.085,arrow_simon_punish,2021.1.2,Win32,59.94485074,,,,,,,,,,,,,,,,,,,,,,,,,space,12.0579,7,2,1,5,1,1,5,,,,,
,,,,,,,,,,,right.png,,p,right,615f87082ac0e636b68e06af,2021-10-21_15h13.54.085,arrow_simon_punish,2021.1.2,Win32,59.94485074,,,,,,,,,,,,,,p,1,1.4515,2.018040288,0,1,0,0,0,1,1,,,,,,,,,,,,,,
,,,,,,,,,,,left.png,,w,left,615f87082ac0e636b68e06af,2021-10-21_15h13.54.085,arrow_simon_punish,2021.1.2,Win32,59.94485074,,,,,,,,,,,,,,w,1,1.6793,2.152645174,1,1,0,1,1,2,1,,,,,,,,,,,,,,
,,,,,,,,,,,left.png,,w,left,615f87082ac0e636b68e06af,2021-10-21_15h13.54.085,arrow_simon_punish,2021.1.2,Win32,59.94485074,,,,,,,,,,,,,,w,1,1.4585,2.265075813,0,1,0,2,2,2,1,,,,,,,,,,,,,,
,,,,,,,,,,,left.png,,w,right,615f87082ac0e636b68e06af,2021-10-21_15h13.54.085,arrow_simon_punish,2021.1.2,Win32,59.94485074,,,,,,,,,,,,,,w,1,1.4348,1.595807044,0,1,0,3,3,3,1,,,,,,,,,,,,,,
,,,,,,,,,,,right.png,,p,left,615f87082ac0e636b68e06af,2021-10-21_15h13.54.085,arrow_simon_punish,2021.1.2,Win32,59.94485074,,,,,,,,,,,,,,p,1,1.4981,1.694477256,0,1,1,0,4,0,1,,,,,,,,,,,,,,
,,,,,,,,,,,right.png,,p,right,615f87082ac0e636b68e06af,2021-10-21_15h13.54.085,arrow_simon_punish,2021.1.2,Win32,59.94485074,,,,,,,,,,,,,,p,1,1.4593,2.009541291,0,1,1,1,5,1,1,,,,,,,,,,,,,,
,,,,,,,,,,,right.png,,p,right,615f87082ac0e636b68e06af,2021-10-21_15h13.54.085,arrow_simon_punish,2021.1.2,Win32,59.94485074,,,,,,,,,,,,,,p,1,1.4817,1.735965355,0,1,1,2,6,1,1,,,,,,,,,,,,,,
,,,,,,,,,,,left.png,,w,left,615f87082ac0e636b68e06af,2021-10-21_15h13.54.085,arrow_simon_punish,2021.1.2,Win32,59.94485074,,,,,,,,,,,,,,w,1,1.4485,1.878863117,0,1,1,3,7,2,1,,,,,,,,,,,,,,
,,,,,,,,,,,right.png,,p,right,615f87082ac0e636b68e06af,2021-10-21_15h13.54.085,arrow_simon_punish,2021.1.2,Win32,59.94485074,,,,,,,,,,,,,,p,1,1.4343,1.864577305,0,1,2,0,8,1,1,,,,,,,,,,,,,,
,,,,,,,,,,,right.png,,p,right,615f87082ac0e636b68e06af,2021-10-21_15h13.54.085,arrow_simon_punish,2021.1.2,Win32,59.94485074,,,,,,,,,,,,,,p,1,1.5349,2.419918673,0,1,2,1,9,1,1,,,,,,,,,,,,,,
,,,,,,,,,,,left.png,,w,left,615f87082ac0e636b68e06af,2021-10-21_15h13.54.085,arrow_simon_punish,2021.1.2,Win32,59.94485074,,,,,,,,,,,,,,w,1,1.4059,1.62052355,0,1,2,2,10,2,1,,,,,,,,,,,,,,
,,,,,,,,,,,left.png,,w,left,615f87082ac0e636b68e06af,2021-10-21_15h13.54.085,arrow_simon_punish,2021.1.2,Win32,59.94485074,,,,,,,,,,,,,,w,1,1.3705,1.783038327,1,1,2,3,11,2,1,,,,,,,,,,,,,,
,,,,,,,,,,,left.png,,w,right,615f87082ac0e636b68e06af,2021-10-21_15h13.54.085,arrow_simon_punish,2021.1.2,Win32,59.94485074,,,,,,,,,,,,,,w,1,1.4395,1.713470646,0,1,3,0,12,3,1,,,,,,,,,,,,,,
,,,,,,,,,,,left.png,,w,right,615f87082ac0e636b68e06af,2021-10-21_15h13.54.085,arrow_simon_punish,2021.1.2,Win32,59.94485074,,,,,,,,,,,,,,w,1,1.4957,2.391081509,0,1,3,1,13,3,1,,,,,,,,,,,,,,
,,,,,,,,,,,left.png,,w,left,615f87082ac0e636b68e06af,2021-10-21_15h13.54.085,arrow_simon_punish,2021.1.2,Win32,59.94485074,,,,,,,,,,,,,,w,1,1.6639,1.749579934,1,1,3,2,14,2,1,,,,,,,,,,,,,,
,,,,,,,,,,,left.png,,w,right,615f87082ac0e636b68e06af,2021-10-21_15h13.54.085,arrow_simon_punish,2021.1.2,Win32,59.94485074,,,,,,,,,,,,,,w,1,1.5666,2.373764057,0,1,3,3,15,3,1,,,,,,,,,,,,,,
,,,,,,,,,,,right.png,,p,left,615f87082ac0e636b68e06af,2021-10-21_15h13.54.085,arrow_simon_punish,2021.1.2,Win32,59.94485074,,,,,,,,,,,,,,p,1,1.4851,1.92788638,0,1,4,0,16,0,1,,,,,,,,,,,,,,
,,,,,,,,,,,right.png,,p,left,615f87082ac0e636b68e06af,2021-10-21_15h13.54.085,arrow_simon_punish,2021.1.2,Win32,59.94485074,,,,,,,,,,,,,,p,1,1.4204,2.015570482,0,1,4,1,17,0,1,,,,,,,,,,,,,,
,,,,,,,,,,,left.png,,w,left,615f87082ac0e636b68e06af,2021-10-21_15h13.54.085,arrow_simon_punish,2021.1.2,Win32,59.94485074,,,,,,,,,,,,,,w,1,1.7581,2.318034441,1,1,4,2,18,2,1,,,,,,,,,,,,,,
,,,,,,,,,,,right.png,,p,right,615f87082ac0e636b68e06af,2021-10-21_15h13.54.085,arrow_simon_punish,2021.1.2,Win32,59.94485074,,,,,,,,,,,,,,p,1,1.6796,1.636403037,1,1,4,3,19,1,1,,,,,,,,,,,,,,
,,,,,,,,,,,right.png,,p,right,615f87082ac0e636b68e06af,2021-10-21_15h13.54.085,arrow_simon_punish,2021.1.2,Win32,59.94485074,,,,,,,,,,,,,,p,1,1.6146,1.617525752,1,1,5,0,20,1,1,,,,,,,,,,,,,,
,,,,,,,,,,,right.png,,p,left,615f87082ac0e636b68e06af,2021-10-21_15h13.54.085,arrow_simon_punish,2021.1.2,Win32,59.94485074,,,,,,,,,,,,,,p,1,1.7382,2.3020154,1,1,5,1,21,0,1,,,,,,,,,,,,,,
,,,,,,,,,,,right.png,,p,left,615f87082ac0e636b68e06af,2021-10-21_15h13.54.085,arrow_simon_punish,2021.1.2,Win32,59.94485074,,,,,,,,,,,,,,p,1,1.4825,1.77274317,0,1,5,2,22,0,1,,,,,,,,,,,,,,
,,,,,,,,,,,left.png,,w,right,615f87082ac0e636b68e06af,2021-10-21_15h13.54.085,arrow_simon_punish,2021.1.2,Win32,59.94485074,,,,,,,,,,,,,,w,1,1.4183,2.322793131,0,1,5,3,23,3,1,,,,,,,,,,,,,,
,,,,,,,,,,,right.png,,p,right,615f87082ac0e636b68e06af,2021-10-21_15h13.54.085,arrow_simon_punish,2021.1.2,Win32,59.94485074,,,,,,,,,,,,,,p,1,1.3542,1.701946922,1,1,6,0,24,1,1,,,,,,,,,,,,,,
,,,,,,,,,,,right.png,,p,right,615f87082ac0e636b68e06af,2021-10-21_15h13.54.085,arrow_simon_punish,2021.1.2,Win32,59.94485074,,,,,,,,,,,,,,p,1,1.5252,2.3020062,0,1,6,1,25,1,1,,,,,,,,,,,,,,
,,,,,,,,,,,left.png,,w,right,615f87082ac0e636b68e06af,2021-10-21_15h13.54.085,arrow_simon_punish,2021.1.2,Win32,59.94485074,,,,,,,,,,,,,,w,1,1.3879,2.096620901,1,1,6,2,26,3,1,,,,,,,,,,,,,,
,,,,,,,,,,,left.png,,w,left,615f87082ac0e636b68e06af,2021-10-21_15h13.54.085,arrow_simon_punish,2021.1.2,Win32,59.94485074,,,,,,,,,,,,,,w,1,1.4633,2.235940811,0,1,6,3,27,2,1,,,,,,,,,,,,,,
,,,,,,,,,,,right.png,,p,left,615f87082ac0e636b68e06af,2021-10-21_15h13.54.085,arrow_simon_punish,2021.1.2,Win32,59.94485074,,,,,,,,,,,,,,p,1,1.4684,1.524751297,0,1,7,0,28,0,1,,,,,,,,,,,,,,
,,,,,,,,,,,left.png,,w,right,615f87082ac0e636b68e06af,2021-10-21_15h13.54.085,arrow_simon_punish,2021.1.2,Win32,59.94485074,,,,,,,,,,,,,,w,1,1.0846,2.119841888,1,1,7,1,29,3,1,,,,,,,,,,,,,,
,,,,,,,,,,,left.png,,w,right,615f87082ac0e636b68e06af,2021-10-21_15h13.54.085,arrow_simon_punish,2021.1.2,Win32,59.94485074,,,,,,,,,,,,,,w,1,1.2835,1.65256049,1,1,7,2,30,3,1,,,,,,,,,,,,,,
,,,,,,,,,,,right.png,,p,left,615f87082ac0e636b68e06af,2021-10-21_15h13.54.085,arrow_simon_punish,2021.1.2,Win32,59.94485074,,,,,,,,,,,,,,p,1,1.4065,1.807733638,0,1,7,3,31,0,1,,,,,,,,,,,,,,
,,,,,,,,,,,right.png,,p,left,615f87082ac0e636b68e06af,2021-10-21_15h13.54.085,arrow_simon_punish,2021.1.2,Win32,59.94485074,,,,,,,,,,,,,,p,1,1.5873,1.513564035,0,1,8,0,32,0,1,,,,,,,,,,,,,,
,,,,,,,,,,,right.png,,p,left,615f87082ac0e636b68e06af,2021-10-21_15h13.54.085,arrow_simon_punish,2021.1.2,Win32,59.94485074,,,,,,,,,,,,,,p,1,1.5181,1.972779429,0,1,8,1,33,0,1,,,,,,,,,,,,,,
,,,,,,,,,,,right.png,,p,right,615f87082ac0e636b68e06af,2021-10-21_15h13.54.085,arrow_simon_punish,2021.1.2,Win32,59.94485074,,,,,,,,,,,,,,p,1,1.4097,1.810491175,0,1,8,2,34,1,1,,,,,,,,,,,,,,
,,,,,,,,,,,right.png,,p,left,615f87082ac0e636b68e06af,2021-10-21_15h13.54.085,arrow_simon_punish,2021.1.2,Win32,59.94485074,,,,,,,,,,,,,,p,1,1.4952,1.828124012,0,1,8,3,35,0,1,,,,,,,,,,,,,,
,,,,,,,,,,,left.png,,w,left,615f87082ac0e636b68e06af,2021-10-21_15h13.54.085,arrow_simon_punish,2021.1.2,Win32,59.94485074,,,,,,,,,,,,,,w,1,1.5851,2.081599558,0,1,9,0,36,2,1,,,,,,,,,,,,,,
,,,,,,,,,,,right.png,,p,right,615f87082ac0e636b68e06af,2021-10-21_15h13.54.085,arrow_simon_punish,2021.1.2,Win32,59.94485074,,,,,,,,,,,,,,p,1,1.5725,1.567497478,0,1,9,1,37,1,1,,,,,,,,,,,,,,
,,,,,,,,,,,right.png,,p,right,615f87082ac0e636b68e06af,2021-10-21_15h13.54.085,arrow_simon_punish,2021.1.2,Win32,59.94485074,,,,,,,,,,,,,,p,1,1.7883,2.269791811,1,1,9,2,38,1,1,,,,,,,,,,,,,,
,,,,,,,,,,,left.png,,w,right,615f87082ac0e636b68e06af,2021-10-21_15h13.54.085,arrow_simon_punish,2021.1.2,Win32,59.94485074,,,,,,,,,,,,,,w,1,1.4593,1.743263439,0,1,9,3,39,3,1,,,,,,,,,,,,,,
,,,,,,,,,,,left.png,,w,right,615f87082ac0e636b68e06af,2021-10-21_15h13.54.085,arrow_simon_punish,2021.1.2,Win32,59.94485074,,,,,,,,,,,,,,w,1,1.4225,2.202520535,0,1,10,0,40,3,1,,,,,,,,,,,,,,
,,,,,,,,,,,right.png,,p,left,615f87082ac0e636b68e06af,2021-10-21_15h13.54.085,arrow_simon_punish,2021.1.2,Win32,59.94485074,,,,,,,,,,,,,,p,1,1.7517,2.240127196,1,1,10,1,41,0,1,,,,,,,,,,,,,,
,,,,,,,,,,,right.png,,p,right,615f87082ac0e636b68e06af,2021-10-21_15h13.54.085,arrow_simon_punish,2021.1.2,Win32,59.94485074,,,,,,,,,,,,,,p,1,1.486,1.716193014,0,1,10,2,42,1,1,,,,,,,,,,,,,,
,,,,,,,,,,,left.png,,w,right,615f87082ac0e636b68e06af,2021-10-21_15h13.54.085,arrow_simon_punish,2021.1.2,Win32,59.94485074,,,,,,,,,,,,,,w,1,1.4193,1.976331944,0,1,10,3,43,3,1,,,,,,,,,,,,,,
,,,,,,,,,,,left.png,,w,right,615f87082ac0e636b68e06af,2021-10-21_15h13.54.085,arrow_simon_punish,2021.1.2,Win32,59.94485074,,,,,,,,,,,,,,w,1,1.4845,1.757984829,0,1,11,0,44,3,1,,,,,,,,,,,,,,
,,,,,,,,,,,right.png,,p,left,615f87082ac0e636b68e06af,2021-10-21_15h13.54.085,arrow_simon_punish,2021.1.2,Win32,59.94485074,,,,,,,,,,,,,,p,1,1.4401,2.153925855,0,1,11,1,45,0,1,,,,,,,,,,,,,,
,,,,,,,,,,,right.png,,p,left,615f87082ac0e636b68e06af,2021-10-21_15h13.54.085,arrow_simon_punish,2021.1.2,Win32,59.94485074,,,,,,,,,,,,,,p,1,1.436,1.712528749,0,1,11,2,46,0,1,,,,,,,,,,,,,,
,,,,,,,,,,,left.png,,w,left,615f87082ac0e636b68e06af,2021-10-21_15h13.54.085,arrow_simon_punish,2021.1.2,Win32,59.94485074,,,,,,,,,,,,,,w,1,1.5892,1.829972518,0,1,11,3,47,2,1,,,,,,,,,,,,,,
,,,,,,,,,,,left.png,,w,left,615f87082ac0e636b68e06af,2021-10-21_15h13.54.085,arrow_simon_punish,2021.1.2,Win32,59.94485074,,,,,,,,,,,,,,w,1,1.4771,2.37831105,0,1,12,0,48,2,1,,,,,,,,,,,,,,
,,,,,,,,,,,left.png,,w,left,615f87082ac0e636b68e06af,2021-10-21_15h13.54.085,arrow_simon_punish,2021.1.2,Win32,59.94485074,,,,,,,,,,,,,,w,1,1.5341,1.627007283,0,1,12,1,49,2,1,,,,,,,,,,,,,,
,,,,,,,,,,,left.png,,w,right,615f87082ac0e636b68e06af,2021-10-21_15h13.54.085,arrow_simon_punish,2021.1.2,Win32,59.94485074,,,,,,,,,,,,,,w,1,1.4922,1.54973631,0,1,12,2,50,3,1,,,,,,,,,,,,,,
,,,,,,,,,,,right.png,,p,right,615f87082ac0e636b68e06af,2021-10-21_15h13.54.085,arrow_simon_punish,2021.1.2,Win32,59.94485074,,,,,,,,,,,,,,p,1,1.5795,1.973450862,0,1,12,3,51,1,1,,,,,,,,,,,,,,
,,,,,,,,,,,left.png,,w,left,615f87082ac0e636b68e06af,2021-10-21_15h13.54.085,arrow_simon_punish,2021.1.2,Win32,59.94485074,,,,,,,,,,,,,,w,1,1.5365,2.176241194,0,1,13,0,52,2,1,,,,,,,,,,,,,,
,,,,,,,,,,,right.png,,p,left,615f87082ac0e636b68e06af,2021-10-21_15h13.54.085,arrow_simon_punish,2021.1.2,Win32,59.94485074,,,,,,,,,,,,,,p,1,1.5243,1.813961289,0,1,13,1,53,0,1,,,,,,,,,,,,,,
,,,,,,,,,,,left.png,,w,left,615f87082ac0e636b68e06af,2021-10-21_15h13.54.085,arrow_simon_punish,2021.1.2,Win32,59.94485074,,,,,,,,,,,,,,w,1,1.5053,1.562556413,0,1,13,2,54,2,1,,,,,,,,,,,,,,
,,,,,,,,,,,right.png,,p,right,615f87082ac0e636b68e06af,2021-10-21_15h13.54.085,arrow_simon_punish,2021.1.2,Win32,59.94485074,,,,,,,,,,,,,,p,1,1.5388,1.737051343,0,1,13,3,55,1,1,,,,,,,,,,,,,,
,,,,,,,,,,,right.png,,p,left,615f87082ac0e636b68e06af,2021-10-21_15h13.54.085,arrow_simon_punish,2021.1.2,Win32,59.94485074,,,,,,,,,,,,,,p,1,1.5293,2.228201771,0,1,14,0,56,0,1,,,,,,,,,,,,,,
,,,,,,,,,,,left.png,,w,right,615f87082ac0e636b68e06af,2021-10-21_15h13.54.085,arrow_simon_punish,2021.1.2,Win32,59.94485074,,,,,,,,,,,,,,w,1,1.368,1.584503489,1,1,14,1,57,3,1,,,,,,,,,,,,,,
,,,,,,,,,,,left.png,,w,left,615f87082ac0e636b68e06af,2021-10-21_15h13.54.085,arrow_simon_punish,2021.1.2,Win32,59.94485074,,,,,,,,,,,,,,w,1,1.5294,1.644612072,0,1,14,2,58,2,1,,,,,,,,,,,,,,
,,,,,,,,,,,left.png,,w,right,615f87082ac0e636b68e06af,2021-10-21_15h13.54.085,arrow_simon_punish,2021.1.2,Win32,59.94485074,,,,,,,,,,,,,,w,1,1.6829,2.494489247,1,1,14,3,59,3,1,,,,,,,,,,,,,,
,,,,,,,,,,,,,,,615f87082ac0e636b68e06af,2021-10-21_15h13.54.085,arrow_simon_punish,2021.1.2,Win32,59.94485074,,,,,,,,,,,,,,,,,,,,,,,,,space,14.5982,8,3,0,6,0,1,1,,,,,
,,,,,,,,,,,left.png,,w,left,615f87082ac0e636b68e06af,2021-10-21_15h13.54.085,arrow_simon_punish,2021.1.2,Win32,59.94485074,,,,,,,,,,,,,,w,1,1.4683,2.454280973,0,5,0,0,0,2,1,,,,,,,,,,,,,,
,,,,,,,,,,,right.png,,p,left,615f87082ac0e636b68e06af,2021-10-21_15h13.54.085,arrow_simon_punish,2021.1.2,Win32,59.94485074,,,,,,,,,,,,,,p,1,1.6004,2.295628264,1,5,0,1,1,0,1,,,,,,,,,,,,,,
,,,,,,,,,,,right.png,,p,left,615f87082ac0e636b68e06af,2021-10-21_15h13.54.085,arrow_simon_punish,2021.1.2,Win32,59.94485074,,,,,,,,,,,,,,p,1,1.5775,2.230366425,0,5,0,2,2,0,1,,,,,,,,,,,,,,
,,,,,,,,,,,left.png,,w,right,615f87082ac0e636b68e06af,2021-10-21_15h13.54.085,arrow_simon_punish,2021.1.2,Win32,59.94485074,,,,,,,,,,,,,,w,1,1.5722,1.754883799,0,5,0,3,3,3,1,,,,,,,,,,,,,,
,,,,,,,,,,,left.png,,w,left,615f87082ac0e636b68e06af,2021-10-21_15h13.54.085,arrow_simon_punish,2021.1.2,Win32,59.94485074,,,,,,,,,,,,,,w,1,1.5874,2.094587532,0,5,1,0,4,2,1,,,,,,,,,,,,,,
,,,,,,,,,,,right.png,,p,left,615f87082ac0e636b68e06af,2021-10-21_15h13.54.085,arrow_simon_punish,2021.1.2,Win32,59.94485074,,,,,,,,,,,,,,p,1,1.2143,2.182854718,1,5,1,1,5,0,1,,,,,,,,,,,,,,
,,,,,,,,,,,left.png,,w,right,615f87082ac0e636b68e06af,2021-10-21_15h13.54.085,arrow_simon_punish,2021.1.2,Win32,59.94485074,,,,,,,,,,,,,,w,1,1.4697,1.856011723,0,5,1,2,6,3,1,,,,,,,,,,,,,,
,,,,,,,,,,,left.png,,w,left,615f87082ac0e636b68e06af,2021-10-21_15h13.54.085,arrow_simon_punish,2021.1.2,Win32,59.94485074,,,,,,,,,,,,,,w,1,1.5249,1.607591829,0,5,1,3,7,2,1,,,,,,,,,,,,,,
