instruct_resp_simon.keys,instruct_resp_simon.corr,instruct_resp_simon.rt,trial_resp_simon.keys,trial_resp_simon.corr,trial_resp_simon.rt,trials_train_simon.thisRepN,trials_train_simon.thisTrialN,trials_train_simon.thisN,trials_train_simon.thisIndex,trials_train_simon.ran,target_file,target_pos,target_resp,target_side,participant,date,expName,psychopyVersion,OS,frameRate,instruct_resp_timing.keys,instruct_resp_timing.corr,instruct_resp_timing.rt,trial_resp_timing.keys,trial_resp_timing.rt,trials_train_timing.thisRepN,trials_train_timing.thisTrialN,trials_train_timing.thisN,trials_train_timing.thisIndex,trials_train_timing.ran,instruct_resp.keys,instruct_resp.corr,instruct_resp.rt,trial_resp.keys,trial_resp.corr,trial_resp.rt,target_onset,err,pun,trials.thisRepN,trials.thisTrialN,trials.thisN,trials.thisIndex,trials.ran,block_note_resp.keys,block_note_resp.rt,block_num,blocks.thisRepN,blocks.thisTrialN,blocks.thisN,blocks.thisIndex,blocks.ran,punish,complete_resp.keys,complete_resp.rt,raffle_trial,raffle_err,raffle_rew
space,0,24.5651,p,1,1.2905,0,0,0,1,1,right.png,,p,right,6167007b6e2a3e28b639498e,2021-10-27_12h11.36.883,arrow_simon_punish,2021.1.2,Win32,60.13229104,,,,,,,,,,,,,,,,,,,,,,,,,,,,,,,,,,,,,,
,,,w,0,1.1666,0,1,1,0,1,right.png,,p,left,6167007b6e2a3e28b639498e,2021-10-27_12h11.36.883,arrow_simon_punish,2021.1.2,Win32,60.13229104,,,,,,,,,,,,,,,,,,,,,,,,,,,,,,,,,,,,,,
,,,w,1,1.3742,0,2,2,2,1,left.png,,w,left,6167007b6e2a3e28b639498e,2021-10-27_12h11.36.883,arrow_simon_punish,2021.1.2,Win32,60.13229104,,,,,,,,,,,,,,,,,,,,,,,,,,,,,,,,,,,,,,
,,,w,1,1.3266,0,3,3,3,1,left.png,,w,right,6167007b6e2a3e28b639498e,2021-10-27_12h11.36.883,arrow_simon_punish,2021.1.2,Win32,60.13229104,,,,,,,,,,,,,,,,,,,,,,,,,,,,,,,,,,,,,,
,,,w,1,0.7045,1,0,4,3,1,left.png,,w,right,6167007b6e2a3e28b639498e,2021-10-27_12h11.36.883,arrow_simon_punish,2021.1.2,Win32,60.13229104,,,,,,,,,,,,,,,,,,,,,,,,,,,,,,,,,,,,,,
,,,p,1,1.4264,1,1,5,1,1,right.png,,p,right,6167007b6e2a3e28b639498e,2021-10-27_12h11.36.883,arrow_simon_punish,2021.1.2,Win32,60.13229104,,,,,,,,,,,,,,,,,,,,,,,,,,,,,,,,,,,,,,
,,,w,1,1.4517,1,2,6,2,1,left.png,,w,left,6167007b6e2a3e28b639498e,2021-10-27_12h11.36.883,arrow_simon_punish,2021.1.2,Win32,60.13229104,,,,,,,,,,,,,,,,,,,,,,,,,,,,,,,,,,,,,,
,,,p,1,0.9638,1,3,7,0,1,right.png,,p,left,6167007b6e2a3e28b639498e,2021-10-27_12h11.36.883,arrow_simon_punish,2021.1.2,Win32,60.13229104,,,,,,,,,,,,,,,,,,,,,,,,,,,,,,,,,,,,,,
,,,p,1,0.9049,2,0,8,0,1,right.png,,p,left,6167007b6e2a3e28b639498e,2021-10-27_12h11.36.883,arrow_simon_punish,2021.1.2,Win32,60.13229104,,,,,,,,,,,,,,,,,,,,,,,,,,,,,,,,,,,,,,
,,,w,1,0.6341,2,1,9,3,1,left.png,,w,right,6167007b6e2a3e28b639498e,2021-10-27_12h11.36.883,arrow_simon_punish,2021.1.2,Win32,60.13229104,,,,,,,,,,,,,,,,,,,,,,,,,,,,,,,,,,,,,,
,,,p,0,1.7831,2,2,10,2,1,left.png,,w,left,6167007b6e2a3e28b639498e,2021-10-27_12h11.36.883,arrow_simon_punish,2021.1.2,Win32,60.13229104,,,,,,,,,,,,,,,,,,,,,,,,,,,,,,,,,,,,,,
,,,p,1,1.3223,2,3,11,1,1,right.png,,p,right,6167007b6e2a3e28b639498e,2021-10-27_12h11.36.883,arrow_simon_punish,2021.1.2,Win32,60.13229104,,,,,,,,,,,,,,,,,,,,,,,,,,,,,,,,,,,,,,
,,,p,1,1.3226,3,0,12,0,1,right.png,,p,left,6167007b6e2a3e28b639498e,2021-10-27_12h11.36.883,arrow_simon_punish,2021.1.2,Win32,60.13229104,,,,,,,,,,,,,,,,,,,,,,,,,,,,,,,,,,,,,,
,,,w,1,1.4042,3,1,13,2,1,left.png,,w,left,6167007b6e2a3e28b639498e,2021-10-27_12h11.36.883,arrow_simon_punish,2021.1.2,Win32,60.13229104,,,,,,,,,,,,,,,,,,,,,,,,,,,,,,,,,,,,,,
,,,w,1,1.149,3,2,14,3,1,left.png,,w,right,6167007b6e2a3e28b639498e,2021-10-27_12h11.36.883,arrow_simon_punish,2021.1.2,Win32,60.13229104,,,,,,,,,,,,,,,,,,,,,,,,,,,,,,,,,,,,,,
,,,p,1,0.8568,3,3,15,1,1,right.png,,p,right,6167007b6e2a3e28b639498e,2021-10-27_12h11.36.883,arrow_simon_punish,2021.1.2,Win32,60.13229104,,,,,,,,,,,,,,,,,,,,,,,,,,,,,,,,,,,,,,
,,,p,1,1.0556,4,0,16,0,1,right.png,,p,left,6167007b6e2a3e28b639498e,2021-10-27_12h11.36.883,arrow_simon_punish,2021.1.2,Win32,60.13229104,,,,,,,,,,,,,,,,,,,,,,,,,,,,,,,,,,,,,,
,,,w,1,1.4229,4,1,17,3,1,left.png,,w,right,6167007b6e2a3e28b639498e,2021-10-27_12h11.36.883,arrow_simon_punish,2021.1.2,Win32,60.13229104,,,,,,,,,,,,,,,,,,,,,,,,,,,,,,,,,,,,,,
,,,w,1,0.8674,4,2,18,2,1,left.png,,w,left,6167007b6e2a3e28b639498e,2021-10-27_12h11.36.883,arrow_simon_punish,2021.1.2,Win32,60.13229104,,,,,,,,,,,,,,,,,,,,,,,,,,,,,,,,,,,,,,
,,,p,1,0.8347,4,3,19,1,1,right.png,,p,right,6167007b6e2a3e28b639498e,2021-10-27_12h11.36.883,arrow_simon_punish,2021.1.2,Win32,60.13229104,,,,,,,,,,,,,,,,,,,,,,,,,,,,,,,,,,,,,,
,,,w,1,0.9023,5,0,20,2,1,left.png,,w,left,6167007b6e2a3e28b639498e,2021-10-27_12h11.36.883,arrow_simon_punish,2021.1.2,Win32,60.13229104,,,,,,,,,,,,,,,,,,,,,,,,,,,,,,,,,,,,,,
,,,p,0,1.5394,5,1,21,3,1,left.png,,w,right,6167007b6e2a3e28b639498e,2021-10-27_12h11.36.883,arrow_simon_punish,2021.1.2,Win32,60.13229104,,,,,,,,,,,,,,,,,,,,,,,,,,,,,,,,,,,,,,
,,,w,0,1.1689,5,2,22,1,1,right.png,,p,right,6167007b6e2a3e28b639498e,2021-10-27_12h11.36.883,arrow_simon_punish,2021.1.2,Win32,60.13229104,,,,,,,,,,,,,,,,,,,,,,,,,,,,,,,,,,,,,,
,,,p,1,0.9466,5,3,23,0,1,right.png,,p,left,6167007b6e2a3e28b639498e,2021-10-27_12h11.36.883,arrow_simon_punish,2021.1.2,Win32,60.13229104,,,,,,,,,,,,,,,,,,,,,,,,,,,,,,,,,,,,,,
,,,p,1,0.8611,6,0,24,1,1,right.png,,p,right,6167007b6e2a3e28b639498e,2021-10-27_12h11.36.883,arrow_simon_punish,2021.1.2,Win32,60.13229104,,,,,,,,,,,,,,,,,,,,,,,,,,,,,,,,,,,,,,
,,,w,1,1.728,6,1,25,2,1,left.png,,w,left,6167007b6e2a3e28b639498e,2021-10-27_12h11.36.883,arrow_simon_punish,2021.1.2,Win32,60.13229104,,,,,,,,,,,,,,,,,,,,,,,,,,,,,,,,,,,,,,
,,,p,1,0.8841,6,2,26,0,1,right.png,,p,left,6167007b6e2a3e28b639498e,2021-10-27_12h11.36.883,arrow_simon_punish,2021.1.2,Win32,60.13229104,,,,,,,,,,,,,,,,,,,,,,,,,,,,,,,,,,,,,,
,,,w,1,1.0041,6,3,27,3,1,left.png,,w,right,6167007b6e2a3e28b639498e,2021-10-27_12h11.36.883,arrow_simon_punish,2021.1.2,Win32,60.13229104,,,,,,,,,,,,,,,,,,,,,,,,,,,,,,,,,,,,,,
,,,p,1,1.4561,7,0,28,0,1,right.png,,p,left,6167007b6e2a3e28b639498e,2021-10-27_12h11.36.883,arrow_simon_punish,2021.1.2,Win32,60.13229104,,,,,,,,,,,,,,,,,,,,,,,,,,,,,,,,,,,,,,
,,,p,1,1.7195,7,1,29,1,1,right.png,,p,right,6167007b6e2a3e28b639498e,2021-10-27_12h11.36.883,arrow_simon_punish,2021.1.2,Win32,60.13229104,,,,,,,,,,,,,,,,,,,,,,,,,,,,,,,,,,,,,,
,,,w,1,1.4814,7,2,30,2,1,left.png,,w,left,6167007b6e2a3e28b639498e,2021-10-27_12h11.36.883,arrow_simon_punish,2021.1.2,Win32,60.13229104,,,,,,,,,,,,,,,,,,,,,,,,,,,,,,,,,,,,,,
,,,w,1,1.5505,7,3,31,3,1,left.png,,w,right,6167007b6e2a3e28b639498e,2021-10-27_12h11.36.883,arrow_simon_punish,2021.1.2,Win32,60.13229104,,,,,,,,,,,,,,,,,,,,,,,,,,,,,,,,,,,,,,
,,,p,1,1.4202,8,0,32,0,1,right.png,,p,left,6167007b6e2a3e28b639498e,2021-10-27_12h11.36.883,arrow_simon_punish,2021.1.2,Win32,60.13229104,,,,,,,,,,,,,,,,,,,,,,,,,,,,,,,,,,,,,,
,,,p,1,1.7695,8,1,33,1,1,right.png,,p,right,6167007b6e2a3e28b639498e,2021-10-27_12h11.36.883,arrow_simon_punish,2021.1.2,Win32,60.13229104,,,,,,,,,,,,,,,,,,,,,,,,,,,,,,,,,,,,,,
,,,w,1,1.087,8,2,34,2,1,left.png,,w,left,6167007b6e2a3e28b639498e,2021-10-27_12h11.36.883,arrow_simon_punish,2021.1.2,Win32,60.13229104,,,,,,,,,,,,,,,,,,,,,,,,,,,,,,,,,,,,,,
,,,w,1,1.8053,8,3,35,3,1,left.png,,w,right,6167007b6e2a3e28b639498e,2021-10-27_12h11.36.883,arrow_simon_punish,2021.1.2,Win32,60.13229104,,,,,,,,,,,,,,,,,,,,,,,,,,,,,,,,,,,,,,
,,,w,1,0.9513,9,0,36,2,1,left.png,,w,left,6167007b6e2a3e28b639498e,2021-10-27_12h11.36.883,arrow_simon_punish,2021.1.2,Win32,60.13229104,,,,,,,,,,,,,,,,,,,,,,,,,,,,,,,,,,,,,,
,,,p,1,1.0607,9,1,37,1,1,right.png,,p,right,6167007b6e2a3e28b639498e,2021-10-27_12h11.36.883,arrow_simon_punish,2021.1.2,Win32,60.13229104,,,,,,,,,,,,,,,,,,,,,,,,,,,,,,,,,,,,,,
,,,w,1,0.9593,9,2,38,3,1,left.png,,w,right,6167007b6e2a3e28b639498e,2021-10-27_12h11.36.883,arrow_simon_punish,2021.1.2,Win32,60.13229104,,,,,,,,,,,,,,,,,,,,,,,,,,,,,,,,,,,,,,
,,,p,1,0.9265,9,3,39,0,1,right.png,,p,left,6167007b6e2a3e28b639498e,2021-10-27_12h11.36.883,arrow_simon_punish,2021.1.2,Win32,60.13229104,,,,,,,,,,,,,,,,,,,,,,,,,,,,,,,,,,,,,,
,,,,,,,,,,,,,,,6167007b6e2a3e28b639498e,2021-10-27_12h11.36.883,arrow_simon_punish,2021.1.2,Win32,60.13229104,space,0,36.7643,p,2.7976,0,0,0,0,1,,,,,,,,,,,,,,,,,,,,,,,,,,,,
,,,,,,,,,,,,,,,6167007b6e2a3e28b639498e,2021-10-27_12h11.36.883,arrow_simon_punish,2021.1.2,Win32,60.13229104,,,,p,2.4534,1,0,1,0,1,,,,,,,,,,,,,,,,,,,,,,,,,,,,
,,,,,,,,,,,,,,,6167007b6e2a3e28b639498e,2021-10-27_12h11.36.883,arrow_simon_punish,2021.1.2,Win32,60.13229104,,,,p,2.4551,2,0,2,0,1,,,,,,,,,,,,,,,,,,,,,,,,,,,,
,,,,,,,,,,,,,,,6167007b6e2a3e28b639498e,2021-10-27_12h11.36.883,arrow_simon_punish,2021.1.2,Win32,60.13229104,,,,p,2.1098,3,0,3,0,1,,,,,,,,,,,,,,,,,,,,,,,,,,,,
,,,,,,,,,,,,,,,6167007b6e2a3e28b639498e,2021-10-27_12h11.36.883,arrow_simon_punish,2021.1.2,Win32,60.13229104,,,,p,2.4312,4,0,4,0,1,,,,,,,,,,,,,,,,,,,,,,,,,,,,
,,,,,,,,,,,,,,,6167007b6e2a3e28b639498e,2021-10-27_12h11.36.883,arrow_simon_punish,2021.1.2,Win32,60.13229104,,,,w,2.4737,5,0,5,0,1,,,,,,,,,,,,,,,,,,,,,,,,,,,,
,,,,,,,,,,,,,,,6167007b6e2a3e28b639498e,2021-10-27_12h11.36.883,arrow_simon_punish,2021.1.2,Win32,60.13229104,,,,w,2.4747,6,0,6,0,1,,,,,,,,,,,,,,,,,,,,,,,,,,,,
,,,,,,,,,,,,,,,6167007b6e2a3e28b639498e,2021-10-27_12h11.36.883,arrow_simon_punish,2021.1.2,Win32,60.13229104,,,,w,2.4556,7,0,7,0,1,,,,,,,,,,,,,,,,,,,,,,,,,,,,
,,,,,,,,,,,,,,,6167007b6e2a3e28b639498e,2021-10-27_12h11.36.883,arrow_simon_punish,2021.1.2,Win32,60.13229104,,,,p,2.5634,8,0,8,0,1,,,,,,,,,,,,,,,,,,,,,,,,,,,,
,,,,,,,,,,,,,,,6167007b6e2a3e28b639498e,2021-10-27_12h11.36.883,arrow_simon_punish,2021.1.2,Win32,60.13229104,,,,w,2.4963,9,0,9,0,1,,,,,,,,,,,,,,,,,,,,,,,,,,,,
,,,,,,,,,,,,,,,6167007b6e2a3e28b639498e,2021-10-27_12h11.36.883,arrow_simon_punish,2021.1.2,Win32,60.13229104,,,,p,2.5072,10,0,10,0,1,,,,,,,,,,,,,,,,,,,,,,,,,,,,
,,,,,,,,,,,,,,,6167007b6e2a3e28b639498e,2021-10-27_12h11.36.883,arrow_simon_punish,2021.1.2,Win32,60.13229104,,,,w,2.4585,11,0,11,0,1,,,,,,,,,,,,,,,,,,,,,,,,,,,,
,,,,,,,,,,,,,,,6167007b6e2a3e28b639498e,2021-10-27_12h11.36.883,arrow_simon_punish,2021.1.2,Win32,60.13229104,,,,p,2.4726,12,0,12,0,1,,,,,,,,,,,,,,,,,,,,,,,,,,,,
,,,,,,,,,,,,,,,6167007b6e2a3e28b639498e,2021-10-27_12h11.36.883,arrow_simon_punish,2021.1.2,Win32,60.13229104,,,,w,2.4625,13,0,13,0,1,,,,,,,,,,,,,,,,,,,,,,,,,,,,
,,,,,,,,,,,,,,,6167007b6e2a3e28b639498e,2021-10-27_12h11.36.883,arrow_simon_punish,2021.1.2,Win32,60.13229104,,,,p,2.4856,14,0,14,0,1,,,,,,,,,,,,,,,,,,,,,,,,,,,,
,,,,,,,,,,,,,,,6167007b6e2a3e28b639498e,2021-10-27_12h11.36.883,arrow_simon_punish,2021.1.2,Win32,60.13229104,,,,w,2.4649,15,0,15,0,1,,,,,,,,,,,,,,,,,,,,,,,,,,,,
,,,,,,,,,,,,,,,6167007b6e2a3e28b639498e,2021-10-27_12h11.36.883,arrow_simon_punish,2021.1.2,Win32,60.13229104,,,,p,2.4457,16,0,16,0,1,,,,,,,,,,,,,,,,,,,,,,,,,,,,
,,,,,,,,,,,,,,,6167007b6e2a3e28b639498e,2021-10-27_12h11.36.883,arrow_simon_punish,2021.1.2,Win32,60.13229104,,,,w,2.4338,17,0,17,0,1,,,,,,,,,,,,,,,,,,,,,,,,,,,,
,,,,,,,,,,,,,,,6167007b6e2a3e28b639498e,2021-10-27_12h11.36.883,arrow_simon_punish,2021.1.2,Win32,60.13229104,,,,p,2.4838,18,0,18,0,1,,,,,,,,,,,,,,,,,,,,,,,,,,,,
,,,,,,,,,,,,,,,6167007b6e2a3e28b639498e,2021-10-27_12h11.36.883,arrow_simon_punish,2021.1.2,Win32,60.13229104,,,,w,2.4181,19,0,19,0,1,,,,,,,,,,,,,,,,,,,,,,,,,,,,
,,,,,,,,,,,,,,,6167007b6e2a3e28b639498e,2021-10-27_12h11.36.883,arrow_simon_punish,2021.1.2,Win32,60.13229104,,,,p,2.4529,20,0,20,0,1,,,,,,,,,,,,,,,,,,,,,,,,,,,,
,,,,,,,,,,,,,,,6167007b6e2a3e28b639498e,2021-10-27_12h11.36.883,arrow_simon_punish,2021.1.2,Win32,60.13229104,,,,w,2.4298,21,0,21,0,1,,,,,,,,,,,,,,,,,,,,,,,,,,,,
,,,,,,,,,,,,,,,6167007b6e2a3e28b639498e,2021-10-27_12h11.36.883,arrow_simon_punish,2021.1.2,Win32,60.13229104,,,,p,2.3772,22,0,22,0,1,,,,,,,,,,,,,,,,,,,,,,,,,,,,
,,,,,,,,,,,,,,,6167007b6e2a3e28b639498e,2021-10-27_12h11.36.883,arrow_simon_punish,2021.1.2,Win32,60.13229104,,,,w,2.4331,23,0,23,0,1,,,,,,,,,,,,,,,,,,,,,,,,,,,,
,,,,,,,,,,,,,,,6167007b6e2a3e28b639498e,2021-10-27_12h11.36.883,arrow_simon_punish,2021.1.2,Win32,60.13229104,,,,p,2.5689,24,0,24,0,1,,,,,,,,,,,,,,,,,,,,,,,,,,,,
,,,,,,,,,,,,,,,6167007b6e2a3e28b639498e,2021-10-27_12h11.36.883,arrow_simon_punish,2021.1.2,Win32,60.13229104,,,,w,2.5095,25,0,25,0,1,,,,,,,,,,,,,,,,,,,,,,,,,,,,
,,,,,,,,,,,,,,,6167007b6e2a3e28b639498e,2021-10-27_12h11.36.883,arrow_simon_punish,2021.1.2,Win32,60.13229104,,,,p,2.5046,26,0,26,0,1,,,,,,,,,,,,,,,,,,,,,,,,,,,,
,,,,,,,,,,,,,,,6167007b6e2a3e28b639498e,2021-10-27_12h11.36.883,arrow_simon_punish,2021.1.2,Win32,60.13229104,,,,w,2.4522,27,0,27,0,1,,,,,,,,,,,,,,,,,,,,,,,,,,,,
,,,,,,,,,,,,,,,6167007b6e2a3e28b639498e,2021-10-27_12h11.36.883,arrow_simon_punish,2021.1.2,Win32,60.13229104,,,,p,2.4492,28,0,28,0,1,,,,,,,,,,,,,,,,,,,,,,,,,,,,
,,,,,,,,,,,,,,,6167007b6e2a3e28b639498e,2021-10-27_12h11.36.883,arrow_simon_punish,2021.1.2,Win32,60.13229104,,,,w,2.4003,29,0,29,0,1,,,,,,,,,,,,,,,,,,,,,,,,,,,,
,,,,,,,,,,,,,,,6167007b6e2a3e28b639498e,2021-10-27_12h11.36.883,arrow_simon_punish,2021.1.2,Win32,60.13229104,,,,p,2.4493,30,0,30,0,1,,,,,,,,,,,,,,,,,,,,,,,,,,,,
,,,,,,,,,,,,,,,6167007b6e2a3e28b639498e,2021-10-27_12h11.36.883,arrow_simon_punish,2021.1.2,Win32,60.13229104,,,,w,2.4667,31,0,31,0,1,,,,,,,,,,,,,,,,,,,,,,,,,,,,
,,,,,,,,,,,,,,,6167007b6e2a3e28b639498e,2021-10-27_12h11.36.883,arrow_simon_punish,2021.1.2,Win32,60.13229104,,,,p,2.4414,32,0,32,0,1,,,,,,,,,,,,,,,,,,,,,,,,,,,,
,,,,,,,,,,,,,,,6167007b6e2a3e28b639498e,2021-10-27_12h11.36.883,arrow_simon_punish,2021.1.2,Win32,60.13229104,,,,w,2.3942,33,0,33,0,1,,,,,,,,,,,,,,,,,,,,,,,,,,,,
,,,,,,,,,,,,,,,6167007b6e2a3e28b639498e,2021-10-27_12h11.36.883,arrow_simon_punish,2021.1.2,Win32,60.13229104,,,,p,2.537,34,0,34,0,1,,,,,,,,,,,,,,,,,,,,,,,,,,,,
,,,,,,,,,,,,,,,6167007b6e2a3e28b639498e,2021-10-27_12h11.36.883,arrow_simon_punish,2021.1.2,Win32,60.13229104,,,,w,2.4279,35,0,35,0,1,,,,,,,,,,,,,,,,,,,,,,,,,,,,
,,,,,,,,,,,,,,,6167007b6e2a3e28b639498e,2021-10-27_12h11.36.883,arrow_simon_punish,2021.1.2,Win32,60.13229104,,,,p,2.4758,36,0,36,0,1,,,,,,,,,,,,,,,,,,,,,,,,,,,,
,,,,,,,,,,,,,,,6167007b6e2a3e28b639498e,2021-10-27_12h11.36.883,arrow_simon_punish,2021.1.2,Win32,60.13229104,,,,w,2.4471,37,0,37,0,1,,,,,,,,,,,,,,,,,,,,,,,,,,,,
,,,,,,,,,,,,,,,6167007b6e2a3e28b639498e,2021-10-27_12h11.36.883,arrow_simon_punish,2021.1.2,Win32,60.13229104,,,,p,2.4733,38,0,38,0,1,,,,,,,,,,,,,,,,,,,,,,,,,,,,
,,,,,,,,,,,,,,,6167007b6e2a3e28b639498e,2021-10-27_12h11.36.883,arrow_simon_punish,2021.1.2,Win32,60.13229104,,,,w,2.5058,39,0,39,0,1,,,,,,,,,,,,,,,,,,,,,,,,,,,,
,,,,,,,,,,,,,,,6167007b6e2a3e28b639498e,2021-10-27_12h11.36.883,arrow_simon_punish,2021.1.2,Win32,60.13229104,,,,p,2.4504,40,0,40,0,1,,,,,,,,,,,,,,,,,,,,,,,,,,,,
,,,,,,,,,,,,,,,6167007b6e2a3e28b639498e,2021-10-27_12h11.36.883,arrow_simon_punish,2021.1.2,Win32,60.13229104,,,,w,2.4685,41,0,41,0,1,,,,,,,,,,,,,,,,,,,,,,,,,,,,
,,,,,,,,,,,,,,,6167007b6e2a3e28b639498e,2021-10-27_12h11.36.883,arrow_simon_punish,2021.1.2,Win32,60.13229104,,,,p,2.4669,42,0,42,0,1,,,,,,,,,,,,,,,,,,,,,,,,,,,,
,,,,,,,,,,,,,,,6167007b6e2a3e28b639498e,2021-10-27_12h11.36.883,arrow_simon_punish,2021.1.2,Win32,60.13229104,,,,w,2.4469,43,0,43,0,1,,,,,,,,,,,,,,,,,,,,,,,,,,,,
,,,,,,,,,,,,,,,6167007b6e2a3e28b639498e,2021-10-27_12h11.36.883,arrow_simon_punish,2021.1.2,Win32,60.13229104,,,,p,2.4142,44,0,44,0,1,,,,,,,,,,,,,,,,,,,,,,,,,,,,
,,,,,,,,,,,,,,,6167007b6e2a3e28b639498e,2021-10-27_12h11.36.883,arrow_simon_punish,2021.1.2,Win32,60.13229104,,,,w,2.4188,45,0,45,0,1,,,,,,,,,,,,,,,,,,,,,,,,,,,,
,,,,,,,,,,,,,,,6167007b6e2a3e28b639498e,2021-10-27_12h11.36.883,arrow_simon_punish,2021.1.2,Win32,60.13229104,,,,p,2.4837,46,0,46,0,1,,,,,,,,,,,,,,,,,,,,,,,,,,,,
,,,,,,,,,,,,,,,6167007b6e2a3e28b639498e,2021-10-27_12h11.36.883,arrow_simon_punish,2021.1.2,Win32,60.13229104,,,,w,2.4675,47,0,47,0,1,,,,,,,,,,,,,,,,,,,,,,,,,,,,
,,,,,,,,,,,,,,,6167007b6e2a3e28b639498e,2021-10-27_12h11.36.883,arrow_simon_punish,2021.1.2,Win32,60.13229104,,,,p,2.5093,48,0,48,0,1,,,,,,,,,,,,,,,,,,,,,,,,,,,,
,,,,,,,,,,,,,,,6167007b6e2a3e28b639498e,2021-10-27_12h11.36.883,arrow_simon_punish,2021.1.2,Win32,60.13229104,,,,w,2.4276,49,0,49,0,1,,,,,,,,,,,,,,,,,,,,,,,,,,,,
,,,,,,,,,,,,,,,6167007b6e2a3e28b639498e,2021-10-27_12h11.36.883,arrow_simon_punish,2021.1.2,Win32,60.13229104,,,,p,2.4563,50,0,50,0,1,,,,,,,,,,,,,,,,,,,,,,,,,,,,
,,,,,,,,,,,,,,,6167007b6e2a3e28b639498e,2021-10-27_12h11.36.883,arrow_simon_punish,2021.1.2,Win32,60.13229104,,,,w,2.5112,51,0,51,0,1,,,,,,,,,,,,,,,,,,,,,,,,,,,,
,,,,,,,,,,,,,,,6167007b6e2a3e28b639498e,2021-10-27_12h11.36.883,arrow_simon_punish,2021.1.2,Win32,60.13229104,,,,p,2.4762,52,0,52,0,1,,,,,,,,,,,,,,,,,,,,,,,,,,,,
,,,,,,,,,,,,,,,6167007b6e2a3e28b639498e,2021-10-27_12h11.36.883,arrow_simon_punish,2021.1.2,Win32,60.13229104,,,,w,2.4428,53,0,53,0,1,,,,,,,,,,,,,,,,,,,,,,,,,,,,
,,,,,,,,,,,,,,,6167007b6e2a3e28b639498e,2021-10-27_12h11.36.883,arrow_simon_punish,2021.1.2,Win32,60.13229104,,,,p,2.5179,54,0,54,0,1,,,,,,,,,,,,,,,,,,,,,,,,,,,,
,,,,,,,,,,,,,,,6167007b6e2a3e28b639498e,2021-10-27_12h11.36.883,arrow_simon_punish,2021.1.2,Win32,60.13229104,,,,w,2.448,55,0,55,0,1,,,,,,,,,,,,,,,,,,,,,,,,,,,,
,,,,,,,,,,,,,,,6167007b6e2a3e28b639498e,2021-10-27_12h11.36.883,arrow_simon_punish,2021.1.2,Win32,60.13229104,,,,p,2.4673,56,0,56,0,1,,,,,,,,,,,,,,,,,,,,,,,,,,,,
,,,,,,,,,,,,,,,6167007b6e2a3e28b639498e,2021-10-27_12h11.36.883,arrow_simon_punish,2021.1.2,Win32,60.13229104,,,,w,2.506,57,0,57,0,1,,,,,,,,,,,,,,,,,,,,,,,,,,,,
,,,,,,,,,,,,,,,6167007b6e2a3e28b639498e,2021-10-27_12h11.36.883,arrow_simon_punish,2021.1.2,Win32,60.13229104,,,,p,2.4204,58,0,58,0,1,,,,,,,,,,,,,,,,,,,,,,,,,,,,
,,,,,,,,,,,,,,,6167007b6e2a3e28b639498e,2021-10-27_12h11.36.883,arrow_simon_punish,2021.1.2,Win32,60.13229104,,,,w,2.4828,59,0,59,0,1,,,,,,,,,,,,,,,,,,,,,,,,,,,,
,,,,,,,,,,,left.png,,w,left,6167007b6e2a3e28b639498e,2021-10-27_12h11.36.883,arrow_simon_punish,2021.1.2,Win32,60.13229104,,,,,,,,,,,space,0,43.0895,w,1,1.6714,2.205818198,1,1,0,0,0,2,1,,,,,,,,,,,,,,
,,,,,,,,,,,left.png,,w,right,6167007b6e2a3e28b639498e,2021-10-27_12h11.36.883,arrow_simon_punish,2021.1.2,Win32,60.13229104,,,,,,,,,,,,,,p,0,1.6189,2.211614412,1,1,0,1,1,3,1,,,,,,,,,,,,,,
,,,,,,,,,,,right.png,,p,left,6167007b6e2a3e28b639498e,2021-10-27_12h11.36.883,arrow_simon_punish,2021.1.2,Win32,60.13229104,,,,,,,,,,,,,,p,1,1.7865,2.036341453,1,1,0,2,2,0,1,,,,,,,,,,,,,,
,,,,,,,,,,,right.png,,p,left,6167007b6e2a3e28b639498e,2021-10-27_12h11.36.883,arrow_simon_punish,2021.1.2,Win32,60.13229104,,,,,,,,,,,,,,p,1,1.9943,2.404473228,1,1,0,3,3,0,1,,,,,,,,,,,,,,
,,,,,,,,,,,left.png,,w,right,6167007b6e2a3e28b639498e,2021-10-27_12h11.36.883,arrow_simon_punish,2021.1.2,Win32,60.13229104,,,,,,,,,,,,,,w,1,1.6179,1.902665178,1,1,1,0,4,3,1,,,,,,,,,,,,,,
,,,,,,,,,,,left.png,,w,right,6167007b6e2a3e28b639498e,2021-10-27_12h11.36.883,arrow_simon_punish,2021.1.2,Win32,60.13229104,,,,,,,,,,,,,,p,0,1.8644,1.827389255,1,1,1,1,5,3,1,,,,,,,,,,,,,,
,,,,,,,,,,,left.png,,w,right,6167007b6e2a3e28b639498e,2021-10-27_12h11.36.883,arrow_simon_punish,2021.1.2,Win32,60.13229104,,,,,,,,,,,,,,p,0,2.1749,2.452614611,1,1,1,2,6,3,1,,,,,,,,,,,,,,
,,,,,,,,,,,right.png,,p,right,6167007b6e2a3e28b639498e,2021-10-27_12h11.36.883,arrow_simon_punish,2021.1.2,Win32,60.13229104,,,,,,,,,,,,,,w,0,1.854,1.952153253,1,1,1,3,7,1,1,,,,,,,,,,,,,,
,,,,,,,,,,,right.png,,p,left,6167007b6e2a3e28b639498e,2021-10-27_12h11.36.883,arrow_simon_punish,2021.1.2,Win32,60.13229104,,,,,,,,,,,,,,p,1,1.3469,1.560086522,1,1,2,0,8,0,1,,,,,,,,,,,,,,
,,,,,,,,,,,right.png,,p,left,6167007b6e2a3e28b639498e,2021-10-27_12h11.36.883,arrow_simon_punish,2021.1.2,Win32,60.13229104,,,,,,,,,,,,,,p,1,1.7323,1.529835175,1,1,2,1,9,0,1,,,,,,,,,,,,,,
,,,,,,,,,,,right.png,,p,right,6167007b6e2a3e28b639498e,2021-10-27_12h11.36.883,arrow_simon_punish,2021.1.2,Win32,60.13229104,,,,,,,,,,,,,,p,1,1.4501,1.723398663,0,1,2,2,10,1,1,,,,,,,,,,,,,,
,,,,,,,,,,,left.png,,w,left,6167007b6e2a3e28b639498e,2021-10-27_12h11.36.883,arrow_simon_punish,2021.1.2,Win32,60.13229104,,,,,,,,,,,,,,w,1,1.7028,1.976420224,1,1,2,3,11,2,1,,,,,,,,,,,,,,
,,,,,,,,,,,left.png,,w,right,6167007b6e2a3e28b639498e,2021-10-27_12h11.36.883,arrow_simon_punish,2021.1.2,Win32,60.13229104,,,,,,,,,,,,,,w,1,2.7692,2.497648492,1,1,3,0,12,3,1,,,,,,,,,,,,,,
,,,,,,,,,,,right.png,,p,left,6167007b6e2a3e28b639498e,2021-10-27_12h11.36.883,arrow_simon_punish,2021.1.2,Win32,60.13229104,,,,,,,,,,,,,,p,1,1.9623,2.229404181,1,1,3,1,13,0,1,,,,,,,,,,,,,,
,,,,,,,,,,,right.png,,p,left,6167007b6e2a3e28b639498e,2021-10-27_12h11.36.883,arrow_simon_punish,2021.1.2,Win32,60.13229104,,,,,,,,,,,,,,p,1,2.0217,2.287014734,1,1,3,2,14,0,1,,,,,,,,,,,,,,
,,,,,,,,,,,right.png,,p,right,6167007b6e2a3e28b639498e,2021-10-27_12h11.36.883,arrow_simon_punish,2021.1.2,Win32,60.13229104,,,,,,,,,,,,,,p,1,1.5675,1.947256912,0,1,3,3,15,1,1,,,,,,,,,,,,,,
,,,,,,,,,,,left.png,,w,left,6167007b6e2a3e28b639498e,2021-10-27_12h11.36.883,arrow_simon_punish,2021.1.2,Win32,60.13229104,,,,,,,,,,,,,,w,1,1.9542,2.164783634,1,1,4,0,16,2,1,,,,,,,,,,,,,,
,,,,,,,,,,,right.png,,p,left,6167007b6e2a3e28b639498e,2021-10-27_12h11.36.883,arrow_simon_punish,2021.1.2,Win32,60.13229104,,,,,,,,,,,,,,p,1,1.4618,1.694623928,0,1,4,1,17,0,1,,,,,,,,,,,,,,
,,,,,,,,,,,left.png,,w,right,6167007b6e2a3e28b639498e,2021-10-27_12h11.36.883,arrow_simon_punish,2021.1.2,Win32,60.13229104,,,,,,,,,,,,,,w,1,1.8102,1.770098729,1,1,4,2,18,3,1,,,,,,,,,,,,,,
,,,,,,,,,,,right.png,,p,left,6167007b6e2a3e28b639498e,2021-10-27_12h11.36.883,arrow_simon_punish,2021.1.2,Win32,60.13229104,,,,,,,,,,,,,,p,1,1.4459,1.606984874,0,1,4,3,19,0,1,,,,,,,,,,,,,,
,,,,,,,,,,,right.png,,p,right,6167007b6e2a3e28b639498e,2021-10-27_12h11.36.883,arrow_simon_punish,2021.1.2,Win32,60.13229104,,,,,,,,,,,,,,p,1,1.5405,1.825959949,0,1,5,0,20,1,1,,,,,,,,,,,,,,
,,,,,,,,,,,left.png,,w,left,6167007b6e2a3e28b639498e,2021-10-27_12h11.36.883,arrow_simon_punish,2021.1.2,Win32,60.13229104,,,,,,,,,,,,,,w,1,1.7549,1.886551748,1,1,5,1,21,2,1,,,,,,,,,,,,,,
,,,,,,,,,,,left.png,,w,left,6167007b6e2a3e28b639498e,2021-10-27_12h11.36.883,arrow_simon_punish,2021.1.2,Win32,60.13229104,,,,,,,,,,,,,,w,1,1.8603,2.128969193,1,1,5,2,22,2,1,,,,,,,,,,,,,,
,,,,,,,,,,,right.png,,p,left,6167007b6e2a3e28b639498e,2021-10-27_12h11.36.883,arrow_simon_punish,2021.1.2,Win32,60.13229104,,,,,,,,,,,,,,p,1,2.8339,2.039189308,1,1,5,3,23,0,1,,,,,,,,,,,,,,
,,,,,,,,,,,right.png,,p,left,6167007b6e2a3e28b639498e,2021-10-27_12h11.36.883,arrow_simon_punish,2021.1.2,Win32,60.13229104,,,,,,,,,,,,,,p,1,1.8596,2.004065335,1,1,6,0,24,0,1,,,,,,,,,,,,,,
,,,,,,,,,,,left.png,,w,right,6167007b6e2a3e28b639498e,2021-10-27_12h11.36.883,arrow_simon_punish,2021.1.2,Win32,60.13229104,,,,,,,,,,,,,,w,1,2.1022,2.28474011,1,1,6,1,25,3,1,,,,,,,,,,,,,,
,,,,,,,,,,,right.png,,p,right,6167007b6e2a3e28b639498e,2021-10-27_12h11.36.883,arrow_simon_punish,2021.1.2,Win32,60.13229104,,,,,,,,,,,,,,p,1,1.9683,1.786023703,1,1,6,2,26,1,1,,,,,,,,,,,,,,
,,,,,,,,,,,left.png,,w,left,6167007b6e2a3e28b639498e,2021-10-27_12h11.36.883,arrow_simon_punish,2021.1.2,Win32,60.13229104,,,,,,,,,,,,,,w,1,1.9838,2.350726996,1,1,6,3,27,2,1,,,,,,,,,,,,,,
,,,,,,,,,,,left.png,,w,left,6167007b6e2a3e28b639498e,2021-10-27_12h11.36.883,arrow_simon_punish,2021.1.2,Win32,60.13229104,,,,,,,,,,,,,,w,1,1.3308,1.654312934,1,1,7,0,28,2,1,,,,,,,,,,,,,,
,,,,,,,,,,,right.png,,p,right,6167007b6e2a3e28b639498e,2021-10-27_12h11.36.883,arrow_simon_punish,2021.1.2,Win32,60.13229104,,,,,,,,,,,,,,p,1,1.5806,1.622821706,0,1,7,1,29,1,1,,,,,,,,,,,,,,
,,,,,,,,,,,right.png,,p,right,6167007b6e2a3e28b639498e,2021-10-27_12h11.36.883,arrow_simon_punish,2021.1.2,Win32,60.13229104,,,,,,,,,,,,,,p,1,1.784,2.048265777,1,1,7,2,30,1,1,,,,,,,,,,,,,,
,,,,,,,,,,,left.png,,w,left,6167007b6e2a3e28b639498e,2021-10-27_12h11.36.883,arrow_simon_punish,2021.1.2,Win32,60.13229104,,,,,,,,,,,,,,w,1,1.6452,1.916359793,1,1,7,3,31,2,1,,,,,,,,,,,,,,
,,,,,,,,,,,left.png,,w,right,6167007b6e2a3e28b639498e,2021-10-27_12h11.36.883,arrow_simon_punish,2021.1.2,Win32,60.13229104,,,,,,,,,,,,,,w,1,1.5852,1.807553178,0,1,8,0,32,3,1,,,,,,,,,,,,,,
,,,,,,,,,,,left.png,,w,right,6167007b6e2a3e28b639498e,2021-10-27_12h11.36.883,arrow_simon_punish,2021.1.2,Win32,60.13229104,,,,,,,,,,,,,,w,1,1.7752,2.047440894,1,1,8,1,33,3,1,,,,,,,,,,,,,,
,,,,,,,,,,,left.png,,w,left,6167007b6e2a3e28b639498e,2021-10-27_12h11.36.883,arrow_simon_punish,2021.1.2,Win32,60.13229104,,,,,,,,,,,,,,w,1,1.8022,2.101408795,1,1,8,2,34,2,1,,,,,,,,,,,,,,
,,,,,,,,,,,left.png,,w,left,6167007b6e2a3e28b639498e,2021-10-27_12h11.36.883,arrow_simon_punish,2021.1.2,Win32,60.13229104,,,,,,,,,,,,,,w,1,1.3051,1.680523609,1,1,8,3,35,2,1,,,,,,,,,,,,,,
,,,,,,,,,,,left.png,,w,left,6167007b6e2a3e28b639498e,2021-10-27_12h11.36.883,arrow_simon_punish,2021.1.2,Win32,60.13229104,,,,,,,,,,,,,,w,1,1.2953,1.619899643,1,1,9,0,36,2,1,,,,,,,,,,,,,,
,,,,,,,,,,,right.png,,p,right,6167007b6e2a3e28b639498e,2021-10-27_12h11.36.883,arrow_simon_punish,2021.1.2,Win32,60.13229104,,,,,,,,,,,,,,p,1,1.7617,1.821382877,1,1,9,1,37,1,1,,,,,,,,,,,,,,
,,,,,,,,,,,left.png,,w,right,6167007b6e2a3e28b639498e,2021-10-27_12h11.36.883,arrow_simon_punish,2021.1.2,Win32,60.13229104,,,,,,,,,,,,,,w,1,2.1151,2.369686109,1,1,9,2,38,3,1,,,,,,,,,,,,,,
,,,,,,,,,,,right.png,,p,right,6167007b6e2a3e28b639498e,2021-10-27_12h11.36.883,arrow_simon_punish,2021.1.2,Win32,60.13229104,,,,,,,,,,,,,,p,1,1.615,1.873409803,1,1,9,3,39,1,1,,,,,,,,,,,,,,
,,,,,,,,,,,right.png,,p,left,6167007b6e2a3e28b639498e,2021-10-27_12h11.36.883,arrow_simon_punish,2021.1.2,Win32,60.13229104,,,,,,,,,,,,,,p,1,1.1438,1.522135202,1,1,10,0,40,0,1,,,,,,,,,,,,,,
,,,,,,,,,,,right.png,,p,right,6167007b6e2a3e28b639498e,2021-10-27_12h11.36.883,arrow_simon_punish,2021.1.2,Win32,60.13229104,,,,,,,,,,,,,,p,1,2.0196,2.472617411,1,1,10,1,41,1,1,,,,,,,,,,,,,,
,,,,,,,,,,,right.png,,p,right,6167007b6e2a3e28b639498e,2021-10-27_12h11.36.883,arrow_simon_punish,2021.1.2,Win32,60.13229104,,,,,,,,,,,,,,p,1,1.6203,2.13388417,1,1,10,2,42,1,1,,,,,,,,,,,,,,
,,,,,,,,,,,right.png,,p,right,6167007b6e2a3e28b639498e,2021-10-27_12h11.36.883,arrow_simon_punish,2021.1.2,Win32,60.13229104,,,,,,,,,,,,,,p,1,0.9413,1.527953838,1,1,10,3,43,1,1,,,,,,,,,,,,,,
,,,,,,,,,,,left.png,,w,right,6167007b6e2a3e28b639498e,2021-10-27_12h11.36.883,arrow_simon_punish,2021.1.2,Win32,60.13229104,,,,,,,,,,,,,,p,0,1.6543,2.205324822,1,1,11,0,44,3,1,,,,,,,,,,,,,,
,,,,,,,,,,,left.png,,w,right,6167007b6e2a3e28b639498e,2021-10-27_12h11.36.883,arrow_simon_punish,2021.1.2,Win32,60.13229104,,,,,,,,,,,,,,w,1,3.6843,2.40699347,1,1,11,1,45,3,1,,,,,,,,,,,,,,
,,,,,,,,,,,left.png,,w,left,6167007b6e2a3e28b639498e,2021-10-27_12h11.36.883,arrow_simon_punish,2021.1.2,Win32,60.13229104,,,,,,,,,,,,,,w,1,1.417,1.728524135,0,1,11,2,46,2,1,,,,,,,,,,,,,,
,,,,,,,,,,,right.png,,p,right,6167007b6e2a3e28b639498e,2021-10-27_12h11.36.883,arrow_simon_punish,2021.1.2,Win32,60.13229104,,,,,,,,,,,,,,p,1,1.8569,2.15405032,1,1,11,3,47,1,1,,,,,,,,,,,,,,
,,,,,,,,,,,right.png,,p,right,6167007b6e2a3e28b639498e,2021-10-27_12h11.36.883,arrow_simon_punish,2021.1.2,Win32,60.13229104,,,,,,,,,,,,,,p,1,1.7128,1.907880651,1,1,12,0,48,1,1,,,,,,,,,,,,,,
,,,,,,,,,,,right.png,,p,left,6167007b6e2a3e28b639498e,2021-10-27_12h11.36.883,arrow_simon_punish,2021.1.2,Win32,60.13229104,,,,,,,,,,,,,,w,0,2.8215,2.466489051,1,1,12,1,49,0,1,,,,,,,,,,,,,,
,,,,,,,,,,,right.png,,p,right,6167007b6e2a3e28b639498e,2021-10-27_12h11.36.883,arrow_simon_punish,2021.1.2,Win32,60.13229104,,,,,,,,,,,,,,p,1,1.2362,1.590028201,1,1,12,2,50,1,1,,,,,,,,,,,,,,
,,,,,,,,,,,right.png,,p,left,6167007b6e2a3e28b639498e,2021-10-27_12h11.36.883,arrow_simon_punish,2021.1.2,Win32,60.13229104,,,,,,,,,,,,,,p,1,1.2029,1.547842117,1,1,12,3,51,0,1,,,,,,,,,,,,,,
,,,,,,,,,,,left.png,,w,left,6167007b6e2a3e28b639498e,2021-10-27_12h11.36.883,arrow_simon_punish,2021.1.2,Win32,60.13229104,,,,,,,,,,,,,,w,1,2.2946,2.471096733,1,1,13,0,52,2,1,,,,,,,,,,,,,,
,,,,,,,,,,,left.png,,w,left,6167007b6e2a3e28b639498e,2021-10-27_12h11.36.883,arrow_simon_punish,2021.1.2,Win32,60.13229104,,,,,,,,,,,,,,w,1,1.6078,2.122875479,1,1,13,1,53,2,1,,,,,,,,,,,,,,
,,,,,,,,,,,left.png,,w,right,6167007b6e2a3e28b639498e,2021-10-27_12h11.36.883,arrow_simon_punish,2021.1.2,Win32,60.13229104,,,,,,,,,,,,,,w,1,2.2534,2.438307849,1,1,13,2,54,3,1,,,,,,,,,,,,,,
,,,,,,,,,,,right.png,,p,left,6167007b6e2a3e28b639498e,2021-10-27_12h11.36.883,arrow_simon_punish,2021.1.2,Win32,60.13229104,,,,,,,,,,,,,,p,1,2.1221,2.312448155,1,1,13,3,55,0,1,,,,,,,,,,,,,,
,,,,,,,,,,,left.png,,w,right,6167007b6e2a3e28b639498e,2021-10-27_12h11.36.883,arrow_simon_punish,2021.1.2,Win32,60.13229104,,,,,,,,,,,,,,w,1,1.5176,1.680180513,0,1,14,0,56,3,1,,,,,,,,,,,,,,
,,,,,,,,,,,left.png,,w,left,6167007b6e2a3e28b639498e,2021-10-27_12h11.36.883,arrow_simon_punish,2021.1.2,Win32,60.13229104,,,,,,,,,,,,,,w,1,1.5883,1.767193848,0,1,14,1,57,2,1,,,,,,,,,,,,,,
,,,,,,,,,,,left.png,,w,right,6167007b6e2a3e28b639498e,2021-10-27_12h11.36.883,arrow_simon_punish,2021.1.2,Win32,60.13229104,,,,,,,,,,,,,,w,1,1.4675,1.658878062,0,1,14,2,58,3,1,,,,,,,,,,,,,,
,,,,,,,,,,,right.png,,p,left,6167007b6e2a3e28b639498e,2021-10-27_12h11.36.883,arrow_simon_punish,2021.1.2,Win32,60.13229104,,,,,,,,,,,,,,p,1,2.6214,2.102635337,1,1,14,3,59,0,1,,,,,,,,,,,,,,
,,,,,,,,,,,,,,,6167007b6e2a3e28b639498e,2021-10-27_12h11.36.883,arrow_simon_punish,2021.1.2,Win32,60.13229104,,,,,,,,,,,,,,,,,,,,,,,,,space,11.3223,2,0,0,0,0,1,1,,,,,
,,,,,,,,,,,right.png,,p,left,6167007b6e2a3e28b639498e,2021-10-27_12h11.36.883,arrow_simon_punish,2021.1.2,Win32,60.13229104,,,,,,,,,,,,,,p,1,3.3072,2.444882947,1,5,0,0,0,0,1,,,,,,,,,,,,,,
,,,,,,,,,,,left.png,,w,right,6167007b6e2a3e28b639498e,2021-10-27_12h11.36.883,arrow_simon_punish,2021.1.2,Win32,60.13229104,,,,,,,,,,,,,,w,1,2.0464,1.757090733,1,5,0,1,1,3,1,,,,,,,,,,,,,,
,,,,,,,,,,,left.png,,w,right,6167007b6e2a3e28b639498e,2021-10-27_12h11.36.883,arrow_simon_punish,2021.1.2,Win32,60.13229104,,,,,,,,,,,,,,w,1,1.8644,2.232896858,1,5,0,2,2,3,1,,,,,,,,,,,,,,
,,,,,,,,,,,left.png,,w,left,6167007b6e2a3e28b639498e,2021-10-27_12h11.36.883,arrow_simon_punish,2021.1.2,Win32,60.13229104,,,,,,,,,,,,,,w,1,1.4364,1.814319729,0,5,0,3,3,2,1,,,,,,,,,,,,,,
,,,,,,,,,,,right.png,,p,left,6167007b6e2a3e28b639498e,2021-10-27_12h11.36.883,arrow_simon_punish,2021.1.2,Win32,60.13229104,,,,,,,,,,,,,,p,1,1.5091,1.911037373,0,5,1,0,4,0,1,,,,,,,,,,,,,,
,,,,,,,,,,,left.png,,w,right,6167007b6e2a3e28b639498e,2021-10-27_12h11.36.883,arrow_simon_punish,2021.1.2,Win32,60.13229104,,,,,,,,,,,,,,w,1,2.1046,2.415420616,1,5,1,1,5,3,1,,,,,,,,,,,,,,
,,,,,,,,,,,right.png,,p,right,6167007b6e2a3e28b639498e,2021-10-27_12h11.36.883,arrow_simon_punish,2021.1.2,Win32,60.13229104,,,,,,,,,,,,,,p,1,1.7503,2.197205407,1,5,1,2,6,1,1,,,,,,,,,,,,,,
,,,,,,,,,,,right.png,,p,left,6167007b6e2a3e28b639498e,2021-10-27_12h11.36.883,arrow_simon_punish,2021.1.2,Win32,60.13229104,,,,,,,,,,,,,,p,1,2.0384,2.331646269,1,5,1,3,7,0,1,,,,,,,,,,,,,,
,,,,,,,,,,,right.png,,p,right,6167007b6e2a3e28b639498e,2021-10-27_12h11.36.883,arrow_simon_punish,2021.1.2,Win32,60.13229104,,,,,,,,,,,,,,p,1,1.4177,1.827768194,0,5,2,0,8,1,1,,,,,,,,,,,,,,
,,,,,,,,,,,right.png,,p,right,6167007b6e2a3e28b639498e,2021-10-27_12h11.36.883,arrow_simon_punish,2021.1.2,Win32,60.13229104,,,,,,,,,,,,,,p,1,1.1937,1.558160155,1,5,2,1,9,1,1,,,,,,,,,,,,,,
,,,,,,,,,,,left.png,,w,right,6167007b6e2a3e28b639498e,2021-10-27_12h11.36.883,arrow_simon_punish,2021.1.2,Win32,60.13229104,,,,,,,,,,,,,,w,1,8.6316,1.929137549,1,5,2,2,10,3,1,,,,,,,,,,,,,,
,,,,,,,,,,,left.png,,w,right,6167007b6e2a3e28b639498e,2021-10-27_12h11.36.883,arrow_simon_punish,2021.1.2,Win32,60.13229104,,,,,,,,,,,,,,w,1,1.4506,1.67061993,0,5,2,3,11,3,1,,,,,,,,,,,,,,
,,,,,,,,,,,right.png,,p,left,6167007b6e2a3e28b639498e,2021-10-27_12h11.36.883,arrow_simon_punish,2021.1.2,Win32,60.13229104,,,,,,,,,,,,,,p,1,1.2611,1.612196783,1,5,3,0,12,0,1,,,,,,,,,,,,,,
,,,,,,,,,,,right.png,,p,left,6167007b6e2a3e28b639498e,2021-10-27_12h11.36.883,arrow_simon_punish,2021.1.2,Win32,60.13229104,,,,,,,,,,,,,,p,1,4.0116,2.389191284,1,5,3,1,13,0,1,,,,,,,,,,,,,,
,,,,,,,,,,,left.png,,w,left,6167007b6e2a3e28b639498e,2021-10-27_12h11.36.883,arrow_simon_punish,2021.1.2,Win32,60.13229104,,,,,,,,,,,,,,w,1,2.1684,2.343155928,1,5,3,2,14,2,1,,,,,,,,,,,,,,
,,,,,,,,,,,left.png,,w,left,6167007b6e2a3e28b639498e,2021-10-27_12h11.36.883,arrow_simon_punish,2021.1.2,Win32,60.13229104,,,,,,,,,,,,,,w,1,1.5416,1.864126678,0,5,3,3,15,2,1,,,,,,,,,,,,,,
,,,,,,,,,,,left.png,,w,right,6167007b6e2a3e28b639498e,2021-10-27_12h11.36.883,arrow_simon_punish,2021.1.2,Win32,60.13229104,,,,,,,,,,,,,,w,1,1.63,1.836850392,1,5,4,0,16,3,1,,,,,,,,,,,,,,
,,,,,,,,,,,left.png,,w,right,6167007b6e2a3e28b639498e,2021-10-27_12h11.36.883,arrow_simon_punish,2021.1.2,Win32,60.13229104,,,,,,,,,,,,,,w,1,1.9949,2.272950552,1,5,4,1,17,3,1,,,,,,,,,,,,,,
,,,,,,,,,,,right.png,,p,left,6167007b6e2a3e28b639498e,2021-10-27_12h11.36.883,arrow_simon_punish,2021.1.2,Win32,60.13229104,,,,,,,,,,,,,,p,1,2.0845,2.199140725,1,5,4,2,18,0,1,,,,,,,,,,,,,,
,,,,,,,,,,,left.png,,w,right,6167007b6e2a3e28b639498e,2021-10-27_12h11.36.883,arrow_simon_punish,2021.1.2,Win32,60.13229104,,,,,,,,,,,,,,w,1,1.9675,2.163810142,1,5,4,3,19,3,1,,,,,,,,,,,,,,
,,,,,,,,,,,left.png,,w,left,6167007b6e2a3e28b639498e,2021-10-27_12h11.36.883,arrow_simon_punish,2021.1.2,Win32,60.13229104,,,,,,,,,,,,,,w,1,1.5968,1.96819708,0,5,5,0,20,2,1,,,,,,,,,,,,,,
,,,,,,,,,,,left.png,,w,left,6167007b6e2a3e28b639498e,2021-10-27_12h11.36.883,arrow_simon_punish,2021.1.2,Win32,60.13229104,,,,,,,,,,,,,,w,1,1.458,1.892658566,0,5,5,1,21,2,1,,,,,,,,,,,,,,
,,,,,,,,,,,right.png,,p,left,6167007b6e2a3e28b639498e,2021-10-27_12h11.36.883,arrow_simon_punish,2021.1.2,Win32,60.13229104,,,,,,,,,,,,,,p,1,3.9144,2.420959212,1,5,5,2,22,0,1,,,,,,,,,,,,,,
,,,,,,,,,,,right.png,,p,left,6167007b6e2a3e28b639498e,2021-10-27_12h11.36.883,arrow_simon_punish,2021.1.2,Win32,60.13229104,,,,,,,,,,,,,,p,1,1.8577,2.068776578,1,5,5,3,23,0,1,,,,,,,,,,,,,,
,,,,,,,,,,,right.png,,p,right,6167007b6e2a3e28b639498e,2021-10-27_12h11.36.883,arrow_simon_punish,2021.1.2,Win32,60.13229104,,,,,,,,,,,,,,p,1,2.1176,2.442020471,1,5,6,0,24,1,1,,,,,,,,,,,,,,
,,,,,,,,,,,left.png,,w,right,6167007b6e2a3e28b639498e,2021-10-27_12h11.36.883,arrow_simon_punish,2021.1.2,Win32,60.13229104,,,,,,,,,,,,,,w,1,2.8634,1.979988454,1,5,6,1,25,3,1,,,,,,,,,,,,,,
,,,,,,,,,,,left.png,,w,left,6167007b6e2a3e28b639498e,2021-10-27_12h11.36.883,arrow_simon_punish,2021.1.2,Win32,60.13229104,,,,,,,,,,,,,,w,1,1.7147,2.117767512,1,5,6,2,26,2,1,,,,,,,,,,,,,,
,,,,,,,,,,,left.png,,w,right,6167007b6e2a3e28b639498e,2021-10-27_12h11.36.883,arrow_simon_punish,2021.1.2,Win32,60.13229104,,,,,,,,,,,,,,w,1,1.4751,1.707768178,0,5,6,3,27,3,1,,,,,,,,,,,,,,
,,,,,,,,,,,right.png,,p,left,6167007b6e2a3e28b639498e,2021-10-27_12h11.36.883,arrow_simon_punish,2021.1.2,Win32,60.13229104,,,,,,,,,,,,,,p,1,1.9722,2.315611065,1,5,7,0,28,0,1,,,,,,,,,,,,,,
,,,,,,,,,,,left.png,,w,left,6167007b6e2a3e28b639498e,2021-10-27_12h11.36.883,arrow_simon_punish,2021.1.2,Win32,60.13229104,,,,,,,,,,,,,,w,1,1.2791,1.520459242,1,5,7,1,29,2,1,,,,,,,,,,,,,,
,,,,,,,,,,,right.png,,p,right,6167007b6e2a3e28b639498e,2021-10-27_12h11.36.883,arrow_simon_punish,2021.1.2,Win32,60.13229104,,,,,,,,,,,,,,p,1,1.1585,1.53950737,1,5,7,2,30,1,1,,,,,,,,,,,,,,
,,,,,,,,,,,right.png,,p,right,6167007b6e2a3e28b639498e,2021-10-27_12h11.36.883,arrow_simon_punish,2021.1.2,Win32,60.13229104,,,,,,,,,,,,,,p,1,1.1721,1.716235852,1,5,7,3,31,1,1,,,,,,,,,,,,,,
,,,,,,,,,,,right.png,,p,left,6167007b6e2a3e28b639498e,2021-10-27_12h11.36.883,arrow_simon_punish,2021.1.2,Win32,60.13229104,,,,,,,,,,,,,,w,0,2.4225,1.961450355,1,5,8,0,32,0,1,,,,,,,,,,,,,,
,,,,,,,,,,,right.png,,p,right,6167007b6e2a3e28b639498e,2021-10-27_12h11.36.883,arrow_simon_punish,2021.1.2,Win32,60.13229104,,,,,,,,,,,,,,p,1,1.9089,2.397998844,1,5,8,1,33,1,1,,,,,,,,,,,,,,
,,,,,,,,,,,right.png,,p,right,6167007b6e2a3e28b639498e,2021-10-27_12h11.36.883,arrow_simon_punish,2021.1.2,Win32,60.13229104,,,,,,,,,,,,,,p,1,1.7586,2.181909752,1,5,8,2,34,1,1,,,,,,,,,,,,,,
,,,,,,,,,,,right.png,,p,right,6167007b6e2a3e28b639498e,2021-10-27_12h11.36.883,arrow_simon_punish,2021.1.2,Win32,60.13229104,,,,,,,,,,,,,,p,1,1.2896,1.717492268,1,5,8,3,35,1,1,,,,,,,,,,,,,,
,,,,,,,,,,,right.png,,p,right,6167007b6e2a3e28b639498e,2021-10-27_12h11.36.883,arrow_simon_punish,2021.1.2,Win32,60.13229104,,,,,,,,,,,,,,p,1,1.1396,1.757356391,1,5,9,0,36,1,1,,,,,,,,,,,,,,
,,,,,,,,,,,left.png,,w,left,6167007b6e2a3e28b639498e,2021-10-27_12h11.36.883,arrow_simon_punish,2021.1.2,Win32,60.13229104,,,,,,,,,,,,,,w,1,1.6812,2.126069562,1,5,9,1,37,2,1,,,,,,,,,,,,,,
,,,,,,,,,,,left.png,,w,left,6167007b6e2a3e28b639498e,2021-10-27_12h11.36.883,arrow_simon_punish,2021.1.2,Win32,60.13229104,,,,,,,,,,,,,,w,1,1.2951,1.754331193,1,5,9,2,38,2,1,,,,,,,,,,,,,,
,,,,,,,,,,,left.png,,w,right,6167007b6e2a3e28b639498e,2021-10-27_12h11.36.883,arrow_simon_punish,2021.1.2,Win32,60.13229104,,,,,,,,,,,,,,w,1,1.6263,1.560984735,1,5,9,3,39,3,1,,,,,,,,,,,,,,
,,,,,,,,,,,left.png,,w,left,6167007b6e2a3e28b639498e,2021-10-27_12h11.36.883,arrow_simon_punish,2021.1.2,Win32,60.13229104,,,,,,,,,,,,,,w,1,5.1867,2.420224375,1,5,10,0,40,2,1,,,,,,,,,,,,,,
,,,,,,,,,,,right.png,,p,left,6167007b6e2a3e28b639498e,2021-10-27_12h11.36.883,arrow_simon_punish,2021.1.2,Win32,60.13229104,,,,,,,,,,,,,,p,1,1.7511,2.12521886,1,5,10,1,41,0,1,,,,,,,,,,,,,,
,,,,,,,,,,,left.png,,w,right,6167007b6e2a3e28b639498e,2021-10-27_12h11.36.883,arrow_simon_punish,2021.1.2,Win32,60.13229104,,,,,,,,,,,,,,w,1,1.5907,1.963762412,0,5,10,2,42,3,1,,,,,,,,,,,,,,
,,,,,,,,,,,left.png,,w,right,6167007b6e2a3e28b639498e,2021-10-27_12h11.36.883,arrow_simon_punish,2021.1.2,Win32,60.13229104,,,,,,,,,,,,,,w,1,2.2342,1.907858866,1,5,10,3,43,3,1,,,,,,,,,,,,,,
,,,,,,,,,,,right.png,,p,left,6167007b6e2a3e28b639498e,2021-10-27_12h11.36.883,arrow_simon_punish,2021.1.2,Win32,60.13229104,,,,,,,,,,,,,,p,1,1.6692,1.93902932,1,5,11,0,44,0,1,,,,,,,,,,,,,,
,,,,,,,,,,,right.png,,p,right,6167007b6e2a3e28b639498e,2021-10-27_12h11.36.883,arrow_simon_punish,2021.1.2,Win32,60.13229104,,,,,,,,,,,,,,p,1,1.5136,1.902305632,0,5,11,1,45,1,1,,,,,,,,,,,,,,
,,,,,,,,,,,right.png,,p,right,6167007b6e2a3e28b639498e,2021-10-27_12h11.36.883,arrow_simon_punish,2021.1.2,Win32,60.13229104,,,,,,,,,,,,,,p,1,2.0007,2.45245147,1,5,11,2,46,1,1,,,,,,,,,,,,,,
,,,,,,,,,,,left.png,,w,right,6167007b6e2a3e28b639498e,2021-10-27_12h11.36.883,arrow_simon_punish,2021.1.2,Win32,60.13229104,,,,,,,,,,,,,,w,1,1.53,1.779855628,0,5,11,3,47,3,1,,,,,,,,,,,,,,
,,,,,,,,,,,left.png,,w,left,6167007b6e2a3e28b639498e,2021-10-27_12h11.36.883,arrow_simon_punish,2021.1.2,Win32,60.13229104,,,,,,,,,,,,,,w,1,1.7834,2.207768686,1,5,12,0,48,2,1,,,,,,,,,,,,,,
,,,,,,,,,,,left.png,,w,right,6167007b6e2a3e28b639498e,2021-10-27_12h11.36.883,arrow_simon_punish,2021.1.2,Win32,60.13229104,,,,,,,,,,,,,,w,1,1.9695,2.232115449,1,5,12,1,49,3,1,,,,,,,,,,,,,,
,,,,,,,,,,,right.png,,p,right,6167007b6e2a3e28b639498e,2021-10-27_12h11.36.883,arrow_simon_punish,2021.1.2,Win32,60.13229104,,,,,,,,,,,,,,p,1,1.6431,2.192531505,1,5,12,2,50,1,1,,,,,,,,,,,,,,
,,,,,,,,,,,left.png,,w,left,6167007b6e2a3e28b639498e,2021-10-27_12h11.36.883,arrow_simon_punish,2021.1.2,Win32,60.13229104,,,,,,,,,,,,,,w,1,1.558,2.052674656,0,5,12,3,51,2,1,,,,,,,,,,,,,,
,,,,,,,,,,,right.png,,p,left,6167007b6e2a3e28b639498e,2021-10-27_12h11.36.883,arrow_simon_punish,2021.1.2,Win32,60.13229104,,,,,,,,,,,,,,p,1,2.132,2.388698977,1,5,13,0,52,0,1,,,,,,,,,,,,,,
,,,,,,,,,,,right.png,,p,left,6167007b6e2a3e28b639498e,2021-10-27_12h11.36.883,arrow_simon_punish,2021.1.2,Win32,60.13229104,,,,,,,,,,,,,,p,1,1.5341,1.821366157,0,5,13,1,53,0,1,,,,,,,,,,,,,,
,,,,,,,,,,,left.png,,w,left,6167007b6e2a3e28b639498e,2021-10-27_12h11.36.883,arrow_simon_punish,2021.1.2,Win32,60.13229104,,,,,,,,,,,,,,w,1,1.4877,1.859945593,0,5,13,2,54,2,1,,,,,,,,,,,,,,
,,,,,,,,,,,right.png,,p,left,6167007b6e2a3e28b639498e,2021-10-27_12h11.36.883,arrow_simon_punish,2021.1.2,Win32,60.13229104,,,,,,,,,,,,,,p,1,1.993,2.382080916,1,5,13,3,55,0,1,,,,,,,,,,,,,,
,,,,,,,,,,,right.png,,p,right,6167007b6e2a3e28b639498e,2021-10-27_12h11.36.883,arrow_simon_punish,2021.1.2,Win32,60.13229104,,,,,,,,,,,,,,p,1,1.376,1.799020671,1,5,14,0,56,1,1,,,,,,,,,,,,,,
,,,,,,,,,,,right.png,,p,right,6167007b6e2a3e28b639498e,2021-10-27_12h11.36.883,arrow_simon_punish,2021.1.2,Win32,60.13229104,,,,,,,,,,,,,,p,1,1.0535,1.576305112,1,5,14,1,57,1,1,,,,,,,,,,,,,,
,,,,,,,,,,,left.png,,w,left,6167007b6e2a3e28b639498e,2021-10-27_12h11.36.883,arrow_simon_punish,2021.1.2,Win32,60.13229104,,,,,,,,,,,,,,w,1,3.5021,2.159515197,1,5,14,2,58,2,1,,,,,,,,,,,,,,
,,,,,,,,,,,left.png,,w,left,6167007b6e2a3e28b639498e,2021-10-27_12h11.36.883,arrow_simon_punish,2021.1.2,Win32,60.13229104,,,,,,,,,,,,,,w,1,1.6343,2.176471571,1,5,14,3,59,2,1,,,,,,,,,,,,,,
,,,,,,,,,,,,,,,6167007b6e2a3e28b639498e,2021-10-27_12h11.36.883,arrow_simon_punish,2021.1.2,Win32,60.13229104,,,,,,,,,,,,,,,,,,,,,,,,,space,2.9873,3,0,1,1,1,1,5,,,,,
,,,,,,,,,,,right.png,,p,left,6167007b6e2a3e28b639498e,2021-10-27_12h11.36.883,arrow_simon_punish,2021.1.2,Win32,60.13229104,,,,,,,,,,,,,,p,1,1.2893,1.650821428,1,1,0,0,0,0,1,,,,,,,,,,,,,,
,,,,,,,,,,,right.png,,p,left,6167007b6e2a3e28b639498e,2021-10-27_12h11.36.883,arrow_simon_punish,2021.1.2,Win32,60.13229104,,,,,,,,,,,,,,p,1,1.2169,1.703916651,1,1,0,1,1,0,1,,,,,,,,,,,,,,
,,,,,,,,,,,right.png,,p,right,6167007b6e2a3e28b639498e,2021-10-27_12h11.36.883,arrow_simon_punish,2021.1.2,Win32,60.13229104,,,,,,,,,,,,,,p,1,1.501,1.835317731,0,1,0,2,2,1,1,,,,,,,,,,,,,,
,,,,,,,,,,,right.png,,p,right,6167007b6e2a3e28b639498e,2021-10-27_12h11.36.883,arrow_simon_punish,2021.1.2,Win32,60.13229104,,,,,,,,,,,,,,p,1,1.9067,2.492858599,1,1,0,3,3,1,1,,,,,,,,,,,,,,
,,,,,,,,,,,right.png,,p,left,6167007b6e2a3e28b639498e,2021-10-27_12h11.36.883,arrow_simon_punish,2021.1.2,Win32,60.13229104,,,,,,,,,,,,,,p,1,1.1317,1.517821077,1,1,1,0,4,0,1,,,,,,,,,,,,,,
,,,,,,,,,,,left.png,,w,right,6167007b6e2a3e28b639498e,2021-10-27_12h11.36.883,arrow_simon_punish,2021.1.2,Win32,60.13229104,,,,,,,,,,,,,,w,1,2.0565,2.404104179,1,1,1,1,5,3,1,,,,,,,,,,,,,,
,,,,,,,,,,,left.png,,w,right,6167007b6e2a3e28b639498e,2021-10-27_12h11.36.883,arrow_simon_punish,2021.1.2,Win32,60.13229104,,,,,,,,,,,,,,w,1,1.7046,2.133722038,1,1,1,2,6,3,1,,,,,,,,,,,,,,
,,,,,,,,,,,right.png,,p,left,6167007b6e2a3e28b639498e,2021-10-27_12h11.36.883,arrow_simon_punish,2021.1.2,Win32,60.13229104,,,,,,,,,,,,,,p,1,8.7754,1.584829063,1,1,1,3,7,0,1,,,,,,,,,,,,,,
,,,,,,,,,,,left.png,,w,right,6167007b6e2a3e28b639498e,2021-10-27_12h11.36.883,arrow_simon_punish,2021.1.2,Win32,60.13229104,,,,,,,,,,,,,,w,1,1.5786,1.708380287,0,1,2,0,8,3,1,,,,,,,,,,,,,,
,,,,,,,,,,,left.png,,w,left,6167007b6e2a3e28b639498e,2021-10-27_12h11.36.883,arrow_simon_punish,2021.1.2,Win32,60.13229104,,,,,,,,,,,,,,w,1,1.9925,2.254556168,1,1,2,1,9,2,1,,,,,,,,,,,,,,
,,,,,,,,,,,right.png,,p,left,6167007b6e2a3e28b639498e,2021-10-27_12h11.36.883,arrow_simon_punish,2021.1.2,Win32,60.13229104,,,,,,,,,,,,,,p,1,1.6716,2.016990617,1,1,2,2,10,0,1,,,,,,,,,,,,,,
,,,,,,,,,,,left.png,,w,right,6167007b6e2a3e28b639498e,2021-10-27_12h11.36.883,arrow_simon_punish,2021.1.2,Win32,60.13229104,,,,,,,,,,,,,,w,1,2.1079,2.432154541,1,1,2,3,11,3,1,,,,,,,,,,,,,,
,,,,,,,,,,,right.png,,p,left,6167007b6e2a3e28b639498e,2021-10-27_12h11.36.883,arrow_simon_punish,2021.1.2,Win32,60.13229104,,,,,,,,,,,,,,p,1,2.4004,2.308221938,1,1,3,0,12,0,1,,,,,,,,,,,,,,
,,,,,,,,,,,left.png,,w,left,6167007b6e2a3e28b639498e,2021-10-27_12h11.36.883,arrow_simon_punish,2021.1.2,Win32,60.13229104,,,,,,,,,,,,,,w,1,1.8438,2.294304095,1,1,3,1,13,2,1,,,,,,,,,,,,,,
,,,,,,,,,,,left.png,,w,left,6167007b6e2a3e28b639498e,2021-10-27_12h11.36.883,arrow_simon_punish,2021.1.2,Win32,60.13229104,,,,,,,,,,,,,,w,1,1.1922,1.543963199,1,1,3,2,14,2,1,,,,,,,,,,,,,,
,,,,,,,,,,,right.png,,p,right,6167007b6e2a3e28b639498e,2021-10-27_12h11.36.883,arrow_simon_punish,2021.1.2,Win32,60.13229104,,,,,,,,,,,,,,p,1,1.1063,1.709024092,1,1,3,3,15,1,1,,,,,,,,,,,,,,
,,,,,,,,,,,right.png,,p,left,6167007b6e2a3e28b639498e,2021-10-27_12h11.36.883,arrow_simon_punish,2021.1.2,Win32,60.13229104,,,,,,,,,,,,,,w,0,1.2509,1.793089347,1,1,4,0,16,0,1,,,,,,,,,,,,,,
,,,,,,,,,,,left.png,,w,right,6167007b6e2a3e28b639498e,2021-10-27_12h11.36.883,arrow_simon_punish,2021.1.2,Win32,60.13229104,,,,,,,,,,,,,,w,1,2.1805,2.485147903,1,1,4,1,17,3,1,,,,,,,,,,,,,,
,,,,,,,,,,,right.png,,p,left,6167007b6e2a3e28b639498e,2021-10-27_12h11.36.883,arrow_simon_punish,2021.1.2,Win32,60.13229104,,,,,,,,,,,,,,p,1,1.9076,2.316660022,1,1,4,2,18,0,1,,,,,,,,,,,,,,
,,,,,,,,,,,left.png,,w,right,6167007b6e2a3e28b639498e,2021-10-27_12h11.36.883,arrow_simon_punish,2021.1.2,Win32,60.13229104,,,,,,,,,,,,,,w,1,1.9583,2.187806867,1,1,4,3,19,3,1,,,,,,,,,,,,,,
,,,,,,,,,,,right.png,,p,right,6167007b6e2a3e28b639498e,2021-10-27_12h11.36.883,arrow_simon_punish,2021.1.2,Win32,60.13229104,,,,,,,,,,,,,,p,1,3.3773,2.158121965,1,1,5,0,20,1,1,,,,,,,,,,,,,,
,,,,,,,,,,,left.png,,w,left,6167007b6e2a3e28b639498e,2021-10-27_12h11.36.883,arrow_simon_punish,2021.1.2,Win32,60.13229104,,,,,,,,,,,,,,w,1,3.9269,1.548185428,1,1,5,1,21,2,1,,,,,,,,,,,,,,
,,,,,,,,,,,left.png,,w,right,6167007b6e2a3e28b639498e,2021-10-27_12h11.36.883,arrow_simon_punish,2021.1.2,Win32,60.13229104,,,,,,,,,,,,,,w,1,2.246,2.305706607,1,1,5,2,22,3,1,,,,,,,,,,,,,,
,,,,,,,,,,,right.png,,p,left,6167007b6e2a3e28b639498e,2021-10-27_12h11.36.883,arrow_simon_punish,2021.1.2,Win32,60.13229104,,,,,,,,,,,,,,p,1,2.2593,1.93611272,1,1,5,3,23,0,1,,,,,,,,,,,,,,
,,,,,,,,,,,left.png,,w,left,6167007b6e2a3e28b639498e,2021-10-27_12h11.36.883,arrow_simon_punish,2021.1.2,Win32,60.13229104,,,,,,,,,,,,,,w,1,2.3887,2.246678114,1,1,6,0,24,2,1,,,,,,,,,,,,,,
,,,,,,,,,,,left.png,,w,left,6167007b6e2a3e28b639498e,2021-10-27_12h11.36.883,arrow_simon_punish,2021.1.2,Win32,60.13229104,,,,,,,,,,,,,,w,1,1.2402,1.641762818,1,1,6,1,25,2,1,,,,,,,,,,,,,,
,,,,,,,,,,,left.png,,w,right,6167007b6e2a3e28b639498e,2021-10-27_12h11.36.883,arrow_simon_punish,2021.1.2,Win32,60.13229104,,,,,,,,,,,,,,w,1,4.3505,2.092091063,1,1,6,2,26,3,1,,,,,,,,,,,,,,
,,,,,,,,,,,left.png,,w,right,6167007b6e2a3e28b639498e,2021-10-27_12h11.36.883,arrow_simon_punish,2021.1.2,Win32,60.13229104,,,,,,,,,,,,,,w,1,1.5212,1.642953383,0,1,6,3,27,3,1,,,,,,,,,,,,,,
,,,,,,,,,,,left.png,,w,left,6167007b6e2a3e28b639498e,2021-10-27_12h11.36.883,arrow_simon_punish,2021.1.2,Win32,60.13229104,,,,,,,,,,,,,,w,1,1.9388,2.472061313,1,1,7,0,28,2,1,,,,,,,,,,,,,,
,,,,,,,,,,,right.png,,p,right,6167007b6e2a3e28b639498e,2021-10-27_12h11.36.883,arrow_simon_punish,2021.1.2,Win32,60.13229104,,,,,,,,,,,,,,p,1,1.6692,2.125148924,1,1,7,1,29,1,1,,,,,,,,,,,,,,
,,,,,,,,,,,left.png,,w,left,6167007b6e2a3e28b639498e,2021-10-27_12h11.36.883,arrow_simon_punish,2021.1.2,Win32,60.13229104,,,,,,,,,,,,,,w,1,1.7526,2.251701977,1,1,7,2,30,2,1,,,,,,,,,,,,,,
,,,,,,,,,,,right.png,,p,right,6167007b6e2a3e28b639498e,2021-10-27_12h11.36.883,arrow_simon_punish,2021.1.2,Win32,60.13229104,,,,,,,,,,,,,,p,1,1.3447,1.915616466,1,1,7,3,31,1,1,,,,,,,,,,,,,,
,,,,,,,,,,,right.png,,p,left,6167007b6e2a3e28b639498e,2021-10-27_12h11.36.883,arrow_simon_punish,2021.1.2,Win32,60.13229104,,,,,,,,,,,,,,p,1,1.8176,2.046341516,1,1,8,0,32,0,1,,,,,,,,,,,,,,
,,,,,,,,,,,right.png,,p,right,6167007b6e2a3e28b639498e,2021-10-27_12h11.36.883,arrow_simon_punish,2021.1.2,Win32,60.13229104,,,,,,,,,,,,,,p,1,1.628,1.601475786,1,1,8,1,33,1,1,,,,,,,,,,,,,,
,,,,,,,,,,,right.png,,p,right,6167007b6e2a3e28b639498e,2021-10-27_12h11.36.883,arrow_simon_punish,2021.1.2,Win32,60.13229104,,,,,,,,,,,,,,p,1,2.1324,2.491273188,1,1,8,2,34,1,1,,,,,,,,,,,,,,
,,,,,,,,,,,right.png,,p,right,6167007b6e2a3e28b639498e,2021-10-27_12h11.36.883,arrow_simon_punish,2021.1.2,Win32,60.13229104,,,,,,,,,,,,,,p,1,1.569,1.977273519,0,1,8,3,35,1,1,,,,,,,,,,,,,,
,,,,,,,,,,,left.png,,w,right,6167007b6e2a3e28b639498e,2021-10-27_12h11.36.883,arrow_simon_punish,2021.1.2,Win32,60.13229104,,,,,,,,,,,,,,w,1,1.8176,2.053223679,1,1,9,0,36,3,1,,,,,,,,,,,,,,
,,,,,,,,,,,left.png,,w,right,6167007b6e2a3e28b639498e,2021-10-27_12h11.36.883,arrow_simon_punish,2021.1.2,Win32,60.13229104,,,,,,,,,,,,,,w,1,1.3688,1.669777215,1,1,9,1,37,3,1,,,,,,,,,,,,,,
,,,,,,,,,,,right.png,,p,left,6167007b6e2a3e28b639498e,2021-10-27_12h11.36.883,arrow_simon_punish,2021.1.2,Win32,60.13229104,,,,,,,,,,,,,,p,1,2.0013,2.416880538,1,1,9,2,38,0,1,,,,,,,,,,,,,,
,,,,,,,,,,,right.png,,p,right,6167007b6e2a3e28b639498e,2021-10-27_12h11.36.883,arrow_simon_punish,2021.1.2,Win32,60.13229104,,,,,,,,,,,,,,p,1,1.4,1.784862792,0,1,9,3,39,1,1,,,,,,,,,,,,,,
,,,,,,,,,,,right.png,,p,right,6167007b6e2a3e28b639498e,2021-10-27_12h11.36.883,arrow_simon_punish,2021.1.2,Win32,60.13229104,,,,,,,,,,,,,,p,1,1.7883,2.342363861,1,1,10,0,40,1,1,,,,,,,,,,,,,,
,,,,,,,,,,,right.png,,p,right,6167007b6e2a3e28b639498e,2021-10-27_12h11.36.883,arrow_simon_punish,2021.1.2,Win32,60.13229104,,,,,,,,,,,,,,p,1,1.3577,1.89249167,1,1,10,1,41,1,1,,,,,,,,,,,,,,
,,,,,,,,,,,left.png,,w,left,6167007b6e2a3e28b639498e,2021-10-27_12h11.36.883,arrow_simon_punish,2021.1.2,Win32,60.13229104,,,,,,,,,,,,,,w,1,1.3623,1.882938131,1,1,10,2,42,2,1,,,,,,,,,,,,,,
,,,,,,,,,,,right.png,,p,left,6167007b6e2a3e28b639498e,2021-10-27_12h11.36.883,arrow_simon_punish,2021.1.2,Win32,60.13229104,,,,,,,,,,,,,,p,1,1.604,1.863789585,1,1,10,3,43,0,1,,,,,,,,,,,,,,
,,,,,,,,,,,left.png,,w,left,6167007b6e2a3e28b639498e,2021-10-27_12h11.36.883,arrow_simon_punish,2021.1.2,Win32,60.13229104,,,,,,,,,,,,,,w,1,1.2237,1.558488715,1,1,11,0,44,2,1,,,,,,,,,,,,,,
,,,,,,,,,,,left.png,,w,left,6167007b6e2a3e28b639498e,2021-10-27_12h11.36.883,arrow_simon_punish,2021.1.2,Win32,60.13229104,,,,,,,,,,,,,,w,1,2.2759,2.068280622,1,1,11,1,45,2,1,,,,,,,,,,,,,,
,,,,,,,,,,,left.png,,w,right,6167007b6e2a3e28b639498e,2021-10-27_12h11.36.883,arrow_simon_punish,2021.1.2,Win32,60.13229104,,,,,,,,,,,,,,w,1,1.87,2.179456256,1,1,11,2,46,3,1,,,,,,,,,,,,,,
,,,,,,,,,,,right.png,,p,right,6167007b6e2a3e28b639498e,2021-10-27_12h11.36.883,arrow_simon_punish,2021.1.2,Win32,60.13229104,,,,,,,,,,,,,,w,0,1.8004,1.506001364,1,1,11,3,47,1,1,,,,,,,,,,,,,,
,,,,,,,,,,,right.png,,p,left,6167007b6e2a3e28b639498e,2021-10-27_12h11.36.883,arrow_simon_punish,2021.1.2,Win32,60.13229104,,,,,,,,,,,,,,w,0,1.0307,1.662693154,1,1,12,0,48,0,1,,,,,,,,,,,,,,
,,,,,,,,,,,left.png,,w,left,6167007b6e2a3e28b639498e,2021-10-27_12h11.36.883,arrow_simon_punish,2021.1.2,Win32,60.13229104,,,,,,,,,,,,,,w,1,2.0848,2.417360849,1,1,12,1,49,2,1,,,,,,,,,,,,,,
,,,,,,,,,,,right.png,,p,right,6167007b6e2a3e28b639498e,2021-10-27_12h11.36.883,arrow_simon_punish,2021.1.2,Win32,60.13229104,,,,,,,,,,,,,,p,1,1.8581,2.141223791,1,1,12,2,50,1,1,,,,,,,,,,,,,,
,,,,,,,,,,,left.png,,w,right,6167007b6e2a3e28b639498e,2021-10-27_12h11.36.883,arrow_simon_punish,2021.1.2,Win32,60.13229104,,,,,,,,,,,,,,w,1,2.0184,2.359891011,1,1,12,3,51,3,1,,,,,,,,,,,,,,
,,,,,,,,,,,left.png,,w,left,6167007b6e2a3e28b639498e,2021-10-27_12h11.36.883,arrow_simon_punish,2021.1.2,Win32,60.13229104,,,,,,,,,,,,,,w,1,2.098,2.446373495,1,1,13,0,52,2,1,,,,,,,,,,,,,,
,,,,,,,,,,,left.png,,w,right,6167007b6e2a3e28b639498e,2021-10-27_12h11.36.883,arrow_simon_punish,2021.1.2,Win32,60.13229104,,,,,,,,,,,,,,w,1,1.7088,2.033847972,1,1,13,1,53,3,1,,,,,,,,,,,,,,
,,,,,,,,,,,left.png,,w,left,6167007b6e2a3e28b639498e,2021-10-27_12h11.36.883,arrow_simon_punish,2021.1.2,Win32,60.13229104,,,,,,,,,,,,,,w,1,1.4005,1.828777612,0,1,13,2,54,2,1,,,,,,,,,,,,,,
,,,,,,,,,,,left.png,,w,left,6167007b6e2a3e28b639498e,2021-10-27_12h11.36.883,arrow_simon_punish,2021.1.2,Win32,60.13229104,,,,,,,,,,,,,,w,1,1.8256,2.336595875,1,1,13,3,55,2,1,,,,,,,,,,,,,,
,,,,,,,,,,,right.png,,p,left,6167007b6e2a3e28b639498e,2021-10-27_12h11.36.883,arrow_simon_punish,2021.1.2,Win32,60.13229104,,,,,,,,,,,,,,p,1,2.097,2.403737743,1,1,14,0,56,0,1,,,,,,,,,,,,,,
,,,,,,,,,,,right.png,,p,right,6167007b6e2a3e28b639498e,2021-10-27_12h11.36.883,arrow_simon_punish,2021.1.2,Win32,60.13229104,,,,,,,,,,,,,,p,1,1.7212,2.280478766,1,1,14,1,57,1,1,,,,,,,,,,,,,,
,,,,,,,,,,,right.png,,p,left,6167007b6e2a3e28b639498e,2021-10-27_12h11.36.883,arrow_simon_punish,2021.1.2,Win32,60.13229104,,,,,,,,,,,,,,w,0,1.6087,2.107854643,1,1,14,2,58,0,1,,,,,,,,,,,,,,
,,,,,,,,,,,left.png,,w,right,6167007b6e2a3e28b639498e,2021-10-27_12h11.36.883,arrow_simon_punish,2021.1.2,Win32,60.13229104,,,,,,,,,,,,,,w,1,3.0092,2.455675034,1,1,14,3,59,3,1,,,,,,,,,,,,,,
,,,,,,,,,,,,,,,6167007b6e2a3e28b639498e,2021-10-27_12h11.36.883,arrow_simon_punish,2021.1.2,Win32,60.13229104,,,,,,,,,,,,,,,,,,,,,,,,,space,1.4514,4,1,0,2,0,1,1,,,,,
,,,,,,,,,,,left.png,,w,left,6167007b6e2a3e28b639498e,2021-10-27_12h11.36.883,arrow_simon_punish,2021.1.2,Win32,60.13229104,,,,,,,,,,,,,,w,1,1.7702,2.294956064,1,5,0,0,0,2,1,,,,,,,,,,,,,,
,,,,,,,,,,,left.png,,w,left,6167007b6e2a3e28b639498e,2021-10-27_12h11.36.883,arrow_simon_punish,2021.1.2,Win32,60.13229104,,,,,,,,,,,,,,w,1,1.4261,1.931551736,0,5,0,1,1,2,1,,,,,,,,,,,,,,
,,,,,,,,,,,left.png,,w,left,6167007b6e2a3e28b639498e,2021-10-27_12h11.36.883,arrow_simon_punish,2021.1.2,Win32,60.13229104,,,,,,,,,,,,,,w,1,1.1468,1.61592122,1,5,0,2,2,2,1,,,,,,,,,,,,,,
,,,,,,,,,,,left.png,,w,left,6167007b6e2a3e28b639498e,2021-10-27_12h11.36.883,arrow_simon_punish,2021.1.2,Win32,60.13229104,,,,,,,,,,,,,,w,1,1.1776,1.566480165,1,5,0,3,3,2,1,,,,,,,,,,,,,,
,,,,,,,,,,,right.png,,p,right,6167007b6e2a3e28b639498e,2021-10-27_12h11.36.883,arrow_simon_punish,2021.1.2,Win32,60.13229104,,,,,,,,,,,,,,p,1,1.5389,1.979841836,0,5,1,0,4,1,1,,,,,,,,,,,,,,
,,,,,,,,,,,left.png,,w,left,6167007b6e2a3e28b639498e,2021-10-27_12h11.36.883,arrow_simon_punish,2021.1.2,Win32,60.13229104,,,,,,,,,,,,,,w,1,1.7505,2.251786602,1,5,1,1,5,2,1,,,,,,,,,,,,,,
,,,,,,,,,,,left.png,,w,right,6167007b6e2a3e28b639498e,2021-10-27_12h11.36.883,arrow_simon_punish,2021.1.2,Win32,60.13229104,,,,,,,,,,,,,,p,0,0.9613,1.506446043,1,5,1,2,6,3,1,,,,,,,,,,,,,,
,,,,,,,,,,,right.png,,p,left,6167007b6e2a3e28b639498e,2021-10-27_12h11.36.883,arrow_simon_punish,2021.1.2,Win32,60.13229104,,,,,,,,,,,,,,p,1,1.4641,1.747964401,0,5,1,3,7,0,1,,,,,,,,,,,,,,
,,,,,,,,,,,right.png,,p,left,6167007b6e2a3e28b639498e,2021-10-27_12h11.36.883,arrow_simon_punish,2021.1.2,Win32,60.13229104,,,,,,,,,,,,,,p,1,1.4864,1.692207596,0,5,2,0,8,0,1,,,,,,,,,,,,,,
,,,,,,,,,,,left.png,,w,right,6167007b6e2a3e28b639498e,2021-10-27_12h11.36.883,arrow_simon_punish,2021.1.2,Win32,60.13229104,,,,,,,,,,,,,,w,1,1.7605,1.969074931,1,5,2,1,9,3,1,,,,,,,,,,,,,,
,,,,,,,,,,,right.png,,p,right,6167007b6e2a3e28b639498e,2021-10-27_12h11.36.883,arrow_simon_punish,2021.1.2,Win32,60.13229104,,,,,,,,,,,,,,p,1,1.5377,1.982776785,0,5,2,2,10,1,1,,,,,,,,,,,,,,
,,,,,,,,,,,left.png,,w,left,6167007b6e2a3e28b639498e,2021-10-27_12h11.36.883,arrow_simon_punish,2021.1.2,Win32,60.13229104,,,,,,,,,,,,,,w,1,1.8194,2.170250784,1,5,2,3,11,2,1,,,,,,,,,,,,,,
,,,,,,,,,,,left.png,,w,left,6167007b6e2a3e28b639498e,2021-10-27_12h11.36.883,arrow_simon_punish,2021.1.2,Win32,60.13229104,,,,,,,,,,,,,,w,1,2.054,2.09460271,1,5,3,0,12,2,1,,,,,,,,,,,,,,
,,,,,,,,,,,right.png,,p,right,6167007b6e2a3e28b639498e,2021-10-27_12h11.36.883,arrow_simon_punish,2021.1.2,Win32,60.13229104,,,,,,,,,,,,,,p,1,1.6713,2.148025938,1,5,3,1,13,1,1,,,,,,,,,,,,,,
,,,,,,,,,,,right.png,,p,left,6167007b6e2a3e28b639498e,2021-10-27_12h11.36.883,arrow_simon_punish,2021.1.2,Win32,60.13229104,,,,,,,,,,,,,,p,1,1.4247,1.611117835,0,5,3,2,14,0,1,,,,,,,,,,,,,,
,,,,,,,,,,,right.png,,p,left,6167007b6e2a3e28b639498e,2021-10-27_12h11.36.883,arrow_simon_punish,2021.1.2,Win32,60.13229104,,,,,,,,,,,,,,p,1,1.8385,1.967399476,1,5,3,3,15,0,1,,,,,,,,,,,,,,
,,,,,,,,,,,right.png,,p,right,6167007b6e2a3e28b639498e,2021-10-27_12h11.36.883,arrow_simon_punish,2021.1.2,Win32,60.13229104,,,,,,,,,,,,,,p,1,1.5758,2.087825146,0,5,4,0,16,1,1,,,,,,,,,,,,,,
,,,,,,,,,,,left.png,,w,left,6167007b6e2a3e28b639498e,2021-10-27_12h11.36.883,arrow_simon_punish,2021.1.2,Win32,60.13229104,,,,,,,,,,,,,,w,1,1.5729,2.106513967,0,5,4,1,17,2,1,,,,,,,,,,,,,,
,,,,,,,,,,,left.png,,w,right,6167007b6e2a3e28b639498e,2021-10-27_12h11.36.883,arrow_simon_punish,2021.1.2,Win32,60.13229104,,,,,,,,,,,,,,w,1,1.3705,1.557960537,1,5,4,2,18,3,1,,,,,,,,,,,,,,
,,,,,,,,,,,left.png,,w,left,6167007b6e2a3e28b639498e,2021-10-27_12h11.36.883,arrow_simon_punish,2021.1.2,Win32,60.13229104,,,,,,,,,,,,,,w,1,1.224,1.651013113,1,5,4,3,19,2,1,,,,,,,,,,,,,,
,,,,,,,,,,,left.png,,w,right,6167007b6e2a3e28b639498e,2021-10-27_12h11.36.883,arrow_simon_punish,2021.1.2,Win32,60.13229104,,,,,,,,,,,,,,w,1,1.6544,2.012471309,1,5,5,0,20,3,1,,,,,,,,,,,,,,
,,,,,,,,,,,right.png,,p,right,6167007b6e2a3e28b639498e,2021-10-27_12h11.36.883,arrow_simon_punish,2021.1.2,Win32,60.13229104,,,,,,,,,,,,,,p,1,1.7966,2.112237858,1,5,5,1,21,1,1,,,,,,,,,,,,,,
,,,,,,,,,,,left.png,,w,right,6167007b6e2a3e28b639498e,2021-10-27_12h11.36.883,arrow_simon_punish,2021.1.2,Win32,60.13229104,,,,,,,,,,,,,,w,1,2.1513,2.452658574,1,5,5,2,22,3,1,,,,,,,,,,,,,,
,,,,,,,,,,,left.png,,w,right,6167007b6e2a3e28b639498e,2021-10-27_12h11.36.883,arrow_simon_punish,2021.1.2,Win32,60.13229104,,,,,,,,,,,,,,w,1,1.7854,1.916717999,1,5,5,3,23,3,1,,,,,,,,,,,,,,
,,,,,,,,,,,right.png,,p,left,6167007b6e2a3e28b639498e,2021-10-27_12h11.36.883,arrow_simon_punish,2021.1.2,Win32,60.13229104,,,,,,,,,,,,,,w,0,1.705,2.16863666,1,5,6,0,24,0,1,,,,,,,,,,,,,,
,,,,,,,,,,,right.png,,p,left,6167007b6e2a3e28b639498e,2021-10-27_12h11.36.883,arrow_simon_punish,2021.1.2,Win32,60.13229104,,,,,,,,,,,,,,w,0,1.367,1.83421421,1,5,6,1,25,0,1,,,,,,,,,,,,,,
,,,,,,,,,,,left.png,,w,left,6167007b6e2a3e28b639498e,2021-10-27_12h11.36.883,arrow_simon_punish,2021.1.2,Win32,60.13229104,,,,,,,,,,,,,,w,1,2.534,2.379632679,1,5,6,2,26,2,1,,,,,,,,,,,,,,
,,,,,,,,,,,left.png,,w,left,6167007b6e2a3e28b639498e,2021-10-27_12h11.36.883,arrow_simon_punish,2021.1.2,Win32,60.13229104,,,,,,,,,,,,,,w,1,1.7013,2.17073123,1,5,6,3,27,2,1,,,,,,,,,,,,,,
,,,,,,,,,,,right.png,,p,right,6167007b6e2a3e28b639498e,2021-10-27_12h11.36.883,arrow_simon_punish,2021.1.2,Win32,60.13229104,,,,,,,,,,,,,,p,1,1.3445,1.841165446,1,5,7,0,28,1,1,,,,,,,,,,,,,,
,,,,,,,,,,,right.png,,p,left,6167007b6e2a3e28b639498e,2021-10-27_12h11.36.883,arrow_simon_punish,2021.1.2,Win32,60.13229104,,,,,,,,,,,,,,p,1,1.988,2.217342293,1,5,7,1,29,0,1,,,,,,,,,,,,,,
,,,,,,,,,,,right.png,,p,left,6167007b6e2a3e28b639498e,2021-10-27_12h11.36.883,arrow_simon_punish,2021.1.2,Win32,60.13229104,,,,,,,,,,,,,,p,1,1.4112,1.732115377,0,5,7,2,30,0,1,,,,,,,,,,,,,,
,,,,,,,,,,,left.png,,w,right,6167007b6e2a3e28b639498e,2021-10-27_12h11.36.883,arrow_simon_punish,2021.1.2,Win32,60.13229104,,,,,,,,,,,,,,w,1,2.0551,2.323597145,1,5,7,3,31,3,1,,,,,,,,,,,,,,
,,,,,,,,,,,right.png,,p,right,6167007b6e2a3e28b639498e,2021-10-27_12h11.36.883,arrow_simon_punish,2021.1.2,Win32,60.13229104,,,,,,,,,,,,,,p,1,1.4074,1.650077663,0,5,8,0,32,1,1,,,,,,,,,,,,,,
,,,,,,,,,,,left.png,,w,right,6167007b6e2a3e28b639498e,2021-10-27_12h11.36.883,arrow_simon_punish,2021.1.2,Win32,60.13229104,,,,,,,,,,,,,,w,1,1.9436,2.103115318,1,5,8,1,33,3,1,,,,,,,,,,,,,,
,,,,,,,,,,,left.png,,w,right,6167007b6e2a3e28b639498e,2021-10-27_12h11.36.883,arrow_simon_punish,2021.1.2,Win32,60.13229104,,,,,,,,,,,,,,w,1,2.2877,2.371983904,1,5,8,2,34,3,1,,,,,,,,,,,,,,
,,,,,,,,,,,right.png,,p,right,6167007b6e2a3e28b639498e,2021-10-27_12h11.36.883,arrow_simon_punish,2021.1.2,Win32,60.13229104,,,,,,,,,,,,,,p,1,1.1505,1.515512148,1,5,8,3,35,1,1,,,,,,,,,,,,,,
,,,,,,,,,,,right.png,,p,left,6167007b6e2a3e28b639498e,2021-10-27_12h11.36.883,arrow_simon_punish,2021.1.2,Win32,60.13229104,,,,,,,,,,,,,,p,1,1.8454,2.055416999,1,5,9,0,36,0,1,,,,,,,,,,,,,,
,,,,,,,,,,,right.png,,p,right,6167007b6e2a3e28b639498e,2021-10-27_12h11.36.883,arrow_simon_punish,2021.1.2,Win32,60.13229104,,,,,,,,,,,,,,p,1,1.7689,2.138271153,1,5,9,1,37,1,1,,,,,,,,,,,,,,
,,,,,,,,,,,left.png,,w,left,6167007b6e2a3e28b639498e,2021-10-27_12h11.36.883,arrow_simon_punish,2021.1.2,Win32,60.13229104,,,,,,,,,,,,,,w,1,1.5458,1.902124905,0,5,9,2,38,2,1,,,,,,,,,,,,,,
,,,,,,,,,,,right.png,,p,left,6167007b6e2a3e28b639498e,2021-10-27_12h11.36.883,arrow_simon_punish,2021.1.2,Win32,60.13229104,,,,,,,,,,,,,,p,1,2.1758,2.488946836,1,5,9,3,39,0,1,,,,,,,,,,,,,,
,,,,,,,,,,,right.png,,p,right,6167007b6e2a3e28b639498e,2021-10-27_12h11.36.883,arrow_simon_punish,2021.1.2,Win32,60.13229104,,,,,,,,,,,,,,p,1,1.4415,1.689759637,0,5,10,0,40,1,1,,,,,,,,,,,,,,
,,,,,,,,,,,right.png,,p,right,6167007b6e2a3e28b639498e,2021-10-27_12h11.36.883,arrow_simon_punish,2021.1.2,Win32,60.13229104,,,,,,,,,,,,,,p,1,1.3645,1.625207707,1,5,10,1,41,1,1,,,,,,,,,,,,,,
,,,,,,,,,,,left.png,,w,right,6167007b6e2a3e28b639498e,2021-10-27_12h11.36.883,arrow_simon_punish,2021.1.2,Win32,60.13229104,,,,,,,,,,,,,,w,1,1.6804,1.977767988,1,5,10,2,42,3,1,,,,,,,,,,,,,,
,,,,,,,,,,,left.png,,w,right,6167007b6e2a3e28b639498e,2021-10-27_12h11.36.883,arrow_simon_punish,2021.1.2,Win32,60.13229104,,,,,,,,,,,,,,w,1,2.1535,2.268274382,1,5,10,3,43,3,1,,,,,,,,,,,,,,
,,,,,,,,,,,right.png,,p,left,6167007b6e2a3e28b639498e,2021-10-27_12h11.36.883,arrow_simon_punish,2021.1.2,Win32,60.13229104,,,,,,,,,,,,,,p,1,1.8337,2.175347673,1,5,11,0,44,0,1,,,,,,,,,,,,,,
,,,,,,,,,,,left.png,,w,right,6167007b6e2a3e28b639498e,2021-10-27_12h11.36.883,arrow_simon_punish,2021.1.2,Win32,60.13229104,,,,,,,,,,,,,,w,1,1.9174,2.025559903,1,5,11,1,45,3,1,,,,,,,,,,,,,,
,,,,,,,,,,,left.png,,w,left,6167007b6e2a3e28b639498e,2021-10-27_12h11.36.883,arrow_simon_punish,2021.1.2,Win32,60.13229104,,,,,,,,,,,,,,w,1,1.5445,1.897415139,0,5,11,2,46,2,1,,,,,,,,,,,,,,
,,,,,,,,,,,right.png,,p,right,6167007b6e2a3e28b639498e,2021-10-27_12h11.36.883,arrow_simon_punish,2021.1.2,Win32,60.13229104,,,,,,,,,,,,,,p,1,1.7485,2.135120742,1,5,11,3,47,1,1,,,,,,,,,,,,,,
,,,,,,,,,,,right.png,,p,left,6167007b6e2a3e28b639498e,2021-10-27_12h11.36.883,arrow_simon_punish,2021.1.2,Win32,60.13229104,,,,,,,,,,,,,,p,1,1.609,1.961241896,1,5,12,0,48,0,1,,,,,,,,,,,,,,
,,,,,,,,,,,left.png,,w,left,6167007b6e2a3e28b639498e,2021-10-27_12h11.36.883,arrow_simon_punish,2021.1.2,Win32,60.13229104,,,,,,,,,,,,,,w,1,1.2912,1.552817285,1,5,12,1,49,2,1,,,,,,,,,,,,,,
,,,,,,,,,,,left.png,,w,right,6167007b6e2a3e28b639498e,2021-10-27_12h11.36.883,arrow_simon_punish,2021.1.2,Win32,60.13229104,,,,,,,,,,,,,,p,0,1.7031,2.223556396,1,5,12,2,50,3,1,,,,,,,,,,,,,,
,,,,,,,,,,,right.png,,p,left,6167007b6e2a3e28b639498e,2021-10-27_12h11.36.883,arrow_simon_punish,2021.1.2,Win32,60.13229104,,,,,,,,,,,,,,p,1,1.302,1.747447948,1,5,12,3,51,0,1,,,,,,,,,,,,,,
,,,,,,,,,,,left.png,,w,right,6167007b6e2a3e28b639498e,2021-10-27_12h11.36.883,arrow_simon_punish,2021.1.2,Win32,60.13229104,,,,,,,,,,,,,,w,1,1.2734,1.559372339,1,5,13,0,52,3,1,,,,,,,,,,,,,,
,,,,,,,,,,,right.png,,p,left,6167007b6e2a3e28b639498e,2021-10-27_12h11.36.883,arrow_simon_punish,2021.1.2,Win32,60.13229104,,,,,,,,,,,,,,p,1,2.7162,2.269827156,1,5,13,1,53,0,1,,,,,,,,,,,,,,
,,,,,,,,,,,right.png,,p,right,6167007b6e2a3e28b639498e,2021-10-27_12h11.36.883,arrow_simon_punish,2021.1.2,Win32,60.13229104,,,,,,,,,,,,,,p,1,2.1441,2.297808064,1,5,13,2,54,1,1,,,,,,,,,,,,,,
,,,,,,,,,,,right.png,,p,right,6167007b6e2a3e28b639498e,2021-10-27_12h11.36.883,arrow_simon_punish,2021.1.2,Win32,60.13229104,,,,,,,,,,,,,,p,1,1.8973,2.317505966,1,5,13,3,55,1,1,,,,,,,,,,,,,,
,,,,,,,,,,,left.png,,w,right,6167007b6e2a3e28b639498e,2021-10-27_12h11.36.883,arrow_simon_punish,2021.1.2,Win32,60.13229104,,,,,,,,,,,,,,w,1,2.1549,2.326376528,1,5,14,0,56,3,1,,,,,,,,,,,,,,
,,,,,,,,,,,right.png,,p,left,6167007b6e2a3e28b639498e,2021-10-27_12h11.36.883,arrow_simon_punish,2021.1.2,Win32,60.13229104,,,,,,,,,,,,,,p,1,1.9611,1.512026478,1,5,14,1,57,0,1,,,,,,,,,,,,,,
,,,,,,,,,,,right.png,,p,right,6167007b6e2a3e28b639498e,2021-10-27_12h11.36.883,arrow_simon_punish,2021.1.2,Win32,60.13229104,,,,,,,,,,,,,,p,1,1.2578,1.651278777,1,5,14,2,58,1,1,,,,,,,,,,,,,,
,,,,,,,,,,,left.png,,w,left,6167007b6e2a3e28b639498e,2021-10-27_12h11.36.883,arrow_simon_punish,2021.1.2,Win32,60.13229104,,,,,,,,,,,,,,w,1,1.3174,1.730158525,1,5,14,3,59,2,1,,,,,,,,,,,,,,
,,,,,,,,,,,,,,,6167007b6e2a3e28b639498e,2021-10-27_12h11.36.883,arrow_simon_punish,2021.1.2,Win32,60.13229104,,,,,,,,,,,,,,,,,,,,,,,,,space,2.637,5,1,1,3,1,1,5,,,,,
,,,,,,,,,,,right.png,,p,left,6167007b6e2a3e28b639498e,2021-10-27_12h11.36.883,arrow_simon_punish,2021.1.2,Win32,60.13229104,,,,,,,,,,,,,,p,1,1.7178,1.843848774,1,1,0,0,0,0,1,,,,,,,,,,,,,,
,,,,,,,,,,,left.png,,w,left,6167007b6e2a3e28b639498e,2021-10-27_12h11.36.883,arrow_simon_punish,2021.1.2,Win32,60.13229104,,,,,,,,,,,,,,w,1,1.5942,2.034988979,0,1,0,1,1,2,1,,,,,,,,,,,,,,
,,,,,,,,,,,right.png,,p,left,6167007b6e2a3e28b639498e,2021-10-27_12h11.36.883,arrow_simon_punish,2021.1.2,Win32,60.13229104,,,,,,,,,,,,,,p,1,1.8173,2.215340151,1,1,0,2,2,0,1,,,,,,,,,,,,,,
,,,,,,,,,,,right.png,,p,right,6167007b6e2a3e28b639498e,2021-10-27_12h11.36.883,arrow_simon_punish,2021.1.2,Win32,60.13229104,,,,,,,,,,,,,,p,1,1.7934,2.285175535,1,1,0,3,3,1,1,,,,,,,,,,,,,,
,,,,,,,,,,,right.png,,p,right,6167007b6e2a3e28b639498e,2021-10-27_12h11.36.883,arrow_simon_punish,2021.1.2,Win32,60.13229104,,,,,,,,,,,,,,p,1,1.1419,1.672007956,1,1,1,0,4,1,1,,,,,,,,,,,,,,
,,,,,,,,,,,left.png,,w,right,6167007b6e2a3e28b639498e,2021-10-27_12h11.36.883,arrow_simon_punish,2021.1.2,Win32,60.13229104,,,,,,,,,,,,,,w,1,1.6631,1.874259493,1,1,1,1,5,3,1,,,,,,,,,,,,,,
,,,,,,,,,,,left.png,,w,left,6167007b6e2a3e28b639498e,2021-10-27_12h11.36.883,arrow_simon_punish,2021.1.2,Win32,60.13229104,,,,,,,,,,,,,,w,1,1.8502,2.376103324,1,1,1,2,6,2,1,,,,,,,,,,,,,,
,,,,,,,,,,,left.png,,w,left,6167007b6e2a3e28b639498e,2021-10-27_12h11.36.883,arrow_simon_punish,2021.1.2,Win32,60.13229104,,,,,,,,,,,,,,w,1,1.5747,2.072623865,0,1,1,3,7,2,1,,,,,,,,,,,,,,
,,,,,,,,,,,right.png,,p,right,6167007b6e2a3e28b639498e,2021-10-27_12h11.36.883,arrow_simon_punish,2021.1.2,Win32,60.13229104,,,,,,,,,,,,,,p,1,1.2702,1.753948222,1,1,2,0,8,1,1,,,,,,,,,,,,,,
,,,,,,,,,,,left.png,,w,right,6167007b6e2a3e28b639498e,2021-10-27_12h11.36.883,arrow_simon_punish,2021.1.2,Win32,60.13229104,,,,,,,,,,,,,,p,0,1.2113,1.704026322,1,1,2,1,9,3,1,,,,,,,,,,,,,,
,,,,,,,,,,,left.png,,w,left,6167007b6e2a3e28b639498e,2021-10-27_12h11.36.883,arrow_simon_punish,2021.1.2,Win32,60.13229104,,,,,,,,,,,,,,w,1,1.8191,2.013419054,1,1,2,2,10,2,1,,,,,,,,,,,,,,
,,,,,,,,,,,right.png,,p,right,6167007b6e2a3e28b639498e,2021-10-27_12h11.36.883,arrow_simon_punish,2021.1.2,Win32,60.13229104,,,,,,,,,,,,,,p,1,1.6418,2.207859205,1,1,2,3,11,1,1,,,,,,,,,,,,,,
,,,,,,,,,,,right.png,,p,left,6167007b6e2a3e28b639498e,2021-10-27_12h11.36.883,arrow_simon_punish,2021.1.2,Win32,60.13229104,,,,,,,,,,,,,,w,0,1.4542,1.524714255,1,1,3,0,12,0,1,,,,,,,,,,,,,,
,,,,,,,,,,,right.png,,p,right,6167007b6e2a3e28b639498e,2021-10-27_12h11.36.883,arrow_simon_punish,2021.1.2,Win32,60.13229104,,,,,,,,,,,,,,p,1,1.688,2.109393667,1,1,3,1,13,1,1,,,,,,,,,,,,,,
,,,,,,,,,,,left.png,,w,right,6167007b6e2a3e28b639498e,2021-10-27_12h11.36.883,arrow_simon_punish,2021.1.2,Win32,60.13229104,,,,,,,,,,,,,,w,1,2.1431,1.979147887,1,1,3,2,14,3,1,,,,,,,,,,,,,,
,,,,,,,,,,,left.png,,w,left,6167007b6e2a3e28b639498e,2021-10-27_12h11.36.883,arrow_simon_punish,2021.1.2,Win32,60.13229104,,,,,,,,,,,,,,w,1,1.6893,2.082516732,1,1,3,3,15,2,1,,,,,,,,,,,,,,
,,,,,,,,,,,left.png,,w,left,6167007b6e2a3e28b639498e,2021-10-27_12h11.36.883,arrow_simon_punish,2021.1.2,Win32,60.13229104,,,,,,,,,,,,,,w,1,1.6546,1.934461995,1,1,4,0,16,2,1,,,,,,,,,,,,,,
,,,,,,,,,,,left.png,,w,right,6167007b6e2a3e28b639498e,2021-10-27_12h11.36.883,arrow_simon_punish,2021.1.2,Win32,60.13229104,,,,,,,,,,,,,,w,1,2.0743,2.442952829,1,1,4,1,17,3,1,,,,,,,,,,,,,,
,,,,,,,,,,,left.png,,w,left,6167007b6e2a3e28b639498e,2021-10-27_12h11.36.883,arrow_simon_punish,2021.1.2,Win32,60.13229104,,,,,,,,,,,,,,w,1,1.5803,1.857986035,0,1,4,2,18,2,1,,,,,,,,,,,,,,
,,,,,,,,,,,left.png,,w,left,6167007b6e2a3e28b639498e,2021-10-27_12h11.36.883,arrow_simon_punish,2021.1.2,Win32,60.13229104,,,,,,,,,,,,,,w,1,1.1357,1.647772504,1,1,4,3,19,2,1,,,,,,,,,,,,,,
,,,,,,,,,,,left.png,,w,right,6167007b6e2a3e28b639498e,2021-10-27_12h11.36.883,arrow_simon_punish,2021.1.2,Win32,60.13229104,,,,,,,,,,,,,,w,1,2.4391,2.172316208,1,1,5,0,20,3,1,,,,,,,,,,,,,,
,,,,,,,,,,,left.png,,w,left,6167007b6e2a3e28b639498e,2021-10-27_12h11.36.883,arrow_simon_punish,2021.1.2,Win32,60.13229104,,,,,,,,,,,,,,w,1,1.9136,2.270686575,1,1,5,1,21,2,1,,,,,,,,,,,,,,
,,,,,,,,,,,right.png,,p,right,6167007b6e2a3e28b639498e,2021-10-27_12h11.36.883,arrow_simon_punish,2021.1.2,Win32,60.13229104,,,,,,,,,,,,,,p,1,1.8063,2.17403717,1,1,5,2,22,1,1,,,,,,,,,,,,,,
,,,,,,,,,,,right.png,,p,right,6167007b6e2a3e28b639498e,2021-10-27_12h11.36.883,arrow_simon_punish,2021.1.2,Win32,60.13229104,,,,,,,,,,,,,,p,1,1.3056,1.772114092,1,1,5,3,23,1,1,,,,,,,,,,,,,,
,,,,,,,,,,,right.png,,p,left,6167007b6e2a3e28b639498e,2021-10-27_12h11.36.883,arrow_simon_punish,2021.1.2,Win32,60.13229104,,,,,,,,,,,,,,p,1,1.7804,2.111544221,1,1,6,0,24,0,1,,,,,,,,,,,,,,
,,,,,,,,,,,left.png,,w,left,6167007b6e2a3e28b639498e,2021-10-27_12h11.36.883,arrow_simon_punish,2021.1.2,Win32,60.13229104,,,,,,,,,,,,,,w,1,1.5717,1.856415445,0,1,6,1,25,2,1,,,,,,,,,,,,,,
,,,,,,,,,,,left.png,,w,left,6167007b6e2a3e28b639498e,2021-10-27_12h11.36.883,arrow_simon_punish,2021.1.2,Win32,60.13229104,,,,,,,,,,,,,,w,1,1.0703,1.506738967,1,1,6,2,26,2,1,,,,,,,,,,,,,,
,,,,,,,,,,,right.png,,p,left,6167007b6e2a3e28b639498e,2021-10-27_12h11.36.883,arrow_simon_punish,2021.1.2,Win32,60.13229104,,,,,,,,,,,,,,p,1,1.5609,1.768555724,0,1,6,3,27,0,1,,,,,,,,,,,,,,
,,,,,,,,,,,left.png,,w,left,6167007b6e2a3e28b639498e,2021-10-27_12h11.36.883,arrow_simon_punish,2021.1.2,Win32,60.13229104,,,,,,,,,,,,,,w,1,1.8523,2.263178539,1,1,7,0,28,2,1,,,,,,,,,,,,,,
,,,,,,,,,,,right.png,,p,left,6167007b6e2a3e28b639498e,2021-10-27_12h11.36.883,arrow_simon_punish,2021.1.2,Win32,60.13229104,,,,,,,,,,,,,,p,1,1.6987,2.048173992,1,1,7,1,29,0,1,,,,,,,,,,,,,,
,,,,,,,,,,,right.png,,p,left,6167007b6e2a3e28b639498e,2021-10-27_12h11.36.883,arrow_simon_punish,2021.1.2,Win32,60.13229104,,,,,,,,,,,,,,p,1,2.0192,2.450645603,1,1,7,2,30,0,1,,,,,,,,,,,,,,
,,,,,,,,,,,right.png,,p,left,6167007b6e2a3e28b639498e,2021-10-27_12h11.36.883,arrow_simon_punish,2021.1.2,Win32,60.13229104,,,,,,,,,,,,,,p,1,1.6513,2.149099082,1,1,7,3,31,0,1,,,,,,,,,,,,,,
,,,,,,,,,,,left.png,,w,right,6167007b6e2a3e28b639498e,2021-10-27_12h11.36.883,arrow_simon_punish,2021.1.2,Win32,60.13229104,,,,,,,,,,,,,,w,1,2.0164,2.353082338,1,1,8,0,32,3,1,,,,,,,,,,,,,,
,,,,,,,,,,,left.png,,w,right,6167007b6e2a3e28b639498e,2021-10-27_12h11.36.883,arrow_simon_punish,2021.1.2,Win32,60.13229104,,,,,,,,,,,,,,w,1,1.6874,2.021240439,1,1,8,1,33,3,1,,,,,,,,,,,,,,
,,,,,,,,,,,right.png,,p,left,6167007b6e2a3e28b639498e,2021-10-27_12h11.36.883,arrow_simon_punish,2021.1.2,Win32,60.13229104,,,,,,,,,,,,,,p,1,1.8624,2.262311545,1,1,8,2,34,0,1,,,,,,,,,,,,,,
,,,,,,,,,,,right.png,,p,right,6167007b6e2a3e28b639498e,2021-10-27_12h11.36.883,arrow_simon_punish,2021.1.2,Win32,60.13229104,,,,,,,,,,,,,,p,1,1.2946,1.707635766,1,1,8,3,35,1,1,,,,,,,,,,,,,,
,,,,,,,,,,,left.png,,w,right,6167007b6e2a3e28b639498e,2021-10-27_12h11.36.883,arrow_simon_punish,2021.1.2,Win32,60.13229104,,,,,,,,,,,,,,w,1,1.5595,1.726110202,0,1,9,0,36,3,1,,,,,,,,,,,,,,
,,,,,,,,,,,right.png,,p,right,6167007b6e2a3e28b639498e,2021-10-27_12h11.36.883,arrow_simon_punish,2021.1.2,Win32,60.13229104,,,,,,,,,,,,,,p,1,2.0848,2.40822866,1,1,9,1,37,1,1,,,,,,,,,,,,,,
,,,,,,,,,,,right.png,,p,right,6167007b6e2a3e28b639498e,2021-10-27_12h11.36.883,arrow_simon_punish,2021.1.2,Win32,60.13229104,,,,,,,,,,,,,,p,1,1.2481,1.70929316,1,1,9,2,38,1,1,,,,,,,,,,,,,,
,,,,,,,,,,,right.png,,p,right,6167007b6e2a3e28b639498e,2021-10-27_12h11.36.883,arrow_simon_punish,2021.1.2,Win32,60.13229104,,,,,,,,,,,,,,p,1,1.8211,2.344975579,1,1,9,3,39,1,1,,,,,,,,,,,,,,
,,,,,,,,,,,left.png,,w,right,6167007b6e2a3e28b639498e,2021-10-27_12h11.36.883,arrow_simon_punish,2021.1.2,Win32,60.13229104,,,,,,,,,,,,,,w,1,1.3465,1.58346794,1,1,10,0,40,3,1,,,,,,,,,,,,,,
,,,,,,,,,,,left.png,,w,right,6167007b6e2a3e28b639498e,2021-10-27_12h11.36.883,arrow_simon_punish,2021.1.2,Win32,60.13229104,,,,,,,,,,,,,,w,1,1.4799,1.907044832,0,1,10,1,41,3,1,,,,,,,,,,,,,,
,,,,,,,,,,,right.png,,p,left,6167007b6e2a3e28b639498e,2021-10-27_12h11.36.883,arrow_simon_punish,2021.1.2,Win32,60.13229104,,,,,,,,,,,,,,p,1,1.3512,1.576517824,1,1,10,2,42,0,1,,,,,,,,,,,,,,
,,,,,,,,,,,right.png,,p,right,6167007b6e2a3e28b639498e,2021-10-27_12h11.36.883,arrow_simon_punish,2021.1.2,Win32,60.13229104,,,,,,,,,,,,,,p,1,1.1866,1.61475487,1,1,10,3,43,1,1,,,,,,,,,,,,,,
,,,,,,,,,,,left.png,,w,right,6167007b6e2a3e28b639498e,2021-10-27_12h11.36.883,arrow_simon_punish,2021.1.2,Win32,60.13229104,,,,,,,,,,,,,,w,1,1.9147,2.193958222,1,1,11,0,44,3,1,,,,,,,,,,,,,,
,,,,,,,,,,,left.png,,w,left,6167007b6e2a3e28b639498e,2021-10-27_12h11.36.883,arrow_simon_punish,2021.1.2,Win32,60.13229104,,,,,,,,,,,,,,w,1,1.8945,2.030912423,1,1,11,1,45,2,1,,,,,,,,,,,,,,
,,,,,,,,,,,left.png,,w,right,6167007b6e2a3e28b639498e,2021-10-27_12h11.36.883,arrow_simon_punish,2021.1.2,Win32,60.13229104,,,,,,,,,,,,,,w,1,1.6168,1.886096511,1,1,11,2,46,3,1,,,,,,,,,,,,,,
,,,,,,,,,,,right.png,,p,left,6167007b6e2a3e28b639498e,2021-10-27_12h11.36.883,arrow_simon_punish,2021.1.2,Win32,60.13229104,,,,,,,,,,,,,,p,1,1.7934,2.231361456,1,1,11,3,47,0,1,,,,,,,,,,,,,,
,,,,,,,,,,,left.png,,w,left,6167007b6e2a3e28b639498e,2021-10-27_12h11.36.883,arrow_simon_punish,2021.1.2,Win32,60.13229104,,,,,,,,,,,,,,w,1,1.9481,1.846047029,1,1,12,0,48,2,1,,,,,,,,,,,,,,
,,,,,,,,,,,left.png,,w,right,6167007b6e2a3e28b639498e,2021-10-27_12h11.36.883,arrow_simon_punish,2021.1.2,Win32,60.13229104,,,,,,,,,,,,,,w,1,1.4451,1.506353384,0,1,12,1,49,3,1,,,,,,,,,,,,,,
,,,,,,,,,,,right.png,,p,left,6167007b6e2a3e28b639498e,2021-10-27_12h11.36.883,arrow_simon_punish,2021.1.2,Win32,60.13229104,,,,,,,,,,,,,,p,1,1.8514,2.224207783,1,1,12,2,50,0,1,,,,,,,,,,,,,,
,,,,,,,,,,,right.png,,p,left,6167007b6e2a3e28b639498e,2021-10-27_12h11.36.883,arrow_simon_punish,2021.1.2,Win32,60.13229104,,,,,,,,,,,,,,p,1,2.791,2.330792678,1,1,12,3,51,0,1,,,,,,,,,,,,,,
,,,,,,,,,,,right.png,,p,left,6167007b6e2a3e28b639498e,2021-10-27_12h11.36.883,arrow_simon_punish,2021.1.2,Win32,60.13229104,,,,,,,,,,,,,,p,1,9.5014,1.767930883,1,1,13,0,52,0,1,,,,,,,,,,,,,,
,,,,,,,,,,,right.png,,p,left,6167007b6e2a3e28b639498e,2021-10-27_12h11.36.883,arrow_simon_punish,2021.1.2,Win32,60.13229104,,,,,,,,,,,,,,p,1,2.2442,1.823484315,1,1,13,1,53,0,1,,,,,,,,,,,,,,
,,,,,,,,,,,right.png,,p,right,6167007b6e2a3e28b639498e,2021-10-27_12h11.36.883,arrow_simon_punish,2021.1.2,Win32,60.13229104,,,,,,,,,,,,,,p,1,3.6223,2.439962897,1,1,13,2,54,1,1,,,,,,,,,,,,,,
,,,,,,,,,,,right.png,,p,right,6167007b6e2a3e28b639498e,2021-10-27_12h11.36.883,arrow_simon_punish,2021.1.2,Win32,60.13229104,,,,,,,,,,,,,,p,1,2.1006,1.97701114,1,1,13,3,55,1,1,,,,,,,,,,,,,,
,,,,,,,,,,,left.png,,w,left,6167007b6e2a3e28b639498e,2021-10-27_12h11.36.883,arrow_simon_punish,2021.1.2,Win32,60.13229104,,,,,,,,,,,,,,w,1,5.6279,2.159366964,1,1,14,0,56,2,1,,,,,,,,,,,,,,
,,,,,,,,,,,right.png,,p,right,6167007b6e2a3e28b639498e,2021-10-27_12h11.36.883,arrow_simon_punish,2021.1.2,Win32,60.13229104,,,,,,,,,,,,,,p,1,1.7262,1.58882891,1,1,14,1,57,1,1,,,,,,,,,,,,,,
,,,,,,,,,,,left.png,,w,right,6167007b6e2a3e28b639498e,2021-10-27_12h11.36.883,arrow_simon_punish,2021.1.2,Win32,60.13229104,,,,,,,,,,,,,,w,1,2.3415,2.271080967,1,1,14,2,58,3,1,,,,,,,,,,,,,,
,,,,,,,,,,,left.png,,w,right,6167007b6e2a3e28b639498e,2021-10-27_12h11.36.883,arrow_simon_punish,2021.1.2,Win32,60.13229104,,,,,,,,,,,,,,w,1,2.1521,2.103493619,1,1,14,3,59,3,1,,,,,,,,,,,,,,
,,,,,,,,,,,,,,,6167007b6e2a3e28b639498e,2021-10-27_12h11.36.883,arrow_simon_punish,2021.1.2,Win32,60.13229104,,,,,,,,,,,,,,,,,,,,,,,,,space,1.833,6,2,0,4,0,1,1,,,,,
,,,,,,,,,,,right.png,,p,right,6167007b6e2a3e28b639498e,2021-10-27_12h11.36.883,arrow_simon_punish,2021.1.2,Win32,60.13229104,,,,,,,,,,,,,,p,1,2.7506,2.482884467,1,5,0,0,0,1,1,,,,,,,,,,,,,,
,,,,,,,,,,,left.png,,w,right,6167007b6e2a3e28b639498e,2021-10-27_12h11.36.883,arrow_simon_punish,2021.1.2,Win32,60.13229104,,,,,,,,,,,,,,w,1,2.1067,1.974496672,1,5,0,1,1,3,1,,,,,,,,,,,,,,
,,,,,,,,,,,right.png,,p,right,6167007b6e2a3e28b639498e,2021-10-27_12h11.36.883,arrow_simon_punish,2021.1.2,Win32,60.13229104,,,,,,,,,,,,,,p,1,2.6603,2.354052704,1,5,0,2,2,1,1,,,,,,,,,,,,,,
,,,,,,,,,,,right.png,,p,right,6167007b6e2a3e28b639498e,2021-10-27_12h11.36.883,arrow_simon_punish,2021.1.2,Win32,60.13229104,,,,,,,,,,,,,,p,1,1.9876,2.461799784,1,5,0,3,3,1,1,,,,,,,,,,,,,,
,,,,,,,,,,,right.png,,p,right,6167007b6e2a3e28b639498e,2021-10-27_12h11.36.883,arrow_simon_punish,2021.1.2,Win32,60.13229104,,,,,,,,,,,,,,p,1,1.6636,2.142805082,1,5,1,0,4,1,1,,,,,,,,,,,,,,
,,,,,,,,,,,right.png,,p,left,6167007b6e2a3e28b639498e,2021-10-27_12h11.36.883,arrow_simon_punish,2021.1.2,Win32,60.13229104,,,,,,,,,,,,,,w,0,1.2362,1.794065975,1,5,1,1,5,0,1,,,,,,,,,,,,,,
,,,,,,,,,,,right.png,,p,left,6167007b6e2a3e28b639498e,2021-10-27_12h11.36.883,arrow_simon_punish,2021.1.2,Win32,60.13229104,,,,,,,,,,,,,,p,1,1.7052,1.748315174,1,5,1,2,6,0,1,,,,,,,,,,,,,,
,,,,,,,,,,,right.png,,p,right,6167007b6e2a3e28b639498e,2021-10-27_12h11.36.883,arrow_simon_punish,2021.1.2,Win32,60.13229104,,,,,,,,,,,,,,p,1,1.5188,1.993159028,0,5,1,3,7,1,1,,,,,,,,,,,,,,
,,,,,,,,,,,right.png,,p,left,6167007b6e2a3e28b639498e,2021-10-27_12h11.36.883,arrow_simon_punish,2021.1.2,Win32,60.13229104,,,,,,,,,,,,,,p,1,1.441,2.000637086,0,5,2,0,8,0,1,,,,,,,,,,,,,,
,,,,,,,,,,,right.png,,p,right,6167007b6e2a3e28b639498e,2021-10-27_12h11.36.883,arrow_simon_punish,2021.1.2,Win32,60.13229104,,,,,,,,,,,,,,p,1,1.5433,2.078448592,0,5,2,1,9,1,1,,,,,,,,,,,,,,
,,,,,,,,,,,left.png,,w,left,6167007b6e2a3e28b639498e,2021-10-27_12h11.36.883,arrow_simon_punish,2021.1.2,Win32,60.13229104,,,,,,,,,,,,,,w,1,1.2349,1.802356326,1,5,2,2,10,2,1,,,,,,,,,,,,,,
,,,,,,,,,,,right.png,,p,left,6167007b6e2a3e28b639498e,2021-10-27_12h11.36.883,arrow_simon_punish,2021.1.2,Win32,60.13229104,,,,,,,,,,,,,,p,1,1.3348,1.765688572,1,5,2,3,11,0,1,,,,,,,,,,,,,,
,,,,,,,,,,,right.png,,p,left,6167007b6e2a3e28b639498e,2021-10-27_12h11.36.883,arrow_simon_punish,2021.1.2,Win32,60.13229104,,,,,,,,,,,,,,p,1,1.7539,2.065965683,1,5,3,0,12,0,1,,,,,,,,,,,,,,
,,,,,,,,,,,left.png,,w,right,6167007b6e2a3e28b639498e,2021-10-27_12h11.36.883,arrow_simon_punish,2021.1.2,Win32,60.13229104,,,,,,,,,,,,,,p,0,1.4853,1.842165655,1,5,3,1,13,3,1,,,,,,,,,,,,,,
,,,,,,,,,,,right.png,,p,left,6167007b6e2a3e28b639498e,2021-10-27_12h11.36.883,arrow_simon_punish,2021.1.2,Win32,60.13229104,,,,,,,,,,,,,,p,1,1.8063,2.102354856,1,5,3,2,14,0,1,,,,,,,,,,,,,,
,,,,,,,,,,,left.png,,w,left,6167007b6e2a3e28b639498e,2021-10-27_12h11.36.883,arrow_simon_punish,2021.1.2,Win32,60.13229104,,,,,,,,,,,,,,w,1,1.1313,1.636215781,1,5,3,3,15,2,1,,,,,,,,,,,,,,
,,,,,,,,,,,left.png,,w,right,6167007b6e2a3e28b639498e,2021-10-27_12h11.36.883,arrow_simon_punish,2021.1.2,Win32,60.13229104,,,,,,,,,,,,,,w,1,1.3612,1.668330549,1,5,4,0,16,3,1,,,,,,,,,,,,,,
,,,,,,,,,,,right.png,,p,right,6167007b6e2a3e28b639498e,2021-10-27_12h11.36.883,arrow_simon_punish,2021.1.2,Win32,60.13229104,,,,,,,,,,,,,,p,1,1.2275,1.694778846,1,5,4,1,17,1,1,,,,,,,,,,,,,,
,,,,,,,,,,,right.png,,p,right,6167007b6e2a3e28b639498e,2021-10-27_12h11.36.883,arrow_simon_punish,2021.1.2,Win32,60.13229104,,,,,,,,,,,,,,p,1,1.4856,2.105644853,0,5,4,2,18,1,1,,,,,,,,,,,,,,
,,,,,,,,,,,right.png,,p,left,6167007b6e2a3e28b639498e,2021-10-27_12h11.36.883,arrow_simon_punish,2021.1.2,Win32,60.13229104,,,,,,,,,,,,,,p,1,1.8178,2.091754994,1,5,4,3,19,0,1,,,,,,,,,,,,,,
,,,,,,,,,,,left.png,,w,left,6167007b6e2a3e28b639498e,2021-10-27_12h11.36.883,arrow_simon_punish,2021.1.2,Win32,60.13229104,,,,,,,,,,,,,,w,1,1.7858,2.280524969,1,5,5,0,20,2,1,,,,,,,,,,,,,,
,,,,,,,,,,,left.png,,w,left,6167007b6e2a3e28b639498e,2021-10-27_12h11.36.883,arrow_simon_punish,2021.1.2,Win32,60.13229104,,,,,,,,,,,,,,w,1,1.5462,2.036406257,0,5,5,1,21,2,1,,,,,,,,,,,,,,
,,,,,,,,,,,left.png,,w,right,6167007b6e2a3e28b639498e,2021-10-27_12h11.36.883,arrow_simon_punish,2021.1.2,Win32,60.13229104,,,,,,,,,,,,,,p,0,1.1548,1.678984963,1,5,5,2,22,3,1,,,,,,,,,,,,,,
,,,,,,,,,,,right.png,,p,left,6167007b6e2a3e28b639498e,2021-10-27_12h11.36.883,arrow_simon_punish,2021.1.2,Win32,60.13229104,,,,,,,,,,,,,,p,1,1.1796,1.573437031,1,5,5,3,23,0,1,,,,,,,,,,,,,,
,,,,,,,,,,,right.png,,p,right,6167007b6e2a3e28b639498e,2021-10-27_12h11.36.883,arrow_simon_punish,2021.1.2,Win32,60.13229104,,,,,,,,,,,,,,p,1,1.3232,1.700426296,1,5,6,0,24,1,1,,,,,,,,,,,,,,
,,,,,,,,,,,right.png,,p,left,6167007b6e2a3e28b639498e,2021-10-27_12h11.36.883,arrow_simon_punish,2021.1.2,Win32,60.13229104,,,,,,,,,,,,,,p,1,1.5067,1.935923398,0,5,6,1,25,0,1,,,,,,,,,,,,,,
,,,,,,,,,,,left.png,,w,left,6167007b6e2a3e28b639498e,2021-10-27_12h11.36.883,arrow_simon_punish,2021.1.2,Win32,60.13229104,,,,,,,,,,,,,,w,1,1.1308,1.545496244,1,5,6,2,26,2,1,,,,,,,,,,,,,,
,,,,,,,,,,,left.png,,w,right,6167007b6e2a3e28b639498e,2021-10-27_12h11.36.883,arrow_simon_punish,2021.1.2,Win32,60.13229104,,,,,,,,,,,,,,w,1,1.7896,2.113211982,1,5,6,3,27,3,1,,,,,,,,,,,,,,
,,,,,,,,,,,right.png,,p,left,6167007b6e2a3e28b639498e,2021-10-27_12h11.36.883,arrow_simon_punish,2021.1.2,Win32,60.13229104,,,,,,,,,,,,,,p,1,1.2307,1.635020284,1,5,7,0,28,0,1,,,,,,,,,,,,,,
,,,,,,,,,,,left.png,,w,left,6167007b6e2a3e28b639498e,2021-10-27_12h11.36.883,arrow_simon_punish,2021.1.2,Win32,60.13229104,,,,,,,,,,,,,,w,1,1.5442,1.808618432,0,5,7,1,29,2,1,,,,,,,,,,,,,,
,,,,,,,,,,,right.png,,p,right,6167007b6e2a3e28b639498e,2021-10-27_12h11.36.883,arrow_simon_punish,2021.1.2,Win32,60.13229104,,,,,,,,,,,,,,p,1,2.1365,2.463977567,1,5,7,2,30,1,1,,,,,,,,,,,,,,
,,,,,,,,,,,left.png,,w,left,6167007b6e2a3e28b639498e,2021-10-27_12h11.36.883,arrow_simon_punish,2021.1.2,Win32,60.13229104,,,,,,,,,,,,,,w,1,1.486,2.002240418,0,5,7,3,31,2,1,,,,,,,,,,,,,,
,,,,,,,,,,,left.png,,w,left,6167007b6e2a3e28b639498e,2021-10-27_12h11.36.883,arrow_simon_punish,2021.1.2,Win32,60.13229104,,,,,,,,,,,,,,w,1,1.0921,1.506003742,1,5,8,0,32,2,1,,,,,,,,,,,,,,
,,,,,,,,,,,right.png,,p,left,6167007b6e2a3e28b639498e,2021-10-27_12h11.36.883,arrow_simon_punish,2021.1.2,Win32,60.13229104,,,,,,,,,,,,,,p,1,1.6271,2.080898355,1,5,8,1,33,0,1,,,,,,,,,,,,,,
,,,,,,,,,,,left.png,,w,right,6167007b6e2a3e28b639498e,2021-10-27_12h11.36.883,arrow_simon_punish,2021.1.2,Win32,60.13229104,,,,,,,,,,,,,,w,1,1.2928,1.59844912,1,5,8,2,34,3,1,,,,,,,,,,,,,,
,,,,,,,,,,,left.png,,w,right,6167007b6e2a3e28b639498e,2021-10-27_12h11.36.883,arrow_simon_punish,2021.1.2,Win32,60.13229104,,,,,,,,,,,,,,w,1,1.8598,2.30112948,1,5,8,3,35,3,1,,,,,,,,,,,,,,
,,,,,,,,,,,right.png,,p,right,6167007b6e2a3e28b639498e,2021-10-27_12h11.36.883,arrow_simon_punish,2021.1.2,Win32,60.13229104,,,,,,,,,,,,,,p,1,1.6694,2.073433727,1,5,9,0,36,1,1,,,,,,,,,,,,,,
,,,,,,,,,,,right.png,,p,right,6167007b6e2a3e28b639498e,2021-10-27_12h11.36.883,arrow_simon_punish,2021.1.2,Win32,60.13229104,,,,,,,,,,,,,,p,1,1.8634,2.042040712,1,5,9,1,37,1,1,,,,,,,,,,,,,,
,,,,,,,,,,,left.png,,w,left,6167007b6e2a3e28b639498e,2021-10-27_12h11.36.883,arrow_simon_punish,2021.1.2,Win32,60.13229104,,,,,,,,,,,,,,w,1,1.743,1.846432675,1,5,9,2,38,2,1,,,,,,,,,,,,,,
,,,,,,,,,,,left.png,,w,left,6167007b6e2a3e28b639498e,2021-10-27_12h11.36.883,arrow_simon_punish,2021.1.2,Win32,60.13229104,,,,,,,,,,,,,,w,1,1.7056,2.172578819,1,5,9,3,39,2,1,,,,,,,,,,,,,,
,,,,,,,,,,,left.png,,w,left,6167007b6e2a3e28b639498e,2021-10-27_12h11.36.883,arrow_simon_punish,2021.1.2,Win32,60.13229104,,,,,,,,,,,,,,w,1,1.0431,1.549783925,1,5,10,0,40,2,1,,,,,,,,,,,,,,
,,,,,,,,,,,left.png,,w,right,6167007b6e2a3e28b639498e,2021-10-27_12h11.36.883,arrow_simon_punish,2021.1.2,Win32,60.13229104,,,,,,,,,,,,,,w,1,1.9023,2.198446402,1,5,10,1,41,3,1,,,,,,,,,,,,,,
,,,,,,,,,,,left.png,,w,right,6167007b6e2a3e28b639498e,2021-10-27_12h11.36.883,arrow_simon_punish,2021.1.2,Win32,60.13229104,,,,,,,,,,,,,,w,1,1.3774,1.862611443,1,5,10,2,42,3,1,,,,,,,,,,,,,,
,,,,,,,,,,,right.png,,p,right,6167007b6e2a3e28b639498e,2021-10-27_12h11.36.883,arrow_simon_punish,2021.1.2,Win32,60.13229104,,,,,,,,,,,,,,p,1,1.7864,2.091569056,1,5,10,3,43,1,1,,,,,,,,,,,,,,
,,,,,,,,,,,left.png,,w,left,6167007b6e2a3e28b639498e,2021-10-27_12h11.36.883,arrow_simon_punish,2021.1.2,Win32,60.13229104,,,,,,,,,,,,,,w,1,1.4593,1.86691496,0,5,11,0,44,2,1,,,,,,,,,,,,,,
,,,,,,,,,,,right.png,,p,right,6167007b6e2a3e28b639498e,2021-10-27_12h11.36.883,arrow_simon_punish,2021.1.2,Win32,60.13229104,,,,,,,,,,,,,,p,1,1.934,2.430331168,1,5,11,1,45,1,1,,,,,,,,,,,,,,
,,,,,,,,,,,left.png,,w,left,6167007b6e2a3e28b639498e,2021-10-27_12h11.36.883,arrow_simon_punish,2021.1.2,Win32,60.13229104,,,,,,,,,,,,,,w,1,1.631,2.14787839,1,5,11,2,46,2,1,,,,,,,,,,,,,,
,,,,,,,,,,,right.png,,p,left,6167007b6e2a3e28b639498e,2021-10-27_12h11.36.883,arrow_simon_punish,2021.1.2,Win32,60.13229104,,,,,,,,,,,,,,p,1,1.5253,1.847507789,0,5,11,3,47,0,1,,,,,,,,,,,,,,
,,,,,,,,,,,left.png,,w,right,6167007b6e2a3e28b639498e,2021-10-27_12h11.36.883,arrow_simon_punish,2021.1.2,Win32,60.13229104,,,,,,,,,,,,,,p,0,1.7937,2.395789704,1,5,12,0,48,3,1,,,,,,,,,,,,,,
,,,,,,,,,,,left.png,,w,left,6167007b6e2a3e28b639498e,2021-10-27_12h11.36.883,arrow_simon_punish,2021.1.2,Win32,60.13229104,,,,,,,,,,,,,,w,1,1.7016,1.971570493,1,5,12,1,49,2,1,,,,,,,,,,,,,,
,,,,,,,,,,,left.png,,w,left,6167007b6e2a3e28b639498e,2021-10-27_12h11.36.883,arrow_simon_punish,2021.1.2,Win32,60.13229104,,,,,,,,,,,,,,w,1,1.1941,1.764434171,1,5,12,2,50,2,1,,,,,,,,,,,,,,
,,,,,,,,,,,right.png,,p,left,6167007b6e2a3e28b639498e,2021-10-27_12h11.36.883,arrow_simon_punish,2021.1.2,Win32,60.13229104,,,,,,,,,,,,,,p,1,1.8679,2.238306263,1,5,12,3,51,0,1,,,,,,,,,,,,,,
,,,,,,,,,,,right.png,,p,left,6167007b6e2a3e28b639498e,2021-10-27_12h11.36.883,arrow_simon_punish,2021.1.2,Win32,60.13229104,,,,,,,,,,,,,,p,1,2.5322,2.439768529,1,5,13,0,52,0,1,,,,,,,,,,,,,,
,,,,,,,,,,,left.png,,w,right,6167007b6e2a3e28b639498e,2021-10-27_12h11.36.883,arrow_simon_punish,2021.1.2,Win32,60.13229104,,,,,,,,,,,,,,w,1,1.9529,1.963155009,1,5,13,1,53,3,1,,,,,,,,,,,,,,
,,,,,,,,,,,left.png,,w,right,6167007b6e2a3e28b639498e,2021-10-27_12h11.36.883,arrow_simon_punish,2021.1.2,Win32,60.13229104,,,,,,,,,,,,,,w,1,2.4866,2.430699882,1,5,13,2,54,3,1,,,,,,,,,,,,,,
,,,,,,,,,,,right.png,,p,right,6167007b6e2a3e28b639498e,2021-10-27_12h11.36.883,arrow_simon_punish,2021.1.2,Win32,60.13229104,,,,,,,,,,,,,,p,1,1.6779,2.153017128,1,5,13,3,55,1,1,,,,,,,,,,,,,,
,,,,,,,,,,,left.png,,w,right,6167007b6e2a3e28b639498e,2021-10-27_12h11.36.883,arrow_simon_punish,2021.1.2,Win32,60.13229104,,,,,,,,,,,,,,w,1,1.2581,1.5323638,1,5,14,0,56,3,1,,,,,,,,,,,,,,
,,,,,,,,,,,left.png,,w,right,6167007b6e2a3e28b639498e,2021-10-27_12h11.36.883,arrow_simon_punish,2021.1.2,Win32,60.13229104,,,,,,,,,,,,,,w,1,1.9607,2.468084303,1,5,14,1,57,3,1,,,,,,,,,,,,,,
,,,,,,,,,,,right.png,,p,left,6167007b6e2a3e28b639498e,2021-10-27_12h11.36.883,arrow_simon_punish,2021.1.2,Win32,60.13229104,,,,,,,,,,,,,,p,1,1.7119,2.114605672,1,5,14,2,58,0,1,,,,,,,,,,,,,,
,,,,,,,,,,,left.png,,w,right,6167007b6e2a3e28b639498e,2021-10-27_12h11.36.883,arrow_simon_punish,2021.1.2,Win32,60.13229104,,,,,,,,,,,,,,w,1,1.3467,1.815840758,1,5,14,3,59,3,1,,,,,,,,,,,,,,
,,,,,,,,,,,,,,,6167007b6e2a3e28b639498e,2021-10-27_12h11.36.883,arrow_simon_punish,2021.1.2,Win32,60.13229104,,,,,,,,,,,,,,,,,,,,,,,,,space,3.8715,7,2,1,5,1,1,5,,,,,
,,,,,,,,,,,left.png,,w,left,6167007b6e2a3e28b639498e,2021-10-27_12h11.36.883,arrow_simon_punish,2021.1.2,Win32,60.13229104,,,,,,,,,,,,,,w,1,1.2136,1.780683491,1,1,0,0,0,2,1,,,,,,,,,,,,,,
,,,,,,,,,,,right.png,,p,left,6167007b6e2a3e28b639498e,2021-10-27_12h11.36.883,arrow_simon_punish,2021.1.2,Win32,60.13229104,,,,,,,,,,,,,,p,1,1.2103,1.706750136,1,1,0,1,1,0,1,,,,,,,,,,,,,,
,,,,,,,,,,,left.png,,w,left,6167007b6e2a3e28b639498e,2021-10-27_12h11.36.883,arrow_simon_punish,2021.1.2,Win32,60.13229104,,,,,,,,,,,,,,w,1,1.3158,1.846211625,1,1,0,2,2,2,1,,,,,,,,,,,,,,
,,,,,,,,,,,left.png,,w,left,6167007b6e2a3e28b639498e,2021-10-27_12h11.36.883,arrow_simon_punish,2021.1.2,Win32,60.13229104,,,,,,,,,,,,,,w,1,1.9583,2.475230152,1,1,0,3,3,2,1,,,,,,,,,,,,,,
,,,,,,,,,,,right.png,,p,right,6167007b6e2a3e28b639498e,2021-10-27_12h11.36.883,arrow_simon_punish,2021.1.2,Win32,60.13229104,,,,,,,,,,,,,,p,1,1.1363,1.732475507,1,1,1,0,4,1,1,,,,,,,,,,,,,,
,,,,,,,,,,,right.png,,p,left,6167007b6e2a3e28b639498e,2021-10-27_12h11.36.883,arrow_simon_punish,2021.1.2,Win32,60.13229104,,,,,,,,,,,,,,w,0,1.6215,2.257189569,1,1,1,1,5,0,1,,,,,,,,,,,,,,
,,,,,,,,,,,left.png,,w,right,6167007b6e2a3e28b639498e,2021-10-27_12h11.36.883,arrow_simon_punish,2021.1.2,Win32,60.13229104,,,,,,,,,,,,,,w,1,1.728,2.125632454,1,1,1,2,6,3,1,,,,,,,,,,,,,,
,,,,,,,,,,,left.png,,w,left,6167007b6e2a3e28b639498e,2021-10-27_12h11.36.883,arrow_simon_punish,2021.1.2,Win32,60.13229104,,,,,,,,,,,,,,w,1,1.156,1.616639179,1,1,1,3,7,2,1,,,,,,,,,,,,,,
,,,,,,,,,,,left.png,,w,left,6167007b6e2a3e28b639498e,2021-10-27_12h11.36.883,arrow_simon_punish,2021.1.2,Win32,60.13229104,,,,,,,,,,,,,,w,1,1.5645,2.142631393,0,1,2,0,8,2,1,,,,,,,,,,,,,,
,,,,,,,,,,,right.png,,p,right,6167007b6e2a3e28b639498e,2021-10-27_12h11.36.883,arrow_simon_punish,2021.1.2,Win32,60.13229104,,,,,,,,,,,,,,p,1,1.6975,2.251306857,1,1,2,1,9,1,1,,,,,,,,,,,,,,
,,,,,,,,,,,left.png,,w,right,6167007b6e2a3e28b639498e,2021-10-27_12h11.36.883,arrow_simon_punish,2021.1.2,Win32,60.13229104,,,,,,,,,,,,,,w,1,2.1468,2.47088729,1,1,2,2,10,3,1,,,,,,,,,,,,,,
,,,,,,,,,,,left.png,,w,left,6167007b6e2a3e28b639498e,2021-10-27_12h11.36.883,arrow_simon_punish,2021.1.2,Win32,60.13229104,,,,,,,,,,,,,,w,1,1.8248,1.887640701,1,1,2,3,11,2,1,,,,,,,,,,,,,,
,,,,,,,,,,,left.png,,w,right,6167007b6e2a3e28b639498e,2021-10-27_12h11.36.883,arrow_simon_punish,2021.1.2,Win32,60.13229104,,,,,,,,,,,,,,w,1,1.5536,1.866645465,0,1,3,0,12,3,1,,,,,,,,,,,,,,
,,,,,,,,,,,left.png,,w,right,6167007b6e2a3e28b639498e,2021-10-27_12h11.36.883,arrow_simon_punish,2021.1.2,Win32,60.13229104,,,,,,,,,,,,,,w,1,1.1575,1.528611205,1,1,3,1,13,3,1,,,,,,,,,,,,,,
,,,,,,,,,,,left.png,,w,left,6167007b6e2a3e28b639498e,2021-10-27_12h11.36.883,arrow_simon_punish,2021.1.2,Win32,60.13229104,,,,,,,,,,,,,,w,1,1.0529,1.532015145,1,1,3,2,14,2,1,,,,,,,,,,,,,,
,,,,,,,,,,,right.png,,p,left,6167007b6e2a3e28b639498e,2021-10-27_12h11.36.883,arrow_simon_punish,2021.1.2,Win32,60.13229104,,,,,,,,,,,,,,w,0,1.6463,2.15450211,1,1,3,3,15,0,1,,,,,,,,,,,,,,
,,,,,,,,,,,right.png,,p,right,6167007b6e2a3e28b639498e,2021-10-27_12h11.36.883,arrow_simon_punish,2021.1.2,Win32,60.13229104,,,,,,,,,,,,,,p,1,1.8737,2.446533936,1,1,4,0,16,1,1,,,,,,,,,,,,,,
,,,,,,,,,,,right.png,,p,left,6167007b6e2a3e28b639498e,2021-10-27_12h11.36.883,arrow_simon_punish,2021.1.2,Win32,60.13229104,,,,,,,,,,,,,,p,1,1.037,1.539629856,1,1,4,1,17,0,1,,,,,,,,,,,,,,
,,,,,,,,,,,right.png,,p,left,6167007b6e2a3e28b639498e,2021-10-27_12h11.36.883,arrow_simon_punish,2021.1.2,Win32,60.13229104,,,,,,,,,,,,,,p,1,1.5791,2.031375941,0,1,4,2,18,0,1,,,,,,,,,,,,,,
,,,,,,,,,,,right.png,,p,right,6167007b6e2a3e28b639498e,2021-10-27_12h11.36.883,arrow_simon_punish,2021.1.2,Win32,60.13229104,,,,,,,,,,,,,,p,1,1.2553,1.795228965,1,1,4,3,19,1,1,,,,,,,,,,,,,,
,,,,,,,,,,,left.png,,w,right,6167007b6e2a3e28b639498e,2021-10-27_12h11.36.883,arrow_simon_punish,2021.1.2,Win32,60.13229104,,,,,,,,,,,,,,w,1,1.3848,1.594204858,1,1,5,0,20,3,1,,,,,,,,,,,,,,
,,,,,,,,,,,right.png,,p,left,6167007b6e2a3e28b639498e,2021-10-27_12h11.36.883,arrow_simon_punish,2021.1.2,Win32,60.13229104,,,,,,,,,,,,,,p,1,1.155,1.518586385,1,1,5,1,21,0,1,,,,,,,,,,,,,,
,,,,,,,,,,,right.png,,p,right,6167007b6e2a3e28b639498e,2021-10-27_12h11.36.883,arrow_simon_punish,2021.1.2,Win32,60.13229104,,,,,,,,,,,,,,p,1,1.2842,1.860732096,1,1,5,2,22,1,1,,,,,,,,,,,,,,
,,,,,,,,,,,right.png,,p,right,6167007b6e2a3e28b639498e,2021-10-27_12h11.36.883,arrow_simon_punish,2021.1.2,Win32,60.13229104,,,,,,,,,,,,,,p,1,1.7567,2.358730621,1,1,5,3,23,1,1,,,,,,,,,,,,,,
,,,,,,,,,,,right.png,,p,right,6167007b6e2a3e28b639498e,2021-10-27_12h11.36.883,arrow_simon_punish,2021.1.2,Win32,60.13229104,,,,,,,,,,,,,,p,1,1.822,2.295092798,1,1,6,0,24,1,1,,,,,,,,,,,,,,
,,,,,,,,,,,right.png,,p,left,6167007b6e2a3e28b639498e,2021-10-27_12h11.36.883,arrow_simon_punish,2021.1.2,Win32,60.13229104,,,,,,,,,,,,,,w,0,2.1147,2.276074857,1,1,6,1,25,0,1,,,,,,,,,,,,,,
,,,,,,,,,,,left.png,,w,left,6167007b6e2a3e28b639498e,2021-10-27_12h11.36.883,arrow_simon_punish,2021.1.2,Win32,60.13229104,,,,,,,,,,,,,,w,1,2.0655,2.460376538,1,1,6,2,26,2,1,,,,,,,,,,,,,,
,,,,,,,,,,,right.png,,p,left,6167007b6e2a3e28b639498e,2021-10-27_12h11.36.883,arrow_simon_punish,2021.1.2,Win32,60.13229104,,,,,,,,,,,,,,p,1,1.9803,2.354000444,1,1,6,3,27,0,1,,,,,,,,,,,,,,
,,,,,,,,,,,right.png,,p,left,6167007b6e2a3e28b639498e,2021-10-27_12h11.36.883,arrow_simon_punish,2021.1.2,Win32,60.13229104,,,,,,,,,,,,,,p,1,1.3957,1.951597174,1,1,7,0,28,0,1,,,,,,,,,,,,,,
,,,,,,,,,,,right.png,,p,right,6167007b6e2a3e28b639498e,2021-10-27_12h11.36.883,arrow_simon_punish,2021.1.2,Win32,60.13229104,,,,,,,,,,,,,,p,1,1.235,1.848277928,1,1,7,1,29,1,1,,,,,,,,,,,,,,
,,,,,,,,,,,right.png,,p,left,6167007b6e2a3e28b639498e,2021-10-27_12h11.36.883,arrow_simon_punish,2021.1.2,Win32,60.13229104,,,,,,,,,,,,,,p,1,1.3202,1.952529477,1,1,7,2,30,0,1,,,,,,,,,,,,,,
,,,,,,,,,,,right.png,,p,left,6167007b6e2a3e28b639498e,2021-10-27_12h11.36.883,arrow_simon_punish,2021.1.2,Win32,60.13229104,,,,,,,,,,,,,,p,1,1.8579,2.493260958,1,1,7,3,31,0,1,,,,,,,,,,,,,,
,,,,,,,,,,,right.png,,p,left,6167007b6e2a3e28b639498e,2021-10-27_12h11.36.883,arrow_simon_punish,2021.1.2,Win32,60.13229104,,,,,,,,,,,,,,p,1,1.0551,1.513153802,1,1,8,0,32,0,1,,,,,,,,,,,,,,
,,,,,,,,,,,right.png,,p,right,6167007b6e2a3e28b639498e,2021-10-27_12h11.36.883,arrow_simon_punish,2021.1.2,Win32,60.13229104,,,,,,,,,,,,,,p,1,1.0933,1.626162533,1,1,8,1,33,1,1,,,,,,,,,,,,,,
,,,,,,,,,,,left.png,,w,left,6167007b6e2a3e28b639498e,2021-10-27_12h11.36.883,arrow_simon_punish,2021.1.2,Win32,60.13229104,,,,,,,,,,,,,,w,1,1.9779,2.469217742,1,1,8,2,34,2,1,,,,,,,,,,,,,,
,,,,,,,,,,,left.png,,w,left,6167007b6e2a3e28b639498e,2021-10-27_12h11.36.883,arrow_simon_punish,2021.1.2,Win32,60.13229104,,,,,,,,,,,,,,w,1,1.2359,1.8378301,1,1,8,3,35,2,1,,,,,,,,,,,,,,
,,,,,,,,,,,left.png,,w,left,6167007b6e2a3e28b639498e,2021-10-27_12h11.36.883,arrow_simon_punish,2021.1.2,Win32,60.13229104,,,,,,,,,,,,,,w,1,1.2733,1.874816803,1,1,9,0,36,2,1,,,,,,,,,,,,,,
,,,,,,,,,,,left.png,,w,right,6167007b6e2a3e28b639498e,2021-10-27_12h11.36.883,arrow_simon_punish,2021.1.2,Win32,60.13229104,,,,,,,,,,,,,,w,1,1.4351,1.888810235,0,1,9,1,37,3,1,,,,,,,,,,,,,,
,,,,,,,,,,,left.png,,w,left,6167007b6e2a3e28b639498e,2021-10-27_12h11.36.883,arrow_simon_punish,2021.1.2,Win32,60.13229104,,,,,,,,,,,,,,w,1,1.459,1.673910566,0,1,9,2,38,2,1,,,,,,,,,,,,,,
,,,,,,,,,,,right.png,,p,right,6167007b6e2a3e28b639498e,2021-10-27_12h11.36.883,arrow_simon_punish,2021.1.2,Win32,60.13229104,,,,,,,,,,,,,,p,1,1.729,2.262987411,1,1,9,3,39,1,1,,,,,,,,,,,,,,
,,,,,,,,,,,right.png,,p,left,6167007b6e2a3e28b639498e,2021-10-27_12h11.36.883,arrow_simon_punish,2021.1.2,Win32,60.13229104,,,,,,,,,,,,,,w,0,1.3691,1.932587194,1,1,10,0,40,0,1,,,,,,,,,,,,,,
,,,,,,,,,,,left.png,,w,right,6167007b6e2a3e28b639498e,2021-10-27_12h11.36.883,arrow_simon_punish,2021.1.2,Win32,60.13229104,,,,,,,,,,,,,,p,0,0.0621,1.580337176,1,1,10,1,41,3,1,,,,,,,,,,,,,,
,,,,,,,,,,,left.png,,w,left,6167007b6e2a3e28b639498e,2021-10-27_12h11.36.883,arrow_simon_punish,2021.1.2,Win32,60.13229104,,,,,,,,,,,,,,p,0,0.0227,1.647160051,1,1,10,2,42,2,1,,,,,,,,,,,,,,
,,,,,,,,,,,right.png,,p,right,6167007b6e2a3e28b639498e,2021-10-27_12h11.36.883,arrow_simon_punish,2021.1.2,Win32,60.13229104,,,,,,,,,,,,,,p,1,0.0619,1.99415278,1,1,10,3,43,1,1,,,,,,,,,,,,,,
,,,,,,,,,,,left.png,,w,left,6167007b6e2a3e28b639498e,2021-10-27_12h11.36.883,arrow_simon_punish,2021.1.2,Win32,60.13229104,,,,,,,,,,,,,,p,0,0.0481,1.773485614,1,1,11,0,44,2,1,,,,,,,,,,,,,,
,,,,,,,,,,,left.png,,w,right,6167007b6e2a3e28b639498e,2021-10-27_12h11.36.883,arrow_simon_punish,2021.1.2,Win32,60.13229104,,,,,,,,,,,,,,p,0,0.0299,2.03241774,1,1,11,1,45,3,1,,,,,,,,,,,,,,
,,,,,,,,,,,right.png,,p,left,6167007b6e2a3e28b639498e,2021-10-27_12h11.36.883,arrow_simon_punish,2021.1.2,Win32,60.13229104,,,,,,,,,,,,,,p,1,0.0029,1.600365109,1,1,11,2,46,0,1,,,,,,,,,,,,,,
,,,,,,,,,,,right.png,,p,right,6167007b6e2a3e28b639498e,2021-10-27_12h11.36.883,arrow_simon_punish,2021.1.2,Win32,60.13229104,,,,,,,,,,,,,,p,1,1.5847,1.982782569,0,1,11,3,47,1,1,,,,,,,,,,,,,,
,,,,,,,,,,,left.png,,w,right,6167007b6e2a3e28b639498e,2021-10-27_12h11.36.883,arrow_simon_punish,2021.1.2,Win32,60.13229104,,,,,,,,,,,,,,w,1,3.0207,1.965972179,1,1,12,0,48,3,1,,,,,,,,,,,,,,
,,,,,,,,,,,right.png,,p,right,6167007b6e2a3e28b639498e,2021-10-27_12h11.36.883,arrow_simon_punish,2021.1.2,Win32,60.13229104,,,,,,,,,,,,,,p,1,1.4347,1.925388202,0,1,12,1,49,1,1,,,,,,,,,,,,,,
,,,,,,,,,,,left.png,,w,right,6167007b6e2a3e28b639498e,2021-10-27_12h11.36.883,arrow_simon_punish,2021.1.2,Win32,60.13229104,,,,,,,,,,,,,,w,1,0.2145,2.162622046,1,1,12,2,50,3,1,,,,,,,,,,,,,,
,,,,,,,,,,,left.png,,w,right,6167007b6e2a3e28b639498e,2021-10-27_12h11.36.883,arrow_simon_punish,2021.1.2,Win32,60.13229104,,,,,,,,,,,,,,w,1,0.0541,2.152067547,1,1,12,3,51,3,1,,,,,,,,,,,,,,
,,,,,,,,,,,left.png,,w,right,6167007b6e2a3e28b639498e,2021-10-27_12h11.36.883,arrow_simon_punish,2021.1.2,Win32,60.13229104,,,,,,,,,,,,,,p,0,0.1461,2.45316669,1,1,13,0,52,3,1,,,,,,,,,,,,,,
,,,,,,,,,,,right.png,,p,right,6167007b6e2a3e28b639498e,2021-10-27_12h11.36.883,arrow_simon_punish,2021.1.2,Win32,60.13229104,,,,,,,,,,,,,,p,1,0.0667,2.420000455,1,1,13,1,53,1,1,,,,,,,,,,,,,,
,,,,,,,,,,,right.png,,p,right,6167007b6e2a3e28b639498e,2021-10-27_12h11.36.883,arrow_simon_punish,2021.1.2,Win32,60.13229104,,,,,,,,,,,,,,p,1,1.3302,1.981269714,1,1,13,2,54,1,1,,,,,,,,,,,,,,
,,,,,,,,,,,left.png,,w,right,6167007b6e2a3e28b639498e,2021-10-27_12h11.36.883,arrow_simon_punish,2021.1.2,Win32,60.13229104,,,,,,,,,,,,,,p,0,0.8065,2.299012033,1,1,13,3,55,3,1,,,,,,,,,,,,,,
,,,,,,,,,,,right.png,,p,left,6167007b6e2a3e28b639498e,2021-10-27_12h11.36.883,arrow_simon_punish,2021.1.2,Win32,60.13229104,,,,,,,,,,,,,,p,1,0.9007,2.495320284,1,1,14,0,56,0,1,,,,,,,,,,,,,,
,,,,,,,,,,,left.png,,w,right,6167007b6e2a3e28b639498e,2021-10-27_12h11.36.883,arrow_simon_punish,2021.1.2,Win32,60.13229104,,,,,,,,,,,,,,p,0,0.9408,1.944394885,1,1,14,1,57,3,1,,,,,,,,,,,,,,
,,,,,,,,,,,left.png,,w,left,6167007b6e2a3e28b639498e,2021-10-27_12h11.36.883,arrow_simon_punish,2021.1.2,Win32,60.13229104,,,,,,,,,,,,,,p,0,0.9406,1.509109663,1,1,14,2,58,2,1,,,,,,,,,,,,,,
,,,,,,,,,,,left.png,,w,right,6167007b6e2a3e28b639498e,2021-10-27_12h11.36.883,arrow_simon_punish,2021.1.2,Win32,60.13229104,,,,,,,,,,,,,,p,0,0.6275,1.95309125,1,1,14,3,59,3,1,,,,,,,,,,,,,,
,,,,,,,,,,,,,,,6167007b6e2a3e28b639498e,2021-10-27_12h11.36.883,arrow_simon_punish,2021.1.2,Win32,60.13229104,,,,,,,,,,,,,,,,,,,,,,,,,space,9.9432,8,3,0,6,0,1,1,,,,,
,,,,,,,,,,,left.png,,w,left,6167007b6e2a3e28b639498e,2021-10-27_12h11.36.883,arrow_simon_punish,2021.1.2,Win32,60.13229104,,,,,,,,,,,,,,p,0,1.3954,2.347937816,1,5,0,0,0,2,1,,,,,,,,,,,,,,
,,,,,,,,,,,right.png,,p,right,6167007b6e2a3e28b639498e,2021-10-27_12h11.36.883,arrow_simon_punish,2021.1.2,Win32,60.13229104,,,,,,,,,,,,,,p,1,0.785,2.028051919,1,5,0,1,1,1,1,,,,,,,,,,,,,,
,,,,,,,,,,,right.png,,p,left,6167007b6e2a3e28b639498e,2021-10-27_12h11.36.883,arrow_simon_punish,2021.1.2,Win32,60.13229104,,,,,,,,,,,,,,p,1,0.8691,1.651574515,1,5,0,2,2,0,1,,,,,,,,,,,,,,
,,,,,,,,,,,right.png,,p,left,6167007b6e2a3e28b639498e,2021-10-27_12h11.36.883,arrow_simon_punish,2021.1.2,Win32,60.13229104,,,,,,,,,,,,,,p,1,1.1005,1.839308718,1,5,0,3,3,0,1,,,,,,,,,,,,,,
,,,,,,,,,,,left.png,,w,right,6167007b6e2a3e28b639498e,2021-10-27_12h11.36.883,arrow_simon_punish,2021.1.2,Win32,60.13229104,,,,,,,,,,,,,,p,0,1.012,1.858496582,1,5,1,0,4,3,1,,,,,,,,,,,,,,
,,,,,,,,,,,left.png,,w,left,6167007b6e2a3e28b639498e,2021-10-27_12h11.36.883,arrow_simon_punish,2021.1.2,Win32,60.13229104,,,,,,,,,,,,,,p,0,0.8247,1.599180001,1,5,1,1,5,2,1,,,,,,,,,,,,,,
,,,,,,,,,,,left.png,,w,left,6167007b6e2a3e28b639498e,2021-10-27_12h11.36.883,arrow_simon_punish,2021.1.2,Win32,60.13229104,,,,,,,,,,,,,,p,0,0.6422,1.936712079,1,5,1,2,6,2,1,,,,,,,,,,,,,,
,,,,,,,,,,,left.png,,w,right,6167007b6e2a3e28b639498e,2021-10-27_12h11.36.883,arrow_simon_punish,2021.1.2,Win32,60.13229104,,,,,,,,,,,,,,p,0,0.7722,2.360638119,1,5,1,3,7,3,1,,,,,,,,,,,,,,
