instruct_resp_simon.keys,instruct_resp_simon.corr,instruct_resp_simon.rt,trial_resp_simon.keys,trial_resp_simon.corr,trial_resp_simon.rt,trials_train_simon.thisRepN,trials_train_simon.thisTrialN,trials_train_simon.thisN,trials_train_simon.thisIndex,trials_train_simon.ran,target_file,target_pos,target_resp,target_side,participant,date,expName,psychopyVersion,OS,frameRate,instruct_resp_timing.keys,instruct_resp_timing.corr,instruct_resp_timing.rt,trial_resp_timing.keys,trial_resp_timing.rt,trials_train_timing.thisRepN,trials_train_timing.thisTrialN,trials_train_timing.thisN,trials_train_timing.thisIndex,trials_train_timing.ran,instruct_resp.keys,instruct_resp.corr,instruct_resp.rt,trial_resp.keys,trial_resp.corr,trial_resp.rt,target_onset,err,pun,trials.thisRepN,trials.thisTrialN,trials.thisN,trials.thisIndex,trials.ran,block_note_resp.keys,block_note_resp.rt,block_num,blocks.thisRepN,blocks.thisTrialN,blocks.thisN,blocks.thisIndex,blocks.ran,punish,complete_resp.keys,complete_resp.rt,raffle_trial,raffle_err,raffle_rew
space,0,31.1561,p,1,1.3644,0,0,0,1,1,right.png,,p,right,6168a697ae9f4d8dcfada29b,2021-10-27_11h08.55.327,arrow_simon_punish,2021.1.2,MacIntel,30.00120005,,,,,,,,,,,,,,,,,,,,,,,,,,,,,,,,,,,,,,
,,,w,1,1.1767,0,1,1,2,1,left.png,,w,left,6168a697ae9f4d8dcfada29b,2021-10-27_11h08.55.327,arrow_simon_punish,2021.1.2,MacIntel,30.00120005,,,,,,,,,,,,,,,,,,,,,,,,,,,,,,,,,,,,,,
,,,p,0,1.0776,0,2,2,3,1,left.png,,w,right,6168a697ae9f4d8dcfada29b,2021-10-27_11h08.55.327,arrow_simon_punish,2021.1.2,MacIntel,30.00120005,,,,,,,,,,,,,,,,,,,,,,,,,,,,,,,,,,,,,,
,,,p,1,1.286,0,3,3,0,1,right.png,,p,left,6168a697ae9f4d8dcfada29b,2021-10-27_11h08.55.327,arrow_simon_punish,2021.1.2,MacIntel,30.00120005,,,,,,,,,,,,,,,,,,,,,,,,,,,,,,,,,,,,,,
,,,p,1,1.5479,1,0,4,0,1,right.png,,p,left,6168a697ae9f4d8dcfada29b,2021-10-27_11h08.55.327,arrow_simon_punish,2021.1.2,MacIntel,30.00120005,,,,,,,,,,,,,,,,,,,,,,,,,,,,,,,,,,,,,,
,,,p,1,1.3141,1,1,5,1,1,right.png,,p,right,6168a697ae9f4d8dcfada29b,2021-10-27_11h08.55.327,arrow_simon_punish,2021.1.2,MacIntel,30.00120005,,,,,,,,,,,,,,,,,,,,,,,,,,,,,,,,,,,,,,
,,,w,1,1.2746,1,2,6,2,1,left.png,,w,left,6168a697ae9f4d8dcfada29b,2021-10-27_11h08.55.327,arrow_simon_punish,2021.1.2,MacIntel,30.00120005,,,,,,,,,,,,,,,,,,,,,,,,,,,,,,,,,,,,,,
,,,w,1,1.0182,1,3,7,3,1,left.png,,w,right,6168a697ae9f4d8dcfada29b,2021-10-27_11h08.55.327,arrow_simon_punish,2021.1.2,MacIntel,30.00120005,,,,,,,,,,,,,,,,,,,,,,,,,,,,,,,,,,,,,,
,,,p,1,0.8712,2,0,8,0,1,right.png,,p,left,6168a697ae9f4d8dcfada29b,2021-10-27_11h08.55.327,arrow_simon_punish,2021.1.2,MacIntel,30.00120005,,,,,,,,,,,,,,,,,,,,,,,,,,,,,,,,,,,,,,
,,,p,1,1.0015,2,1,9,1,1,right.png,,p,right,6168a697ae9f4d8dcfada29b,2021-10-27_11h08.55.327,arrow_simon_punish,2021.1.2,MacIntel,30.00120005,,,,,,,,,,,,,,,,,,,,,,,,,,,,,,,,,,,,,,
,,,w,1,0.8863,2,2,10,2,1,left.png,,w,left,6168a697ae9f4d8dcfada29b,2021-10-27_11h08.55.327,arrow_simon_punish,2021.1.2,MacIntel,30.00120005,,,,,,,,,,,,,,,,,,,,,,,,,,,,,,,,,,,,,,
,,,w,1,1.34,2,3,11,3,1,left.png,,w,right,6168a697ae9f4d8dcfada29b,2021-10-27_11h08.55.327,arrow_simon_punish,2021.1.2,MacIntel,30.00120005,,,,,,,,,,,,,,,,,,,,,,,,,,,,,,,,,,,,,,
,,,w,1,1.1216,3,0,12,2,1,left.png,,w,left,6168a697ae9f4d8dcfada29b,2021-10-27_11h08.55.327,arrow_simon_punish,2021.1.2,MacIntel,30.00120005,,,,,,,,,,,,,,,,,,,,,,,,,,,,,,,,,,,,,,
,,,w,1,1.0751,3,1,13,3,1,left.png,,w,right,6168a697ae9f4d8dcfada29b,2021-10-27_11h08.55.327,arrow_simon_punish,2021.1.2,MacIntel,30.00120005,,,,,,,,,,,,,,,,,,,,,,,,,,,,,,,,,,,,,,
,,,p,1,0.7228,3,2,14,1,1,right.png,,p,right,6168a697ae9f4d8dcfada29b,2021-10-27_11h08.55.327,arrow_simon_punish,2021.1.2,MacIntel,30.00120005,,,,,,,,,,,,,,,,,,,,,,,,,,,,,,,,,,,,,,
,,,p,1,1.5428,3,3,15,0,1,right.png,,p,left,6168a697ae9f4d8dcfada29b,2021-10-27_11h08.55.327,arrow_simon_punish,2021.1.2,MacIntel,30.00120005,,,,,,,,,,,,,,,,,,,,,,,,,,,,,,,,,,,,,,
,,,w,1,0.8075,4,0,16,2,1,left.png,,w,left,6168a697ae9f4d8dcfada29b,2021-10-27_11h08.55.327,arrow_simon_punish,2021.1.2,MacIntel,30.00120005,,,,,,,,,,,,,,,,,,,,,,,,,,,,,,,,,,,,,,
,,,p,0,1.3721,4,1,17,3,1,left.png,,w,right,6168a697ae9f4d8dcfada29b,2021-10-27_11h08.55.327,arrow_simon_punish,2021.1.2,MacIntel,30.00120005,,,,,,,,,,,,,,,,,,,,,,,,,,,,,,,,,,,,,,
,,,p,1,0.999,4,2,18,0,1,right.png,,p,left,6168a697ae9f4d8dcfada29b,2021-10-27_11h08.55.327,arrow_simon_punish,2021.1.2,MacIntel,30.00120005,,,,,,,,,,,,,,,,,,,,,,,,,,,,,,,,,,,,,,
,,,p,1,1.1462,4,3,19,1,1,right.png,,p,right,6168a697ae9f4d8dcfada29b,2021-10-27_11h08.55.327,arrow_simon_punish,2021.1.2,MacIntel,30.00120005,,,,,,,,,,,,,,,,,,,,,,,,,,,,,,,,,,,,,,
,,,w,1,0.8036,5,0,20,2,1,left.png,,w,left,6168a697ae9f4d8dcfada29b,2021-10-27_11h08.55.327,arrow_simon_punish,2021.1.2,MacIntel,30.00120005,,,,,,,,,,,,,,,,,,,,,,,,,,,,,,,,,,,,,,
,,,w,1,1.4106,5,1,21,3,1,left.png,,w,right,6168a697ae9f4d8dcfada29b,2021-10-27_11h08.55.327,arrow_simon_punish,2021.1.2,MacIntel,30.00120005,,,,,,,,,,,,,,,,,,,,,,,,,,,,,,,,,,,,,,
,,,p,1,1.3956,5,2,22,1,1,right.png,,p,right,6168a697ae9f4d8dcfada29b,2021-10-27_11h08.55.327,arrow_simon_punish,2021.1.2,MacIntel,30.00120005,,,,,,,,,,,,,,,,,,,,,,,,,,,,,,,,,,,,,,
,,,p,1,1.3358,5,3,23,0,1,right.png,,p,left,6168a697ae9f4d8dcfada29b,2021-10-27_11h08.55.327,arrow_simon_punish,2021.1.2,MacIntel,30.00120005,,,,,,,,,,,,,,,,,,,,,,,,,,,,,,,,,,,,,,
,,,w,1,1.0239,6,0,24,3,1,left.png,,w,right,6168a697ae9f4d8dcfada29b,2021-10-27_11h08.55.327,arrow_simon_punish,2021.1.2,MacIntel,30.00120005,,,,,,,,,,,,,,,,,,,,,,,,,,,,,,,,,,,,,,
,,,p,1,1.7885,6,1,25,0,1,right.png,,p,left,6168a697ae9f4d8dcfada29b,2021-10-27_11h08.55.327,arrow_simon_punish,2021.1.2,MacIntel,30.00120005,,,,,,,,,,,,,,,,,,,,,,,,,,,,,,,,,,,,,,
,,,p,1,1.3558,6,2,26,1,1,right.png,,p,right,6168a697ae9f4d8dcfada29b,2021-10-27_11h08.55.327,arrow_simon_punish,2021.1.2,MacIntel,30.00120005,,,,,,,,,,,,,,,,,,,,,,,,,,,,,,,,,,,,,,
,,,w,1,0.7418,6,3,27,2,1,left.png,,w,left,6168a697ae9f4d8dcfada29b,2021-10-27_11h08.55.327,arrow_simon_punish,2021.1.2,MacIntel,30.00120005,,,,,,,,,,,,,,,,,,,,,,,,,,,,,,,,,,,,,,
,,,p,1,0.9707,7,0,28,1,1,right.png,,p,right,6168a697ae9f4d8dcfada29b,2021-10-27_11h08.55.327,arrow_simon_punish,2021.1.2,MacIntel,30.00120005,,,,,,,,,,,,,,,,,,,,,,,,,,,,,,,,,,,,,,
,,,w,1,0.9341,7,1,29,2,1,left.png,,w,left,6168a697ae9f4d8dcfada29b,2021-10-27_11h08.55.327,arrow_simon_punish,2021.1.2,MacIntel,30.00120005,,,,,,,,,,,,,,,,,,,,,,,,,,,,,,,,,,,,,,
,,,w,1,1.0615,7,2,30,3,1,left.png,,w,right,6168a697ae9f4d8dcfada29b,2021-10-27_11h08.55.327,arrow_simon_punish,2021.1.2,MacIntel,30.00120005,,,,,,,,,,,,,,,,,,,,,,,,,,,,,,,,,,,,,,
,,,p,1,1.6249,7,3,31,0,1,right.png,,p,left,6168a697ae9f4d8dcfada29b,2021-10-27_11h08.55.327,arrow_simon_punish,2021.1.2,MacIntel,30.00120005,,,,,,,,,,,,,,,,,,,,,,,,,,,,,,,,,,,,,,
,,,w,1,1.0907,8,0,32,2,1,left.png,,w,left,6168a697ae9f4d8dcfada29b,2021-10-27_11h08.55.327,arrow_simon_punish,2021.1.2,MacIntel,30.00120005,,,,,,,,,,,,,,,,,,,,,,,,,,,,,,,,,,,,,,
,,,p,1,1.1507,8,1,33,1,1,right.png,,p,right,6168a697ae9f4d8dcfada29b,2021-10-27_11h08.55.327,arrow_simon_punish,2021.1.2,MacIntel,30.00120005,,,,,,,,,,,,,,,,,,,,,,,,,,,,,,,,,,,,,,
,,,w,1,1.1597,8,2,34,3,1,left.png,,w,right,6168a697ae9f4d8dcfada29b,2021-10-27_11h08.55.327,arrow_simon_punish,2021.1.2,MacIntel,30.00120005,,,,,,,,,,,,,,,,,,,,,,,,,,,,,,,,,,,,,,
,,,p,1,1.2534,8,3,35,0,1,right.png,,p,left,6168a697ae9f4d8dcfada29b,2021-10-27_11h08.55.327,arrow_simon_punish,2021.1.2,MacIntel,30.00120005,,,,,,,,,,,,,,,,,,,,,,,,,,,,,,,,,,,,,,
,,,p,1,0.9033,9,0,36,0,1,right.png,,p,left,6168a697ae9f4d8dcfada29b,2021-10-27_11h08.55.327,arrow_simon_punish,2021.1.2,MacIntel,30.00120005,,,,,,,,,,,,,,,,,,,,,,,,,,,,,,,,,,,,,,
,,,w,1,1.2422,9,1,37,2,1,left.png,,w,left,6168a697ae9f4d8dcfada29b,2021-10-27_11h08.55.327,arrow_simon_punish,2021.1.2,MacIntel,30.00120005,,,,,,,,,,,,,,,,,,,,,,,,,,,,,,,,,,,,,,
,,,p,1,0.9775,9,2,38,1,1,right.png,,p,right,6168a697ae9f4d8dcfada29b,2021-10-27_11h08.55.327,arrow_simon_punish,2021.1.2,MacIntel,30.00120005,,,,,,,,,,,,,,,,,,,,,,,,,,,,,,,,,,,,,,
,,,w,1,1.0212,9,3,39,3,1,left.png,,w,right,6168a697ae9f4d8dcfada29b,2021-10-27_11h08.55.327,arrow_simon_punish,2021.1.2,MacIntel,30.00120005,,,,,,,,,,,,,,,,,,,,,,,,,,,,,,,,,,,,,,
,,,,,,,,,,,,,,,6168a697ae9f4d8dcfada29b,2021-10-27_11h08.55.327,arrow_simon_punish,2021.1.2,MacIntel,30.00120005,space,0,28.7196,p,2.7802,0,0,0,0,1,,,,,,,,,,,,,,,,,,,,,,,,,,,,
,,,,,,,,,,,,,,,6168a697ae9f4d8dcfada29b,2021-10-27_11h08.55.327,arrow_simon_punish,2021.1.2,MacIntel,30.00120005,,,,p,2.4295,1,0,1,0,1,,,,,,,,,,,,,,,,,,,,,,,,,,,,
,,,,,,,,,,,,,,,6168a697ae9f4d8dcfada29b,2021-10-27_11h08.55.327,arrow_simon_punish,2021.1.2,MacIntel,30.00120005,,,,p,2.1125,2,0,2,0,1,,,,,,,,,,,,,,,,,,,,,,,,,,,,
,,,,,,,,,,,,,,,6168a697ae9f4d8dcfada29b,2021-10-27_11h08.55.327,arrow_simon_punish,2021.1.2,MacIntel,30.00120005,,,,p,2.4729,3,0,3,0,1,,,,,,,,,,,,,,,,,,,,,,,,,,,,
,,,,,,,,,,,,,,,6168a697ae9f4d8dcfada29b,2021-10-27_11h08.55.327,arrow_simon_punish,2021.1.2,MacIntel,30.00120005,,,,p,2.4894,4,0,4,0,1,,,,,,,,,,,,,,,,,,,,,,,,,,,,
,,,,,,,,,,,,,,,6168a697ae9f4d8dcfada29b,2021-10-27_11h08.55.327,arrow_simon_punish,2021.1.2,MacIntel,30.00120005,,,,p,2.4853,5,0,5,0,1,,,,,,,,,,,,,,,,,,,,,,,,,,,,
,,,,,,,,,,,,,,,6168a697ae9f4d8dcfada29b,2021-10-27_11h08.55.327,arrow_simon_punish,2021.1.2,MacIntel,30.00120005,,,,w,2.5799,6,0,6,0,1,,,,,,,,,,,,,,,,,,,,,,,,,,,,
,,,,,,,,,,,,,,,6168a697ae9f4d8dcfada29b,2021-10-27_11h08.55.327,arrow_simon_punish,2021.1.2,MacIntel,30.00120005,,,,w,2.232,7,0,7,0,1,,,,,,,,,,,,,,,,,,,,,,,,,,,,
,,,,,,,,,,,,,,,6168a697ae9f4d8dcfada29b,2021-10-27_11h08.55.327,arrow_simon_punish,2021.1.2,MacIntel,30.00120005,,,,w,2.6221,8,0,8,0,1,,,,,,,,,,,,,,,,,,,,,,,,,,,,
,,,,,,,,,,,,,,,6168a697ae9f4d8dcfada29b,2021-10-27_11h08.55.327,arrow_simon_punish,2021.1.2,MacIntel,30.00120005,,,,w,2.7404,9,0,9,0,1,,,,,,,,,,,,,,,,,,,,,,,,,,,,
,,,,,,,,,,,,,,,6168a697ae9f4d8dcfada29b,2021-10-27_11h08.55.327,arrow_simon_punish,2021.1.2,MacIntel,30.00120005,,,,w,2.4722,10,0,10,0,1,,,,,,,,,,,,,,,,,,,,,,,,,,,,
,,,,,,,,,,,,,,,6168a697ae9f4d8dcfada29b,2021-10-27_11h08.55.327,arrow_simon_punish,2021.1.2,MacIntel,30.00120005,,,,w,2.7099,11,0,11,0,1,,,,,,,,,,,,,,,,,,,,,,,,,,,,
,,,,,,,,,,,,,,,6168a697ae9f4d8dcfada29b,2021-10-27_11h08.55.327,arrow_simon_punish,2021.1.2,MacIntel,30.00120005,,,,w,2.4571,12,0,12,0,1,,,,,,,,,,,,,,,,,,,,,,,,,,,,
,,,,,,,,,,,,,,,6168a697ae9f4d8dcfada29b,2021-10-27_11h08.55.327,arrow_simon_punish,2021.1.2,MacIntel,30.00120005,,,,w,2.4707,13,0,13,0,1,,,,,,,,,,,,,,,,,,,,,,,,,,,,
,,,,,,,,,,,,,,,6168a697ae9f4d8dcfada29b,2021-10-27_11h08.55.327,arrow_simon_punish,2021.1.2,MacIntel,30.00120005,,,,w,2.4512,14,0,14,0,1,,,,,,,,,,,,,,,,,,,,,,,,,,,,
,,,,,,,,,,,,,,,6168a697ae9f4d8dcfada29b,2021-10-27_11h08.55.327,arrow_simon_punish,2021.1.2,MacIntel,30.00120005,,,,p,2.4112,15,0,15,0,1,,,,,,,,,,,,,,,,,,,,,,,,,,,,
,,,,,,,,,,,,,,,6168a697ae9f4d8dcfada29b,2021-10-27_11h08.55.327,arrow_simon_punish,2021.1.2,MacIntel,30.00120005,,,,w,2.5004,16,0,16,0,1,,,,,,,,,,,,,,,,,,,,,,,,,,,,
,,,,,,,,,,,,,,,6168a697ae9f4d8dcfada29b,2021-10-27_11h08.55.327,arrow_simon_punish,2021.1.2,MacIntel,30.00120005,,,,w,2.4875,17,0,17,0,1,,,,,,,,,,,,,,,,,,,,,,,,,,,,
,,,,,,,,,,,,,,,6168a697ae9f4d8dcfada29b,2021-10-27_11h08.55.327,arrow_simon_punish,2021.1.2,MacIntel,30.00120005,,,,p,2.4381,18,0,18,0,1,,,,,,,,,,,,,,,,,,,,,,,,,,,,
,,,,,,,,,,,,,,,6168a697ae9f4d8dcfada29b,2021-10-27_11h08.55.327,arrow_simon_punish,2021.1.2,MacIntel,30.00120005,,,,p,2.4458,19,0,19,0,1,,,,,,,,,,,,,,,,,,,,,,,,,,,,
,,,,,,,,,,,,,,,6168a697ae9f4d8dcfada29b,2021-10-27_11h08.55.327,arrow_simon_punish,2021.1.2,MacIntel,30.00120005,,,,w,2.5018,20,0,20,0,1,,,,,,,,,,,,,,,,,,,,,,,,,,,,
,,,,,,,,,,,,,,,6168a697ae9f4d8dcfada29b,2021-10-27_11h08.55.327,arrow_simon_punish,2021.1.2,MacIntel,30.00120005,,,,p,2.4278,21,0,21,0,1,,,,,,,,,,,,,,,,,,,,,,,,,,,,
,,,,,,,,,,,,,,,6168a697ae9f4d8dcfada29b,2021-10-27_11h08.55.327,arrow_simon_punish,2021.1.2,MacIntel,30.00120005,,,,w,2.4312,22,0,22,0,1,,,,,,,,,,,,,,,,,,,,,,,,,,,,
,,,,,,,,,,,,,,,6168a697ae9f4d8dcfada29b,2021-10-27_11h08.55.327,arrow_simon_punish,2021.1.2,MacIntel,30.00120005,,,,p,2.4752,23,0,23,0,1,,,,,,,,,,,,,,,,,,,,,,,,,,,,
,,,,,,,,,,,,,,,6168a697ae9f4d8dcfada29b,2021-10-27_11h08.55.327,arrow_simon_punish,2021.1.2,MacIntel,30.00120005,,,,w,2.3965,24,0,24,0,1,,,,,,,,,,,,,,,,,,,,,,,,,,,,
,,,,,,,,,,,,,,,6168a697ae9f4d8dcfada29b,2021-10-27_11h08.55.327,arrow_simon_punish,2021.1.2,MacIntel,30.00120005,,,,p,2.454,25,0,25,0,1,,,,,,,,,,,,,,,,,,,,,,,,,,,,
,,,,,,,,,,,,,,,6168a697ae9f4d8dcfada29b,2021-10-27_11h08.55.327,arrow_simon_punish,2021.1.2,MacIntel,30.00120005,,,,w,2.4649,26,0,26,0,1,,,,,,,,,,,,,,,,,,,,,,,,,,,,
,,,,,,,,,,,,,,,6168a697ae9f4d8dcfada29b,2021-10-27_11h08.55.327,arrow_simon_punish,2021.1.2,MacIntel,30.00120005,,,,p,2.4612,27,0,27,0,1,,,,,,,,,,,,,,,,,,,,,,,,,,,,
,,,,,,,,,,,,,,,6168a697ae9f4d8dcfada29b,2021-10-27_11h08.55.327,arrow_simon_punish,2021.1.2,MacIntel,30.00120005,,,,w,2.5598,28,0,28,0,1,,,,,,,,,,,,,,,,,,,,,,,,,,,,
,,,,,,,,,,,,,,,6168a697ae9f4d8dcfada29b,2021-10-27_11h08.55.327,arrow_simon_punish,2021.1.2,MacIntel,30.00120005,,,,p,2.4438,29,0,29,0,1,,,,,,,,,,,,,,,,,,,,,,,,,,,,
,,,,,,,,,,,,,,,6168a697ae9f4d8dcfada29b,2021-10-27_11h08.55.327,arrow_simon_punish,2021.1.2,MacIntel,30.00120005,,,,w,2.411,30,0,30,0,1,,,,,,,,,,,,,,,,,,,,,,,,,,,,
,,,,,,,,,,,,,,,6168a697ae9f4d8dcfada29b,2021-10-27_11h08.55.327,arrow_simon_punish,2021.1.2,MacIntel,30.00120005,,,,p,2.3451,31,0,31,0,1,,,,,,,,,,,,,,,,,,,,,,,,,,,,
,,,,,,,,,,,,,,,6168a697ae9f4d8dcfada29b,2021-10-27_11h08.55.327,arrow_simon_punish,2021.1.2,MacIntel,30.00120005,,,,w,2.4487,32,0,32,0,1,,,,,,,,,,,,,,,,,,,,,,,,,,,,
,,,,,,,,,,,,,,,6168a697ae9f4d8dcfada29b,2021-10-27_11h08.55.327,arrow_simon_punish,2021.1.2,MacIntel,30.00120005,,,,p,2.4876,33,0,33,0,1,,,,,,,,,,,,,,,,,,,,,,,,,,,,
,,,,,,,,,,,,,,,6168a697ae9f4d8dcfada29b,2021-10-27_11h08.55.327,arrow_simon_punish,2021.1.2,MacIntel,30.00120005,,,,w,2.4503,34,0,34,0,1,,,,,,,,,,,,,,,,,,,,,,,,,,,,
,,,,,,,,,,,,,,,6168a697ae9f4d8dcfada29b,2021-10-27_11h08.55.327,arrow_simon_punish,2021.1.2,MacIntel,30.00120005,,,,p,2.431,35,0,35,0,1,,,,,,,,,,,,,,,,,,,,,,,,,,,,
,,,,,,,,,,,,,,,6168a697ae9f4d8dcfada29b,2021-10-27_11h08.55.327,arrow_simon_punish,2021.1.2,MacIntel,30.00120005,,,,w,2.3753,36,0,36,0,1,,,,,,,,,,,,,,,,,,,,,,,,,,,,
,,,,,,,,,,,,,,,6168a697ae9f4d8dcfada29b,2021-10-27_11h08.55.327,arrow_simon_punish,2021.1.2,MacIntel,30.00120005,,,,p,2.4455,37,0,37,0,1,,,,,,,,,,,,,,,,,,,,,,,,,,,,
,,,,,,,,,,,,,,,6168a697ae9f4d8dcfada29b,2021-10-27_11h08.55.327,arrow_simon_punish,2021.1.2,MacIntel,30.00120005,,,,w,2.441,38,0,38,0,1,,,,,,,,,,,,,,,,,,,,,,,,,,,,
,,,,,,,,,,,,,,,6168a697ae9f4d8dcfada29b,2021-10-27_11h08.55.327,arrow_simon_punish,2021.1.2,MacIntel,30.00120005,,,,p,2.4098,39,0,39,0,1,,,,,,,,,,,,,,,,,,,,,,,,,,,,
,,,,,,,,,,,,,,,6168a697ae9f4d8dcfada29b,2021-10-27_11h08.55.327,arrow_simon_punish,2021.1.2,MacIntel,30.00120005,,,,w,2.4833,40,0,40,0,1,,,,,,,,,,,,,,,,,,,,,,,,,,,,
,,,,,,,,,,,,,,,6168a697ae9f4d8dcfada29b,2021-10-27_11h08.55.327,arrow_simon_punish,2021.1.2,MacIntel,30.00120005,,,,p,2.4701,41,0,41,0,1,,,,,,,,,,,,,,,,,,,,,,,,,,,,
,,,,,,,,,,,,,,,6168a697ae9f4d8dcfada29b,2021-10-27_11h08.55.327,arrow_simon_punish,2021.1.2,MacIntel,30.00120005,,,,w,2.3975,42,0,42,0,1,,,,,,,,,,,,,,,,,,,,,,,,,,,,
,,,,,,,,,,,,,,,6168a697ae9f4d8dcfada29b,2021-10-27_11h08.55.327,arrow_simon_punish,2021.1.2,MacIntel,30.00120005,,,,p,2.3488,43,0,43,0,1,,,,,,,,,,,,,,,,,,,,,,,,,,,,
,,,,,,,,,,,,,,,6168a697ae9f4d8dcfada29b,2021-10-27_11h08.55.327,arrow_simon_punish,2021.1.2,MacIntel,30.00120005,,,,w,2.4239,44,0,44,0,1,,,,,,,,,,,,,,,,,,,,,,,,,,,,
,,,,,,,,,,,,,,,6168a697ae9f4d8dcfada29b,2021-10-27_11h08.55.327,arrow_simon_punish,2021.1.2,MacIntel,30.00120005,,,,p,2.4078,45,0,45,0,1,,,,,,,,,,,,,,,,,,,,,,,,,,,,
,,,,,,,,,,,,,,,6168a697ae9f4d8dcfada29b,2021-10-27_11h08.55.327,arrow_simon_punish,2021.1.2,MacIntel,30.00120005,,,,w,2.5537,46,0,46,0,1,,,,,,,,,,,,,,,,,,,,,,,,,,,,
,,,,,,,,,,,,,,,6168a697ae9f4d8dcfada29b,2021-10-27_11h08.55.327,arrow_simon_punish,2021.1.2,MacIntel,30.00120005,,,,p,2.3488,47,0,47,0,1,,,,,,,,,,,,,,,,,,,,,,,,,,,,
,,,,,,,,,,,,,,,6168a697ae9f4d8dcfada29b,2021-10-27_11h08.55.327,arrow_simon_punish,2021.1.2,MacIntel,30.00120005,,,,w,2.4329,48,0,48,0,1,,,,,,,,,,,,,,,,,,,,,,,,,,,,
,,,,,,,,,,,,,,,6168a697ae9f4d8dcfada29b,2021-10-27_11h08.55.327,arrow_simon_punish,2021.1.2,MacIntel,30.00120005,,,,p,2.5188,49,0,49,0,1,,,,,,,,,,,,,,,,,,,,,,,,,,,,
,,,,,,,,,,,,,,,6168a697ae9f4d8dcfada29b,2021-10-27_11h08.55.327,arrow_simon_punish,2021.1.2,MacIntel,30.00120005,,,,w,2.4659,50,0,50,0,1,,,,,,,,,,,,,,,,,,,,,,,,,,,,
,,,,,,,,,,,,,,,6168a697ae9f4d8dcfada29b,2021-10-27_11h08.55.327,arrow_simon_punish,2021.1.2,MacIntel,30.00120005,,,,p,2.5702,51,0,51,0,1,,,,,,,,,,,,,,,,,,,,,,,,,,,,
,,,,,,,,,,,,,,,6168a697ae9f4d8dcfada29b,2021-10-27_11h08.55.327,arrow_simon_punish,2021.1.2,MacIntel,30.00120005,,,,w,2.6402,52,0,52,0,1,,,,,,,,,,,,,,,,,,,,,,,,,,,,
,,,,,,,,,,,,,,,6168a697ae9f4d8dcfada29b,2021-10-27_11h08.55.327,arrow_simon_punish,2021.1.2,MacIntel,30.00120005,,,,p,2.4016,53,0,53,0,1,,,,,,,,,,,,,,,,,,,,,,,,,,,,
,,,,,,,,,,,,,,,6168a697ae9f4d8dcfada29b,2021-10-27_11h08.55.327,arrow_simon_punish,2021.1.2,MacIntel,30.00120005,,,,w,2.4161,54,0,54,0,1,,,,,,,,,,,,,,,,,,,,,,,,,,,,
,,,,,,,,,,,,,,,6168a697ae9f4d8dcfada29b,2021-10-27_11h08.55.327,arrow_simon_punish,2021.1.2,MacIntel,30.00120005,,,,p,2.3799,55,0,55,0,1,,,,,,,,,,,,,,,,,,,,,,,,,,,,
,,,,,,,,,,,,,,,6168a697ae9f4d8dcfada29b,2021-10-27_11h08.55.327,arrow_simon_punish,2021.1.2,MacIntel,30.00120005,,,,w,2.5669,56,0,56,0,1,,,,,,,,,,,,,,,,,,,,,,,,,,,,
,,,,,,,,,,,,,,,6168a697ae9f4d8dcfada29b,2021-10-27_11h08.55.327,arrow_simon_punish,2021.1.2,MacIntel,30.00120005,,,,p,2.0019,57,0,57,0,1,,,,,,,,,,,,,,,,,,,,,,,,,,,,
,,,,,,,,,,,,,,,6168a697ae9f4d8dcfada29b,2021-10-27_11h08.55.327,arrow_simon_punish,2021.1.2,MacIntel,30.00120005,,,,w,2.5898,58,0,58,0,1,,,,,,,,,,,,,,,,,,,,,,,,,,,,
,,,,,,,,,,,,,,,6168a697ae9f4d8dcfada29b,2021-10-27_11h08.55.327,arrow_simon_punish,2021.1.2,MacIntel,30.00120005,,,,p,2.2315,59,0,59,0,1,,,,,,,,,,,,,,,,,,,,,,,,,,,,
,,,,,,,,,,,left.png,,w,right,6168a697ae9f4d8dcfada29b,2021-10-27_11h08.55.327,arrow_simon_punish,2021.1.2,MacIntel,30.00120005,,,,,,,,,,,space,0,53.3314,w,1,1.3978,1.579566166,1,1,0,0,0,3,1,,,,,,,,,,,,,,
,,,,,,,,,,,left.png,,w,right,6168a697ae9f4d8dcfada29b,2021-10-27_11h08.55.327,arrow_simon_punish,2021.1.2,MacIntel,30.00120005,,,,,,,,,,,,,,w,1,1.0399,1.66538634,1,1,0,1,1,3,1,,,,,,,,,,,,,,
,,,,,,,,,,,right.png,,p,right,6168a697ae9f4d8dcfada29b,2021-10-27_11h08.55.327,arrow_simon_punish,2021.1.2,MacIntel,30.00120005,,,,,,,,,,,,,,w,0,1.9178,2.412303974,1,1,0,2,2,1,1,,,,,,,,,,,,,,
,,,,,,,,,,,right.png,,p,left,6168a697ae9f4d8dcfada29b,2021-10-27_11h08.55.327,arrow_simon_punish,2021.1.2,MacIntel,30.00120005,,,,,,,,,,,,,,p,1,1.182,1.573820028,1,1,0,3,3,0,1,,,,,,,,,,,,,,
,,,,,,,,,,,left.png,,w,left,6168a697ae9f4d8dcfada29b,2021-10-27_11h08.55.327,arrow_simon_punish,2021.1.2,MacIntel,30.00120005,,,,,,,,,,,,,,w,1,1.5383,1.973730226,0,1,1,0,4,2,1,,,,,,,,,,,,,,
,,,,,,,,,,,right.png,,p,right,6168a697ae9f4d8dcfada29b,2021-10-27_11h08.55.327,arrow_simon_punish,2021.1.2,MacIntel,30.00120005,,,,,,,,,,,,,,p,1,1.3117,1.594317121,1,1,1,1,5,1,1,,,,,,,,,,,,,,
,,,,,,,,,,,left.png,,w,right,6168a697ae9f4d8dcfada29b,2021-10-27_11h08.55.327,arrow_simon_punish,2021.1.2,MacIntel,30.00120005,,,,,,,,,,,,,,w,1,1.8932,1.572901578,1,1,1,2,6,3,1,,,,,,,,,,,,,,
,,,,,,,,,,,left.png,,w,left,6168a697ae9f4d8dcfada29b,2021-10-27_11h08.55.327,arrow_simon_punish,2021.1.2,MacIntel,30.00120005,,,,,,,,,,,,,,w,1,1.1644,1.61293249,1,1,1,3,7,2,1,,,,,,,,,,,,,,
,,,,,,,,,,,left.png,,w,left,6168a697ae9f4d8dcfada29b,2021-10-27_11h08.55.327,arrow_simon_punish,2021.1.2,MacIntel,30.00120005,,,,,,,,,,,,,,w,1,1.6319,1.725050581,1,1,2,0,8,2,1,,,,,,,,,,,,,,
,,,,,,,,,,,left.png,,w,left,6168a697ae9f4d8dcfada29b,2021-10-27_11h08.55.327,arrow_simon_punish,2021.1.2,MacIntel,30.00120005,,,,,,,,,,,,,,w,1,1.6198,2.217645375,1,1,2,1,9,2,1,,,,,,,,,,,,,,
,,,,,,,,,,,right.png,,p,right,6168a697ae9f4d8dcfada29b,2021-10-27_11h08.55.327,arrow_simon_punish,2021.1.2,MacIntel,30.00120005,,,,,,,,,,,,,,p,1,1.4263,1.827256295,0,1,2,2,10,1,1,,,,,,,,,,,,,,
,,,,,,,,,,,right.png,,p,left,6168a697ae9f4d8dcfada29b,2021-10-27_11h08.55.327,arrow_simon_punish,2021.1.2,MacIntel,30.00120005,,,,,,,,,,,,,,w,0,1.5762,1.867222059,1,1,2,3,11,0,1,,,,,,,,,,,,,,
,,,,,,,,,,,right.png,,p,right,6168a697ae9f4d8dcfada29b,2021-10-27_11h08.55.327,arrow_simon_punish,2021.1.2,MacIntel,30.00120005,,,,,,,,,,,,,,p,1,1.4162,1.562762594,0,1,3,0,12,1,1,,,,,,,,,,,,,,
,,,,,,,,,,,right.png,,p,left,6168a697ae9f4d8dcfada29b,2021-10-27_11h08.55.327,arrow_simon_punish,2021.1.2,MacIntel,30.00120005,,,,,,,,,,,,,,p,1,2.0103,2.401508266,1,1,3,1,13,0,1,,,,,,,,,,,,,,
,,,,,,,,,,,right.png,,p,left,6168a697ae9f4d8dcfada29b,2021-10-27_11h08.55.327,arrow_simon_punish,2021.1.2,MacIntel,30.00120005,,,,,,,,,,,,,,p,1,1.6485,1.883796963,1,1,3,2,14,0,1,,,,,,,,,,,,,,
,,,,,,,,,,,right.png,,p,left,6168a697ae9f4d8dcfada29b,2021-10-27_11h08.55.327,arrow_simon_punish,2021.1.2,MacIntel,30.00120005,,,,,,,,,,,,,,p,1,1.3836,1.570329896,1,1,3,3,15,0,1,,,,,,,,,,,,,,
,,,,,,,,,,,right.png,,p,right,6168a697ae9f4d8dcfada29b,2021-10-27_11h08.55.327,arrow_simon_punish,2021.1.2,MacIntel,30.00120005,,,,,,,,,,,,,,w,0,1.662,2.302868769,1,1,4,0,16,1,1,,,,,,,,,,,,,,
,,,,,,,,,,,left.png,,w,right,6168a697ae9f4d8dcfada29b,2021-10-27_11h08.55.327,arrow_simon_punish,2021.1.2,MacIntel,30.00120005,,,,,,,,,,,,,,w,1,1.811,2.127926295,1,1,4,1,17,3,1,,,,,,,,,,,,,,
,,,,,,,,,,,left.png,,w,left,6168a697ae9f4d8dcfada29b,2021-10-27_11h08.55.327,arrow_simon_punish,2021.1.2,MacIntel,30.00120005,,,,,,,,,,,,,,w,1,1.8875,2.415688621,1,1,4,2,18,2,1,,,,,,,,,,,,,,
,,,,,,,,,,,left.png,,w,right,6168a697ae9f4d8dcfada29b,2021-10-27_11h08.55.327,arrow_simon_punish,2021.1.2,MacIntel,30.00120005,,,,,,,,,,,,,,p,0,1.6346,2.267589792,1,1,4,3,19,3,1,,,,,,,,,,,,,,
,,,,,,,,,,,right.png,,p,left,6168a697ae9f4d8dcfada29b,2021-10-27_11h08.55.327,arrow_simon_punish,2021.1.2,MacIntel,30.00120005,,,,,,,,,,,,,,p,1,1.7475,2.186429264,1,1,5,0,20,0,1,,,,,,,,,,,,,,
,,,,,,,,,,,right.png,,p,left,6168a697ae9f4d8dcfada29b,2021-10-27_11h08.55.327,arrow_simon_punish,2021.1.2,MacIntel,30.00120005,,,,,,,,,,,,,,p,1,1.529,1.806599275,0,1,5,1,21,0,1,,,,,,,,,,,,,,
,,,,,,,,,,,left.png,,w,right,6168a697ae9f4d8dcfada29b,2021-10-27_11h08.55.327,arrow_simon_punish,2021.1.2,MacIntel,30.00120005,,,,,,,,,,,,,,w,1,1.3713,1.761109134,1,1,5,2,22,3,1,,,,,,,,,,,,,,
,,,,,,,,,,,right.png,,p,left,6168a697ae9f4d8dcfada29b,2021-10-27_11h08.55.327,arrow_simon_punish,2021.1.2,MacIntel,30.00120005,,,,,,,,,,,,,,p,1,1.7621,2.373953217,1,1,5,3,23,0,1,,,,,,,,,,,,,,
,,,,,,,,,,,right.png,,p,right,6168a697ae9f4d8dcfada29b,2021-10-27_11h08.55.327,arrow_simon_punish,2021.1.2,MacIntel,30.00120005,,,,,,,,,,,,,,p,1,1.4175,1.971698436,0,1,6,0,24,1,1,,,,,,,,,,,,,,
,,,,,,,,,,,left.png,,w,left,6168a697ae9f4d8dcfada29b,2021-10-27_11h08.55.327,arrow_simon_punish,2021.1.2,MacIntel,30.00120005,,,,,,,,,,,,,,w,1,1.787,2.340722881,1,1,6,1,25,2,1,,,,,,,,,,,,,,
,,,,,,,,,,,right.png,,p,right,6168a697ae9f4d8dcfada29b,2021-10-27_11h08.55.327,arrow_simon_punish,2021.1.2,MacIntel,30.00120005,,,,,,,,,,,,,,p,1,1.568,2.199132751,0,1,6,2,26,1,1,,,,,,,,,,,,,,
,,,,,,,,,,,right.png,,p,right,6168a697ae9f4d8dcfada29b,2021-10-27_11h08.55.327,arrow_simon_punish,2021.1.2,MacIntel,30.00120005,,,,,,,,,,,,,,p,1,1.3007,1.90621759,1,1,6,3,27,1,1,,,,,,,,,,,,,,
,,,,,,,,,,,right.png,,p,left,6168a697ae9f4d8dcfada29b,2021-10-27_11h08.55.327,arrow_simon_punish,2021.1.2,MacIntel,30.00120005,,,,,,,,,,,,,,p,1,1.5395,2.072287643,0,1,7,0,28,0,1,,,,,,,,,,,,,,
,,,,,,,,,,,left.png,,w,right,6168a697ae9f4d8dcfada29b,2021-10-27_11h08.55.327,arrow_simon_punish,2021.1.2,MacIntel,30.00120005,,,,,,,,,,,,,,p,0,1.8128,2.450637551,1,1,7,1,29,3,1,,,,,,,,,,,,,,
,,,,,,,,,,,right.png,,p,left,6168a697ae9f4d8dcfada29b,2021-10-27_11h08.55.327,arrow_simon_punish,2021.1.2,MacIntel,30.00120005,,,,,,,,,,,,,,p,1,2.111,2.494750551,1,1,7,2,30,0,1,,,,,,,,,,,,,,
,,,,,,,,,,,left.png,,w,right,6168a697ae9f4d8dcfada29b,2021-10-27_11h08.55.327,arrow_simon_punish,2021.1.2,MacIntel,30.00120005,,,,,,,,,,,,,,w,1,1.8734,2.448031878,1,1,7,3,31,3,1,,,,,,,,,,,,,,
,,,,,,,,,,,left.png,,w,right,6168a697ae9f4d8dcfada29b,2021-10-27_11h08.55.327,arrow_simon_punish,2021.1.2,MacIntel,30.00120005,,,,,,,,,,,,,,w,1,1.1281,1.666763551,1,1,8,0,32,3,1,,,,,,,,,,,,,,
,,,,,,,,,,,left.png,,w,right,6168a697ae9f4d8dcfada29b,2021-10-27_11h08.55.327,arrow_simon_punish,2021.1.2,MacIntel,30.00120005,,,,,,,,,,,,,,w,1,1.0072,1.559855179,1,1,8,1,33,3,1,,,,,,,,,,,,,,
,,,,,,,,,,,left.png,,w,left,6168a697ae9f4d8dcfada29b,2021-10-27_11h08.55.327,arrow_simon_punish,2021.1.2,MacIntel,30.00120005,,,,,,,,,,,,,,w,1,1.3942,1.617937528,1,1,8,2,34,2,1,,,,,,,,,,,,,,
,,,,,,,,,,,right.png,,p,right,6168a697ae9f4d8dcfada29b,2021-10-27_11h08.55.327,arrow_simon_punish,2021.1.2,MacIntel,30.00120005,,,,,,,,,,,,,,p,1,1.7549,2.285913334,1,1,8,3,35,1,1,,,,,,,,,,,,,,
,,,,,,,,,,,right.png,,p,right,6168a697ae9f4d8dcfada29b,2021-10-27_11h08.55.327,arrow_simon_punish,2021.1.2,MacIntel,30.00120005,,,,,,,,,,,,,,p,1,1.484,2.059289489,0,1,9,0,36,1,1,,,,,,,,,,,,,,
,,,,,,,,,,,right.png,,p,left,6168a697ae9f4d8dcfada29b,2021-10-27_11h08.55.327,arrow_simon_punish,2021.1.2,MacIntel,30.00120005,,,,,,,,,,,,,,p,1,1.5089,1.945500744,0,1,9,1,37,0,1,,,,,,,,,,,,,,
,,,,,,,,,,,right.png,,p,right,6168a697ae9f4d8dcfada29b,2021-10-27_11h08.55.327,arrow_simon_punish,2021.1.2,MacIntel,30.00120005,,,,,,,,,,,,,,p,1,1.6267,2.289052715,1,1,9,2,38,1,1,,,,,,,,,,,,,,
,,,,,,,,,,,right.png,,p,right,6168a697ae9f4d8dcfada29b,2021-10-27_11h08.55.327,arrow_simon_punish,2021.1.2,MacIntel,30.00120005,,,,,,,,,,,,,,p,1,1.6809,2.2030551,1,1,9,3,39,1,1,,,,,,,,,,,,,,
,,,,,,,,,,,left.png,,w,right,6168a697ae9f4d8dcfada29b,2021-10-27_11h08.55.327,arrow_simon_punish,2021.1.2,MacIntel,30.00120005,,,,,,,,,,,,,,w,1,1.3462,1.87859425,1,1,10,0,40,3,1,,,,,,,,,,,,,,
,,,,,,,,,,,right.png,,p,left,6168a697ae9f4d8dcfada29b,2021-10-27_11h08.55.327,arrow_simon_punish,2021.1.2,MacIntel,30.00120005,,,,,,,,,,,,,,p,1,1.5138,2.075935892,0,1,10,1,41,0,1,,,,,,,,,,,,,,
,,,,,,,,,,,left.png,,w,left,6168a697ae9f4d8dcfada29b,2021-10-27_11h08.55.327,arrow_simon_punish,2021.1.2,MacIntel,30.00120005,,,,,,,,,,,,,,w,1,1.334,1.897462177,1,1,10,2,42,2,1,,,,,,,,,,,,,,
,,,,,,,,,,,left.png,,w,left,6168a697ae9f4d8dcfada29b,2021-10-27_11h08.55.327,arrow_simon_punish,2021.1.2,MacIntel,30.00120005,,,,,,,,,,,,,,w,1,1.5472,2.082272199,0,1,10,3,43,2,1,,,,,,,,,,,,,,
,,,,,,,,,,,left.png,,w,left,6168a697ae9f4d8dcfada29b,2021-10-27_11h08.55.327,arrow_simon_punish,2021.1.2,MacIntel,30.00120005,,,,,,,,,,,,,,w,1,1.441,1.729438686,0,1,11,0,44,2,1,,,,,,,,,,,,,,
,,,,,,,,,,,left.png,,w,right,6168a697ae9f4d8dcfada29b,2021-10-27_11h08.55.327,arrow_simon_punish,2021.1.2,MacIntel,30.00120005,,,,,,,,,,,,,,w,1,1.5173,2.021169658,0,1,11,1,45,3,1,,,,,,,,,,,,,,
,,,,,,,,,,,right.png,,p,right,6168a697ae9f4d8dcfada29b,2021-10-27_11h08.55.327,arrow_simon_punish,2021.1.2,MacIntel,30.00120005,,,,,,,,,,,,,,p,1,1.0842,1.716037309,1,1,11,2,46,1,1,,,,,,,,,,,,,,
,,,,,,,,,,,left.png,,w,left,6168a697ae9f4d8dcfada29b,2021-10-27_11h08.55.327,arrow_simon_punish,2021.1.2,MacIntel,30.00120005,,,,,,,,,,,,,,w,1,1.8184,2.487900083,1,1,11,3,47,2,1,,,,,,,,,,,,,,
,,,,,,,,,,,right.png,,p,right,6168a697ae9f4d8dcfada29b,2021-10-27_11h08.55.327,arrow_simon_punish,2021.1.2,MacIntel,30.00120005,,,,,,,,,,,,,,p,1,1.6768,2.302609169,1,1,12,0,48,1,1,,,,,,,,,,,,,,
,,,,,,,,,,,left.png,,w,left,6168a697ae9f4d8dcfada29b,2021-10-27_11h08.55.327,arrow_simon_punish,2021.1.2,MacIntel,30.00120005,,,,,,,,,,,,,,w,1,1.2237,1.762489013,1,1,12,1,49,2,1,,,,,,,,,,,,,,
,,,,,,,,,,,left.png,,w,left,6168a697ae9f4d8dcfada29b,2021-10-27_11h08.55.327,arrow_simon_punish,2021.1.2,MacIntel,30.00120005,,,,,,,,,,,,,,w,1,1.6394,2.168294396,1,1,12,2,50,2,1,,,,,,,,,,,,,,
,,,,,,,,,,,right.png,,p,left,6168a697ae9f4d8dcfada29b,2021-10-27_11h08.55.327,arrow_simon_punish,2021.1.2,MacIntel,30.00120005,,,,,,,,,,,,,,w,0,1.85,2.491541471,1,1,12,3,51,0,1,,,,,,,,,,,,,,
,,,,,,,,,,,right.png,,p,left,6168a697ae9f4d8dcfada29b,2021-10-27_11h08.55.327,arrow_simon_punish,2021.1.2,MacIntel,30.00120005,,,,,,,,,,,,,,w,0,1.5072,2.058677337,1,1,13,0,52,0,1,,,,,,,,,,,,,,
,,,,,,,,,,,left.png,,w,left,6168a697ae9f4d8dcfada29b,2021-10-27_11h08.55.327,arrow_simon_punish,2021.1.2,MacIntel,30.00120005,,,,,,,,,,,,,,w,1,1.1998,1.698387739,1,1,13,1,53,2,1,,,,,,,,,,,,,,
,,,,,,,,,,,right.png,,p,left,6168a697ae9f4d8dcfada29b,2021-10-27_11h08.55.327,arrow_simon_punish,2021.1.2,MacIntel,30.00120005,,,,,,,,,,,,,,p,1,1.5648,2.269138501,0,1,13,2,54,0,1,,,,,,,,,,,,,,
,,,,,,,,,,,left.png,,w,right,6168a697ae9f4d8dcfada29b,2021-10-27_11h08.55.327,arrow_simon_punish,2021.1.2,MacIntel,30.00120005,,,,,,,,,,,,,,w,1,1.5783,2.122137594,0,1,13,3,55,3,1,,,,,,,,,,,,,,
,,,,,,,,,,,right.png,,p,right,6168a697ae9f4d8dcfada29b,2021-10-27_11h08.55.327,arrow_simon_punish,2021.1.2,MacIntel,30.00120005,,,,,,,,,,,,,,p,1,1.7161,2.25441455,1,1,14,0,56,1,1,,,,,,,,,,,,,,
,,,,,,,,,,,left.png,,w,right,6168a697ae9f4d8dcfada29b,2021-10-27_11h08.55.327,arrow_simon_punish,2021.1.2,MacIntel,30.00120005,,,,,,,,,,,,,,w,1,1.1552,1.599047668,1,1,14,1,57,3,1,,,,,,,,,,,,,,
,,,,,,,,,,,left.png,,w,left,6168a697ae9f4d8dcfada29b,2021-10-27_11h08.55.327,arrow_simon_punish,2021.1.2,MacIntel,30.00120005,,,,,,,,,,,,,,w,1,1.3505,1.765786799,1,1,14,2,58,2,1,,,,,,,,,,,,,,
,,,,,,,,,,,left.png,,w,right,6168a697ae9f4d8dcfada29b,2021-10-27_11h08.55.327,arrow_simon_punish,2021.1.2,MacIntel,30.00120005,,,,,,,,,,,,,,w,1,1.5287,1.965614948,0,1,14,3,59,3,1,,,,,,,,,,,,,,
,,,,,,,,,,,,,,,6168a697ae9f4d8dcfada29b,2021-10-27_11h08.55.327,arrow_simon_punish,2021.1.2,MacIntel,30.00120005,,,,,,,,,,,,,,,,,,,,,,,,,space,7.5881,2,0,0,0,0,1,1,,,,,
,,,,,,,,,,,right.png,,p,left,6168a697ae9f4d8dcfada29b,2021-10-27_11h08.55.327,arrow_simon_punish,2021.1.2,MacIntel,30.00120005,,,,,,,,,,,,,,p,1,1.533,2.021403404,0,5,0,0,0,0,1,,,,,,,,,,,,,,
,,,,,,,,,,,right.png,,p,right,6168a697ae9f4d8dcfada29b,2021-10-27_11h08.55.327,arrow_simon_punish,2021.1.2,MacIntel,30.00120005,,,,,,,,,,,,,,p,1,1.8257,2.459904711,1,5,0,1,1,1,1,,,,,,,,,,,,,,
,,,,,,,,,,,right.png,,p,left,6168a697ae9f4d8dcfada29b,2021-10-27_11h08.55.327,arrow_simon_punish,2021.1.2,MacIntel,30.00120005,,,,,,,,,,,,,,w,0,1.1235,1.644241208,1,5,0,2,2,0,1,,,,,,,,,,,,,,
,,,,,,,,,,,left.png,,w,right,6168a697ae9f4d8dcfada29b,2021-10-27_11h08.55.327,arrow_simon_punish,2021.1.2,MacIntel,30.00120005,,,,,,,,,,,,,,w,1,1.2847,1.823684216,1,5,0,3,3,3,1,,,,,,,,,,,,,,
,,,,,,,,,,,left.png,,w,right,6168a697ae9f4d8dcfada29b,2021-10-27_11h08.55.327,arrow_simon_punish,2021.1.2,MacIntel,30.00120005,,,,,,,,,,,,,,w,1,1.2104,1.514927225,1,5,1,0,4,3,1,,,,,,,,,,,,,,
,,,,,,,,,,,left.png,,w,left,6168a697ae9f4d8dcfada29b,2021-10-27_11h08.55.327,arrow_simon_punish,2021.1.2,MacIntel,30.00120005,,,,,,,,,,,,,,w,1,1.5158,1.794105911,0,5,1,1,5,2,1,,,,,,,,,,,,,,
,,,,,,,,,,,left.png,,w,left,6168a697ae9f4d8dcfada29b,2021-10-27_11h08.55.327,arrow_simon_punish,2021.1.2,MacIntel,30.00120005,,,,,,,,,,,,,,w,1,1.4369,1.917682597,0,5,1,2,6,2,1,,,,,,,,,,,,,,
,,,,,,,,,,,right.png,,p,left,6168a697ae9f4d8dcfada29b,2021-10-27_11h08.55.327,arrow_simon_punish,2021.1.2,MacIntel,30.00120005,,,,,,,,,,,,,,w,0,1.5201,2.184928679,1,5,1,3,7,0,1,,,,,,,,,,,,,,
,,,,,,,,,,,left.png,,w,right,6168a697ae9f4d8dcfada29b,2021-10-27_11h08.55.327,arrow_simon_punish,2021.1.2,MacIntel,30.00120005,,,,,,,,,,,,,,w,1,1.5181,1.816769367,0,5,2,0,8,3,1,,,,,,,,,,,,,,
,,,,,,,,,,,left.png,,w,right,6168a697ae9f4d8dcfada29b,2021-10-27_11h08.55.327,arrow_simon_punish,2021.1.2,MacIntel,30.00120005,,,,,,,,,,,,,,w,1,1.2055,1.700731662,1,5,2,1,9,3,1,,,,,,,,,,,,,,
,,,,,,,,,,,left.png,,w,left,6168a697ae9f4d8dcfada29b,2021-10-27_11h08.55.327,arrow_simon_punish,2021.1.2,MacIntel,30.00120005,,,,,,,,,,,,,,w,1,1.7838,2.449272885,1,5,2,2,10,2,1,,,,,,,,,,,,,,
,,,,,,,,,,,right.png,,p,left,6168a697ae9f4d8dcfada29b,2021-10-27_11h08.55.327,arrow_simon_punish,2021.1.2,MacIntel,30.00120005,,,,,,,,,,,,,,p,1,1.4127,1.908437265,0,5,2,3,11,0,1,,,,,,,,,,,,,,
,,,,,,,,,,,right.png,,p,right,6168a697ae9f4d8dcfada29b,2021-10-27_11h08.55.327,arrow_simon_punish,2021.1.2,MacIntel,30.00120005,,,,,,,,,,,,,,p,1,1.0873,1.630825469,1,5,3,0,12,1,1,,,,,,,,,,,,,,
,,,,,,,,,,,right.png,,p,right,6168a697ae9f4d8dcfada29b,2021-10-27_11h08.55.327,arrow_simon_punish,2021.1.2,MacIntel,30.00120005,,,,,,,,,,,,,,w,0,1.7442,2.450060306,1,5,3,1,13,1,1,,,,,,,,,,,,,,
,,,,,,,,,,,left.png,,w,left,6168a697ae9f4d8dcfada29b,2021-10-27_11h08.55.327,arrow_simon_punish,2021.1.2,MacIntel,30.00120005,,,,,,,,,,,,,,w,1,1.8549,2.326070855,1,5,3,2,14,2,1,,,,,,,,,,,,,,
,,,,,,,,,,,left.png,,w,left,6168a697ae9f4d8dcfada29b,2021-10-27_11h08.55.327,arrow_simon_punish,2021.1.2,MacIntel,30.00120005,,,,,,,,,,,,,,w,1,1.6464,1.699619129,1,5,3,3,15,2,1,,,,,,,,,,,,,,
,,,,,,,,,,,right.png,,p,right,6168a697ae9f4d8dcfada29b,2021-10-27_11h08.55.327,arrow_simon_punish,2021.1.2,MacIntel,30.00120005,,,,,,,,,,,,,,p,1,1.6625,2.097533561,1,5,4,0,16,1,1,,,,,,,,,,,,,,
,,,,,,,,,,,left.png,,w,left,6168a697ae9f4d8dcfada29b,2021-10-27_11h08.55.327,arrow_simon_punish,2021.1.2,MacIntel,30.00120005,,,,,,,,,,,,,,w,1,1.3997,1.678632044,1,5,4,1,17,2,1,,,,,,,,,,,,,,
,,,,,,,,,,,right.png,,p,right,6168a697ae9f4d8dcfada29b,2021-10-27_11h08.55.327,arrow_simon_punish,2021.1.2,MacIntel,30.00120005,,,,,,,,,,,,,,p,1,1.7205,2.392441924,1,5,4,2,18,1,1,,,,,,,,,,,,,,
,,,,,,,,,,,left.png,,w,left,6168a697ae9f4d8dcfada29b,2021-10-27_11h08.55.327,arrow_simon_punish,2021.1.2,MacIntel,30.00120005,,,,,,,,,,,,,,w,1,1.5771,1.855669861,0,5,4,3,19,2,1,,,,,,,,,,,,,,
,,,,,,,,,,,left.png,,w,right,6168a697ae9f4d8dcfada29b,2021-10-27_11h08.55.327,arrow_simon_punish,2021.1.2,MacIntel,30.00120005,,,,,,,,,,,,,,w,1,1.3672,1.599289434,1,5,5,0,20,3,1,,,,,,,,,,,,,,
,,,,,,,,,,,left.png,,w,left,6168a697ae9f4d8dcfada29b,2021-10-27_11h08.55.327,arrow_simon_punish,2021.1.2,MacIntel,30.00120005,,,,,,,,,,,,,,w,1,1.7449,2.376823707,1,5,5,1,21,2,1,,,,,,,,,,,,,,
,,,,,,,,,,,right.png,,p,right,6168a697ae9f4d8dcfada29b,2021-10-27_11h08.55.327,arrow_simon_punish,2021.1.2,MacIntel,30.00120005,,,,,,,,,,,,,,p,1,1.5742,1.866886809,0,5,5,2,22,1,1,,,,,,,,,,,,,,
,,,,,,,,,,,left.png,,w,left,6168a697ae9f4d8dcfada29b,2021-10-27_11h08.55.327,arrow_simon_punish,2021.1.2,MacIntel,30.00120005,,,,,,,,,,,,,,w,1,1.6509,2.298362753,1,5,5,3,23,2,1,,,,,,,,,,,,,,
,,,,,,,,,,,left.png,,w,right,6168a697ae9f4d8dcfada29b,2021-10-27_11h08.55.327,arrow_simon_punish,2021.1.2,MacIntel,30.00120005,,,,,,,,,,,,,,w,1,1.2557,1.743312008,1,5,6,0,24,3,1,,,,,,,,,,,,,,
,,,,,,,,,,,right.png,,p,right,6168a697ae9f4d8dcfada29b,2021-10-27_11h08.55.327,arrow_simon_punish,2021.1.2,MacIntel,30.00120005,,,,,,,,,,,,,,p,1,1.4868,2.064467164,0,5,6,1,25,1,1,,,,,,,,,,,,,,
,,,,,,,,,,,right.png,,p,left,6168a697ae9f4d8dcfada29b,2021-10-27_11h08.55.327,arrow_simon_punish,2021.1.2,MacIntel,30.00120005,,,,,,,,,,,,,,w,0,1.6694,2.315312246,1,5,6,2,26,0,1,,,,,,,,,,,,,,
,,,,,,,,,,,right.png,,p,left,6168a697ae9f4d8dcfada29b,2021-10-27_11h08.55.327,arrow_simon_punish,2021.1.2,MacIntel,30.00120005,,,,,,,,,,,,,,p,1,1.583,1.982383417,0,5,6,3,27,0,1,,,,,,,,,,,,,,
,,,,,,,,,,,left.png,,w,right,6168a697ae9f4d8dcfada29b,2021-10-27_11h08.55.327,arrow_simon_punish,2021.1.2,MacIntel,30.00120005,,,,,,,,,,,,,,w,1,1.628,2.253532007,1,5,7,0,28,3,1,,,,,,,,,,,,,,
,,,,,,,,,,,right.png,,p,right,6168a697ae9f4d8dcfada29b,2021-10-27_11h08.55.327,arrow_simon_punish,2021.1.2,MacIntel,30.00120005,,,,,,,,,,,,,,p,1,1.5008,1.990094412,0,5,7,1,29,1,1,,,,,,,,,,,,,,
,,,,,,,,,,,left.png,,w,right,6168a697ae9f4d8dcfada29b,2021-10-27_11h08.55.327,arrow_simon_punish,2021.1.2,MacIntel,30.00120005,,,,,,,,,,,,,,w,1,1.5404,1.857324919,0,5,7,2,30,3,1,,,,,,,,,,,,,,
,,,,,,,,,,,left.png,,w,left,6168a697ae9f4d8dcfada29b,2021-10-27_11h08.55.327,arrow_simon_punish,2021.1.2,MacIntel,30.00120005,,,,,,,,,,,,,,w,1,1.3037,1.818386304,1,5,7,3,31,2,1,,,,,,,,,,,,,,
,,,,,,,,,,,right.png,,p,right,6168a697ae9f4d8dcfada29b,2021-10-27_11h08.55.327,arrow_simon_punish,2021.1.2,MacIntel,30.00120005,,,,,,,,,,,,,,p,1,1.5154,1.850760582,0,5,8,0,32,1,1,,,,,,,,,,,,,,
,,,,,,,,,,,right.png,,p,right,6168a697ae9f4d8dcfada29b,2021-10-27_11h08.55.327,arrow_simon_punish,2021.1.2,MacIntel,30.00120005,,,,,,,,,,,,,,p,1,1.4419,1.64313503,0,5,8,1,33,1,1,,,,,,,,,,,,,,
,,,,,,,,,,,right.png,,p,right,6168a697ae9f4d8dcfada29b,2021-10-27_11h08.55.327,arrow_simon_punish,2021.1.2,MacIntel,30.00120005,,,,,,,,,,,,,,p,1,1.574,2.246804394,0,5,8,2,34,1,1,,,,,,,,,,,,,,
,,,,,,,,,,,right.png,,p,left,6168a697ae9f4d8dcfada29b,2021-10-27_11h08.55.327,arrow_simon_punish,2021.1.2,MacIntel,30.00120005,,,,,,,,,,,,,,p,1,1.5241,1.975234038,0,5,8,3,35,0,1,,,,,,,,,,,,,,
,,,,,,,,,,,right.png,,p,left,6168a697ae9f4d8dcfada29b,2021-10-27_11h08.55.327,arrow_simon_punish,2021.1.2,MacIntel,30.00120005,,,,,,,,,,,,,,p,1,1.4909,2.056514112,0,5,9,0,36,0,1,,,,,,,,,,,,,,
,,,,,,,,,,,right.png,,p,left,6168a697ae9f4d8dcfada29b,2021-10-27_11h08.55.327,arrow_simon_punish,2021.1.2,MacIntel,30.00120005,,,,,,,,,,,,,,p,1,1.7568,2.471938409,1,5,9,1,37,0,1,,,,,,,,,,,,,,
,,,,,,,,,,,left.png,,w,left,6168a697ae9f4d8dcfada29b,2021-10-27_11h08.55.327,arrow_simon_punish,2021.1.2,MacIntel,30.00120005,,,,,,,,,,,,,,w,1,1.645,2.044902083,1,5,9,2,38,2,1,,,,,,,,,,,,,,
,,,,,,,,,,,left.png,,w,left,6168a697ae9f4d8dcfada29b,2021-10-27_11h08.55.327,arrow_simon_punish,2021.1.2,MacIntel,30.00120005,,,,,,,,,,,,,,w,1,1.7189,2.380888259,1,5,9,3,39,2,1,,,,,,,,,,,,,,
,,,,,,,,,,,left.png,,w,right,6168a697ae9f4d8dcfada29b,2021-10-27_11h08.55.327,arrow_simon_punish,2021.1.2,MacIntel,30.00120005,,,,,,,,,,,,,,w,1,1.8529,2.402605927,1,5,10,0,40,3,1,,,,,,,,,,,,,,
,,,,,,,,,,,right.png,,p,left,6168a697ae9f4d8dcfada29b,2021-10-27_11h08.55.327,arrow_simon_punish,2021.1.2,MacIntel,30.00120005,,,,,,,,,,,,,,p,1,1.7605,2.35584111,1,5,10,1,41,0,1,,,,,,,,,,,,,,
,,,,,,,,,,,left.png,,w,left,6168a697ae9f4d8dcfada29b,2021-10-27_11h08.55.327,arrow_simon_punish,2021.1.2,MacIntel,30.00120005,,,,,,,,,,,,,,w,1,1.4718,1.654358569,0,5,10,2,42,2,1,,,,,,,,,,,,,,
,,,,,,,,,,,left.png,,w,right,6168a697ae9f4d8dcfada29b,2021-10-27_11h08.55.327,arrow_simon_punish,2021.1.2,MacIntel,30.00120005,,,,,,,,,,,,,,w,1,1.423,1.657091156,0,5,10,3,43,3,1,,,,,,,,,,,,,,
,,,,,,,,,,,right.png,,p,left,6168a697ae9f4d8dcfada29b,2021-10-27_11h08.55.327,arrow_simon_punish,2021.1.2,MacIntel,30.00120005,,,,,,,,,,,,,,w,0,1.7341,2.455866921,1,5,11,0,44,0,1,,,,,,,,,,,,,,
,,,,,,,,,,,left.png,,w,left,6168a697ae9f4d8dcfada29b,2021-10-27_11h08.55.327,arrow_simon_punish,2021.1.2,MacIntel,30.00120005,,,,,,,,,,,,,,w,1,1.7441,2.32916952,1,5,11,1,45,2,1,,,,,,,,,,,,,,
,,,,,,,,,,,left.png,,w,right,6168a697ae9f4d8dcfada29b,2021-10-27_11h08.55.327,arrow_simon_punish,2021.1.2,MacIntel,30.00120005,,,,,,,,,,,,,,w,1,1.4911,1.609762108,0,5,11,2,46,3,1,,,,,,,,,,,,,,
,,,,,,,,,,,right.png,,p,left,6168a697ae9f4d8dcfada29b,2021-10-27_11h08.55.327,arrow_simon_punish,2021.1.2,MacIntel,30.00120005,,,,,,,,,,,,,,p,1,1.394,1.526728316,1,5,11,3,47,0,1,,,,,,,,,,,,,,
,,,,,,,,,,,right.png,,p,right,6168a697ae9f4d8dcfada29b,2021-10-27_11h08.55.327,arrow_simon_punish,2021.1.2,MacIntel,30.00120005,,,,,,,,,,,,,,p,1,1.453,1.719575342,0,5,12,0,48,1,1,,,,,,,,,,,,,,
,,,,,,,,,,,right.png,,p,left,6168a697ae9f4d8dcfada29b,2021-10-27_11h08.55.327,arrow_simon_punish,2021.1.2,MacIntel,30.00120005,,,,,,,,,,,,,,p,1,1.3985,1.548945263,1,5,12,1,49,0,1,,,,,,,,,,,,,,
,,,,,,,,,,,left.png,,w,right,6168a697ae9f4d8dcfada29b,2021-10-27_11h08.55.327,arrow_simon_punish,2021.1.2,MacIntel,30.00120005,,,,,,,,,,,,,,w,1,1.7866,2.450461281,1,5,12,2,50,3,1,,,,,,,,,,,,,,
,,,,,,,,,,,right.png,,p,left,6168a697ae9f4d8dcfada29b,2021-10-27_11h08.55.327,arrow_simon_punish,2021.1.2,MacIntel,30.00120005,,,,,,,,,,,,,,p,1,1.531,1.706445109,0,5,12,3,51,0,1,,,,,,,,,,,,,,
,,,,,,,,,,,left.png,,w,right,6168a697ae9f4d8dcfada29b,2021-10-27_11h08.55.327,arrow_simon_punish,2021.1.2,MacIntel,30.00120005,,,,,,,,,,,,,,w,1,1.6285,1.675258769,1,5,13,0,52,3,1,,,,,,,,,,,,,,
,,,,,,,,,,,right.png,,p,left,6168a697ae9f4d8dcfada29b,2021-10-27_11h08.55.327,arrow_simon_punish,2021.1.2,MacIntel,30.00120005,,,,,,,,,,,,,,p,1,1.7871,2.441636258,1,5,13,1,53,0,1,,,,,,,,,,,,,,
,,,,,,,,,,,right.png,,p,right,6168a697ae9f4d8dcfada29b,2021-10-27_11h08.55.327,arrow_simon_punish,2021.1.2,MacIntel,30.00120005,,,,,,,,,,,,,,p,1,1.65,1.950869338,1,5,13,2,54,1,1,,,,,,,,,,,,,,
,,,,,,,,,,,left.png,,w,left,6168a697ae9f4d8dcfada29b,2021-10-27_11h08.55.327,arrow_simon_punish,2021.1.2,MacIntel,30.00120005,,,,,,,,,,,,,,w,1,1.8394,2.150458002,1,5,13,3,55,2,1,,,,,,,,,,,,,,
,,,,,,,,,,,right.png,,p,right,6168a697ae9f4d8dcfada29b,2021-10-27_11h08.55.327,arrow_simon_punish,2021.1.2,MacIntel,30.00120005,,,,,,,,,,,,,,p,1,1.4934,2.082767296,0,5,14,0,56,1,1,,,,,,,,,,,,,,
,,,,,,,,,,,left.png,,w,right,6168a697ae9f4d8dcfada29b,2021-10-27_11h08.55.327,arrow_simon_punish,2021.1.2,MacIntel,30.00120005,,,,,,,,,,,,,,w,1,1.7366,2.278639712,1,5,14,1,57,3,1,,,,,,,,,,,,,,
,,,,,,,,,,,right.png,,p,right,6168a697ae9f4d8dcfada29b,2021-10-27_11h08.55.327,arrow_simon_punish,2021.1.2,MacIntel,30.00120005,,,,,,,,,,,,,,p,1,1.6402,2.222187822,1,5,14,2,58,1,1,,,,,,,,,,,,,,
,,,,,,,,,,,left.png,,w,right,6168a697ae9f4d8dcfada29b,2021-10-27_11h08.55.327,arrow_simon_punish,2021.1.2,MacIntel,30.00120005,,,,,,,,,,,,,,w,1,1.7194,2.210288045,1,5,14,3,59,3,1,,,,,,,,,,,,,,
,,,,,,,,,,,,,,,6168a697ae9f4d8dcfada29b,2021-10-27_11h08.55.327,arrow_simon_punish,2021.1.2,MacIntel,30.00120005,,,,,,,,,,,,,,,,,,,,,,,,,space,7.4592,3,0,1,1,1,1,5,,,,,
,,,,,,,,,,,left.png,,w,left,6168a697ae9f4d8dcfada29b,2021-10-27_11h08.55.327,arrow_simon_punish,2021.1.2,MacIntel,30.00120005,,,,,,,,,,,,,,w,1,1.1846,1.756722346,1,1,0,0,0,2,1,,,,,,,,,,,,,,
,,,,,,,,,,,left.png,,w,right,6168a697ae9f4d8dcfada29b,2021-10-27_11h08.55.327,arrow_simon_punish,2021.1.2,MacIntel,30.00120005,,,,,,,,,,,,,,p,0,1.471,2.119407875,1,1,0,1,1,3,1,,,,,,,,,,,,,,
,,,,,,,,,,,left.png,,w,right,6168a697ae9f4d8dcfada29b,2021-10-27_11h08.55.327,arrow_simon_punish,2021.1.2,MacIntel,30.00120005,,,,,,,,,,,,,,w,1,1.4535,2.02310398,0,1,0,2,2,3,1,,,,,,,,,,,,,,
,,,,,,,,,,,left.png,,w,right,6168a697ae9f4d8dcfada29b,2021-10-27_11h08.55.327,arrow_simon_punish,2021.1.2,MacIntel,30.00120005,,,,,,,,,,,,,,w,1,1.6765,2.455173085,1,1,0,3,3,3,1,,,,,,,,,,,,,,
,,,,,,,,,,,right.png,,p,left,6168a697ae9f4d8dcfada29b,2021-10-27_11h08.55.327,arrow_simon_punish,2021.1.2,MacIntel,30.00120005,,,,,,,,,,,,,,p,1,1.3761,1.92199285,1,1,1,0,4,0,1,,,,,,,,,,,,,,
,,,,,,,,,,,right.png,,p,left,6168a697ae9f4d8dcfada29b,2021-10-27_11h08.55.327,arrow_simon_punish,2021.1.2,MacIntel,30.00120005,,,,,,,,,,,,,,w,0,1.5593,2.191687045,1,1,1,1,5,0,1,,,,,,,,,,,,,,
,,,,,,,,,,,left.png,,w,left,6168a697ae9f4d8dcfada29b,2021-10-27_11h08.55.327,arrow_simon_punish,2021.1.2,MacIntel,30.00120005,,,,,,,,,,,,,,w,1,1.8489,2.463477762,1,1,1,2,6,2,1,,,,,,,,,,,,,,
,,,,,,,,,,,left.png,,w,right,6168a697ae9f4d8dcfada29b,2021-10-27_11h08.55.327,arrow_simon_punish,2021.1.2,MacIntel,30.00120005,,,,,,,,,,,,,,p,0,1.6939,2.403195184,1,1,1,3,7,3,1,,,,,,,,,,,,,,
,,,,,,,,,,,right.png,,p,right,6168a697ae9f4d8dcfada29b,2021-10-27_11h08.55.327,arrow_simon_punish,2021.1.2,MacIntel,30.00120005,,,,,,,,,,,,,,p,1,1.6712,2.311168339,1,1,2,0,8,1,1,,,,,,,,,,,,,,
,,,,,,,,,,,right.png,,p,left,6168a697ae9f4d8dcfada29b,2021-10-27_11h08.55.327,arrow_simon_punish,2021.1.2,MacIntel,30.00120005,,,,,,,,,,,,,,w,0,1.5282,2.183078675,1,1,2,1,9,0,1,,,,,,,,,,,,,,
,,,,,,,,,,,left.png,,w,right,6168a697ae9f4d8dcfada29b,2021-10-27_11h08.55.327,arrow_simon_punish,2021.1.2,MacIntel,30.00120005,,,,,,,,,,,,,,w,1,1.2,1.527417446,1,1,2,2,10,3,1,,,,,,,,,,,,,,
,,,,,,,,,,,right.png,,p,right,6168a697ae9f4d8dcfada29b,2021-10-27_11h08.55.327,arrow_simon_punish,2021.1.2,MacIntel,30.00120005,,,,,,,,,,,,,,p,1,1.3014,1.878966117,1,1,2,3,11,1,1,,,,,,,,,,,,,,
,,,,,,,,,,,left.png,,w,right,6168a697ae9f4d8dcfada29b,2021-10-27_11h08.55.327,arrow_simon_punish,2021.1.2,MacIntel,30.00120005,,,,,,,,,,,,,,p,0,1.7561,2.40904798,1,1,3,0,12,3,1,,,,,,,,,,,,,,
,,,,,,,,,,,right.png,,p,left,6168a697ae9f4d8dcfada29b,2021-10-27_11h08.55.327,arrow_simon_punish,2021.1.2,MacIntel,30.00120005,,,,,,,,,,,,,,p,1,1.5467,1.977124017,0,1,3,1,13,0,1,,,,,,,,,,,,,,
,,,,,,,,,,,left.png,,w,left,6168a697ae9f4d8dcfada29b,2021-10-27_11h08.55.327,arrow_simon_punish,2021.1.2,MacIntel,30.00120005,,,,,,,,,,,,,,p,0,1.7352,2.289696667,1,1,3,2,14,2,1,,,,,,,,,,,,,,
,,,,,,,,,,,left.png,,w,left,6168a697ae9f4d8dcfada29b,2021-10-27_11h08.55.327,arrow_simon_punish,2021.1.2,MacIntel,30.00120005,,,,,,,,,,,,,,w,1,1.4273,1.858612375,0,1,3,3,15,2,1,,,,,,,,,,,,,,
,,,,,,,,,,,left.png,,w,left,6168a697ae9f4d8dcfada29b,2021-10-27_11h08.55.327,arrow_simon_punish,2021.1.2,MacIntel,30.00120005,,,,,,,,,,,,,,w,1,1.8727,2.460282248,1,1,4,0,16,2,1,,,,,,,,,,,,,,
,,,,,,,,,,,right.png,,p,right,6168a697ae9f4d8dcfada29b,2021-10-27_11h08.55.327,arrow_simon_punish,2021.1.2,MacIntel,30.00120005,,,,,,,,,,,,,,p,1,1.2583,1.790250259,1,1,4,1,17,1,1,,,,,,,,,,,,,,
,,,,,,,,,,,right.png,,p,right,6168a697ae9f4d8dcfada29b,2021-10-27_11h08.55.327,arrow_simon_punish,2021.1.2,MacIntel,30.00120005,,,,,,,,,,,,,,p,1,1.5398,2.034548255,0,1,4,2,18,1,1,,,,,,,,,,,,,,
,,,,,,,,,,,left.png,,w,left,6168a697ae9f4d8dcfada29b,2021-10-27_11h08.55.327,arrow_simon_punish,2021.1.2,MacIntel,30.00120005,,,,,,,,,,,,,,w,1,1.492,1.811487005,0,1,4,3,19,2,1,,,,,,,,,,,,,,
,,,,,,,,,,,left.png,,w,right,6168a697ae9f4d8dcfada29b,2021-10-27_11h08.55.327,arrow_simon_punish,2021.1.2,MacIntel,30.00120005,,,,,,,,,,,,,,w,1,1.1247,1.621391472,1,1,5,0,20,3,1,,,,,,,,,,,,,,
,,,,,,,,,,,left.png,,w,right,6168a697ae9f4d8dcfada29b,2021-10-27_11h08.55.327,arrow_simon_punish,2021.1.2,MacIntel,30.00120005,,,,,,,,,,,,,,w,1,1.5656,1.972331037,0,1,5,1,21,3,1,,,,,,,,,,,,,,
,,,,,,,,,,,right.png,,p,left,6168a697ae9f4d8dcfada29b,2021-10-27_11h08.55.327,arrow_simon_punish,2021.1.2,MacIntel,30.00120005,,,,,,,,,,,,,,p,1,1.5308,2.054722838,0,1,5,2,22,0,1,,,,,,,,,,,,,,
,,,,,,,,,,,left.png,,w,right,6168a697ae9f4d8dcfada29b,2021-10-27_11h08.55.327,arrow_simon_punish,2021.1.2,MacIntel,30.00120005,,,,,,,,,,,,,,w,1,1.542,1.756139315,0,1,5,3,23,3,1,,,,,,,,,,,,,,
,,,,,,,,,,,right.png,,p,left,6168a697ae9f4d8dcfada29b,2021-10-27_11h08.55.327,arrow_simon_punish,2021.1.2,MacIntel,30.00120005,,,,,,,,,,,,,,w,0,1.1728,1.711669724,1,1,6,0,24,0,1,,,,,,,,,,,,,,
,,,,,,,,,,,left.png,,w,right,6168a697ae9f4d8dcfada29b,2021-10-27_11h08.55.327,arrow_simon_punish,2021.1.2,MacIntel,30.00120005,,,,,,,,,,,,,,w,1,1.3871,1.501620506,1,1,6,1,25,3,1,,,,,,,,,,,,,,
,,,,,,,,,,,right.png,,p,left,6168a697ae9f4d8dcfada29b,2021-10-27_11h08.55.327,arrow_simon_punish,2021.1.2,MacIntel,30.00120005,,,,,,,,,,,,,,p,1,1.6031,2.205237902,1,1,6,2,26,0,1,,,,,,,,,,,,,,
,,,,,,,,,,,left.png,,w,right,6168a697ae9f4d8dcfada29b,2021-10-27_11h08.55.327,arrow_simon_punish,2021.1.2,MacIntel,30.00120005,,,,,,,,,,,,,,w,1,1.6522,2.120619328,1,1,6,3,27,3,1,,,,,,,,,,,,,,
,,,,,,,,,,,left.png,,w,left,6168a697ae9f4d8dcfada29b,2021-10-27_11h08.55.327,arrow_simon_punish,2021.1.2,MacIntel,30.00120005,,,,,,,,,,,,,,w,1,1.6149,2.238308079,1,1,7,0,28,2,1,,,,,,,,,,,,,,
,,,,,,,,,,,left.png,,w,left,6168a697ae9f4d8dcfada29b,2021-10-27_11h08.55.327,arrow_simon_punish,2021.1.2,MacIntel,30.00120005,,,,,,,,,,,,,,w,1,1.2155,1.59874678,1,1,7,1,29,2,1,,,,,,,,,,,,,,
,,,,,,,,,,,right.png,,p,left,6168a697ae9f4d8dcfada29b,2021-10-27_11h08.55.327,arrow_simon_punish,2021.1.2,MacIntel,30.00120005,,,,,,,,,,,,,,p,1,1.5718,1.877391674,0,1,7,2,30,0,1,,,,,,,,,,,,,,
,,,,,,,,,,,left.png,,w,left,6168a697ae9f4d8dcfada29b,2021-10-27_11h08.55.327,arrow_simon_punish,2021.1.2,MacIntel,30.00120005,,,,,,,,,,,,,,w,1,1.5907,1.93827457,0,1,7,3,31,2,1,,,,,,,,,,,,,,
,,,,,,,,,,,right.png,,p,right,6168a697ae9f4d8dcfada29b,2021-10-27_11h08.55.327,arrow_simon_punish,2021.1.2,MacIntel,30.00120005,,,,,,,,,,,,,,p,1,1.6368,2.21400556,1,1,8,0,32,1,1,,,,,,,,,,,,,,
,,,,,,,,,,,left.png,,w,right,6168a697ae9f4d8dcfada29b,2021-10-27_11h08.55.327,arrow_simon_punish,2021.1.2,MacIntel,30.00120005,,,,,,,,,,,,,,w,1,1.3752,1.579121467,1,1,8,1,33,3,1,,,,,,,,,,,,,,
,,,,,,,,,,,right.png,,p,right,6168a697ae9f4d8dcfada29b,2021-10-27_11h08.55.327,arrow_simon_punish,2021.1.2,MacIntel,30.00120005,,,,,,,,,,,,,,p,1,1.5552,1.712958793,0,1,8,2,34,1,1,,,,,,,,,,,,,,
,,,,,,,,,,,right.png,,p,right,6168a697ae9f4d8dcfada29b,2021-10-27_11h08.55.327,arrow_simon_punish,2021.1.2,MacIntel,30.00120005,,,,,,,,,,,,,,p,1,1.4994,2.070671055,0,1,8,3,35,1,1,,,,,,,,,,,,,,
,,,,,,,,,,,left.png,,w,left,6168a697ae9f4d8dcfada29b,2021-10-27_11h08.55.327,arrow_simon_punish,2021.1.2,MacIntel,30.00120005,,,,,,,,,,,,,,w,1,1.7664,1.947172728,1,1,9,0,36,2,1,,,,,,,,,,,,,,
,,,,,,,,,,,right.png,,p,right,6168a697ae9f4d8dcfada29b,2021-10-27_11h08.55.327,arrow_simon_punish,2021.1.2,MacIntel,30.00120005,,,,,,,,,,,,,,p,1,1.4961,2.025702965,0,1,9,1,37,1,1,,,,,,,,,,,,,,
,,,,,,,,,,,right.png,,p,left,6168a697ae9f4d8dcfada29b,2021-10-27_11h08.55.327,arrow_simon_punish,2021.1.2,MacIntel,30.00120005,,,,,,,,,,,,,,w,0,1.2371,1.863068124,1,1,9,2,38,0,1,,,,,,,,,,,,,,
,,,,,,,,,,,left.png,,w,left,6168a697ae9f4d8dcfada29b,2021-10-27_11h08.55.327,arrow_simon_punish,2021.1.2,MacIntel,30.00120005,,,,,,,,,,,,,,w,1,1.7931,2.406289044,1,1,9,3,39,2,1,,,,,,,,,,,,,,
,,,,,,,,,,,right.png,,p,right,6168a697ae9f4d8dcfada29b,2021-10-27_11h08.55.327,arrow_simon_punish,2021.1.2,MacIntel,30.00120005,,,,,,,,,,,,,,p,1,1.2782,1.783759266,1,1,10,0,40,1,1,,,,,,,,,,,,,,
,,,,,,,,,,,left.png,,w,left,6168a697ae9f4d8dcfada29b,2021-10-27_11h08.55.327,arrow_simon_punish,2021.1.2,MacIntel,30.00120005,,,,,,,,,,,,,,w,1,1.4635,1.845841263,0,1,10,1,41,2,1,,,,,,,,,,,,,,
,,,,,,,,,,,right.png,,p,left,6168a697ae9f4d8dcfada29b,2021-10-27_11h08.55.327,arrow_simon_punish,2021.1.2,MacIntel,30.00120005,,,,,,,,,,,,,,p,1,1.3865,1.764880532,1,1,10,2,42,0,1,,,,,,,,,,,,,,
,,,,,,,,,,,right.png,,p,left,6168a697ae9f4d8dcfada29b,2021-10-27_11h08.55.327,arrow_simon_punish,2021.1.2,MacIntel,30.00120005,,,,,,,,,,,,,,p,1,1.5922,1.985821422,0,1,10,3,43,0,1,,,,,,,,,,,,,,
,,,,,,,,,,,left.png,,w,left,6168a697ae9f4d8dcfada29b,2021-10-27_11h08.55.327,arrow_simon_punish,2021.1.2,MacIntel,30.00120005,,,,,,,,,,,,,,w,1,1.833,2.403197202,1,1,11,0,44,2,1,,,,,,,,,,,,,,
,,,,,,,,,,,left.png,,w,left,6168a697ae9f4d8dcfada29b,2021-10-27_11h08.55.327,arrow_simon_punish,2021.1.2,MacIntel,30.00120005,,,,,,,,,,,,,,w,1,1.2575,1.568322398,1,1,11,1,45,2,1,,,,,,,,,,,,,,
,,,,,,,,,,,left.png,,w,left,6168a697ae9f4d8dcfada29b,2021-10-27_11h08.55.327,arrow_simon_punish,2021.1.2,MacIntel,30.00120005,,,,,,,,,,,,,,w,1,1.4841,1.862520139,0,1,11,2,46,2,1,,,,,,,,,,,,,,
,,,,,,,,,,,right.png,,p,right,6168a697ae9f4d8dcfada29b,2021-10-27_11h08.55.327,arrow_simon_punish,2021.1.2,MacIntel,30.00120005,,,,,,,,,,,,,,p,1,1.4335,1.712565058,0,1,11,3,47,1,1,,,,,,,,,,,,,,
,,,,,,,,,,,right.png,,p,right,6168a697ae9f4d8dcfada29b,2021-10-27_11h08.55.327,arrow_simon_punish,2021.1.2,MacIntel,30.00120005,,,,,,,,,,,,,,p,1,1.6858,2.297113655,1,1,12,0,48,1,1,,,,,,,,,,,,,,
,,,,,,,,,,,right.png,,p,left,6168a697ae9f4d8dcfada29b,2021-10-27_11h08.55.327,arrow_simon_punish,2021.1.2,MacIntel,30.00120005,,,,,,,,,,,,,,p,1,1.3832,1.857284597,1,1,12,1,49,0,1,,,,,,,,,,,,,,
,,,,,,,,,,,right.png,,p,right,6168a697ae9f4d8dcfada29b,2021-10-27_11h08.55.327,arrow_simon_punish,2021.1.2,MacIntel,30.00120005,,,,,,,,,,,,,,p,1,1.6886,2.327691582,1,1,12,2,50,1,1,,,,,,,,,,,,,,
,,,,,,,,,,,right.png,,p,left,6168a697ae9f4d8dcfada29b,2021-10-27_11h08.55.327,arrow_simon_punish,2021.1.2,MacIntel,30.00120005,,,,,,,,,,,,,,p,1,1.3889,1.9722194,1,1,12,3,51,0,1,,,,,,,,,,,,,,
,,,,,,,,,,,right.png,,p,right,6168a697ae9f4d8dcfada29b,2021-10-27_11h08.55.327,arrow_simon_punish,2021.1.2,MacIntel,30.00120005,,,,,,,,,,,,,,p,1,1.7439,2.400972249,1,1,13,0,52,1,1,,,,,,,,,,,,,,
,,,,,,,,,,,left.png,,w,right,6168a697ae9f4d8dcfada29b,2021-10-27_11h08.55.327,arrow_simon_punish,2021.1.2,MacIntel,30.00120005,,,,,,,,,,,,,,p,0,1.8025,2.412763753,1,1,13,1,53,3,1,,,,,,,,,,,,,,
,,,,,,,,,,,left.png,,w,right,6168a697ae9f4d8dcfada29b,2021-10-27_11h08.55.327,arrow_simon_punish,2021.1.2,MacIntel,30.00120005,,,,,,,,,,,,,,w,1,1.3908,1.804523743,1,1,13,2,54,3,1,,,,,,,,,,,,,,
,,,,,,,,,,,right.png,,p,right,6168a697ae9f4d8dcfada29b,2021-10-27_11h08.55.327,arrow_simon_punish,2021.1.2,MacIntel,30.00120005,,,,,,,,,,,,,,p,1,1.4807,1.855669903,0,1,13,3,55,1,1,,,,,,,,,,,,,,
,,,,,,,,,,,right.png,,p,right,6168a697ae9f4d8dcfada29b,2021-10-27_11h08.55.327,arrow_simon_punish,2021.1.2,MacIntel,30.00120005,,,,,,,,,,,,,,p,1,1.0941,1.668646301,1,1,14,0,56,1,1,,,,,,,,,,,,,,
,,,,,,,,,,,left.png,,w,right,6168a697ae9f4d8dcfada29b,2021-10-27_11h08.55.327,arrow_simon_punish,2021.1.2,MacIntel,30.00120005,,,,,,,,,,,,,,w,1,1.9563,2.429659794,1,1,14,1,57,3,1,,,,,,,,,,,,,,
,,,,,,,,,,,right.png,,p,left,6168a697ae9f4d8dcfada29b,2021-10-27_11h08.55.327,arrow_simon_punish,2021.1.2,MacIntel,30.00120005,,,,,,,,,,,,,,p,1,1.6407,2.160438367,1,1,14,2,58,0,1,,,,,,,,,,,,,,
,,,,,,,,,,,right.png,,p,left,6168a697ae9f4d8dcfada29b,2021-10-27_11h08.55.327,arrow_simon_punish,2021.1.2,MacIntel,30.00120005,,,,,,,,,,,,,,p,1,1.2939,1.509193548,1,1,14,3,59,0,1,,,,,,,,,,,,,,
,,,,,,,,,,,,,,,6168a697ae9f4d8dcfada29b,2021-10-27_11h08.55.327,arrow_simon_punish,2021.1.2,MacIntel,30.00120005,,,,,,,,,,,,,,,,,,,,,,,,,space,8.9115,4,1,0,2,0,1,1,,,,,
,,,,,,,,,,,right.png,,p,right,6168a697ae9f4d8dcfada29b,2021-10-27_11h08.55.327,arrow_simon_punish,2021.1.2,MacIntel,30.00120005,,,,,,,,,,,,,,p,1,1.197,1.683769938,1,5,0,0,0,1,1,,,,,,,,,,,,,,
,,,,,,,,,,,right.png,,p,left,6168a697ae9f4d8dcfada29b,2021-10-27_11h08.55.327,arrow_simon_punish,2021.1.2,MacIntel,30.00120005,,,,,,,,,,,,,,p,1,1.536,1.830565325,0,5,0,1,1,0,1,,,,,,,,,,,,,,
,,,,,,,,,,,left.png,,w,right,6168a697ae9f4d8dcfada29b,2021-10-27_11h08.55.327,arrow_simon_punish,2021.1.2,MacIntel,30.00120005,,,,,,,,,,,,,,w,1,1.5541,2.008770896,0,5,0,2,2,3,1,,,,,,,,,,,,,,
,,,,,,,,,,,left.png,,w,right,6168a697ae9f4d8dcfada29b,2021-10-27_11h08.55.327,arrow_simon_punish,2021.1.2,MacIntel,30.00120005,,,,,,,,,,,,,,w,1,1.4401,1.503036095,0,5,0,3,3,3,1,,,,,,,,,,,,,,
,,,,,,,,,,,right.png,,p,left,6168a697ae9f4d8dcfada29b,2021-10-27_11h08.55.327,arrow_simon_punish,2021.1.2,MacIntel,30.00120005,,,,,,,,,,,,,,p,1,1.5526,1.913455735,0,5,1,0,4,0,1,,,,,,,,,,,,,,
,,,,,,,,,,,right.png,,p,right,6168a697ae9f4d8dcfada29b,2021-10-27_11h08.55.327,arrow_simon_punish,2021.1.2,MacIntel,30.00120005,,,,,,,,,,,,,,p,1,1.4911,1.556123721,0,5,1,1,5,1,1,,,,,,,,,,,,,,
,,,,,,,,,,,left.png,,w,left,6168a697ae9f4d8dcfada29b,2021-10-27_11h08.55.327,arrow_simon_punish,2021.1.2,MacIntel,30.00120005,,,,,,,,,,,,,,w,1,1.4523,1.599201096,0,5,1,2,6,2,1,,,,,,,,,,,,,,
,,,,,,,,,,,right.png,,p,right,6168a697ae9f4d8dcfada29b,2021-10-27_11h08.55.327,arrow_simon_punish,2021.1.2,MacIntel,30.00120005,,,,,,,,,,,,,,p,1,1.5237,1.608228557,0,5,1,3,7,1,1,,,,,,,,,,,,,,
,,,,,,,,,,,left.png,,w,left,6168a697ae9f4d8dcfada29b,2021-10-27_11h08.55.327,arrow_simon_punish,2021.1.2,MacIntel,30.00120005,,,,,,,,,,,,,,w,1,1.4835,1.652107841,0,5,2,0,8,2,1,,,,,,,,,,,,,,
,,,,,,,,,,,right.png,,p,left,6168a697ae9f4d8dcfada29b,2021-10-27_11h08.55.327,arrow_simon_punish,2021.1.2,MacIntel,30.00120005,,,,,,,,,,,,,,p,1,1.6807,2.102486474,1,5,2,1,9,0,1,,,,,,,,,,,,,,
,,,,,,,,,,,right.png,,p,right,6168a697ae9f4d8dcfada29b,2021-10-27_11h08.55.327,arrow_simon_punish,2021.1.2,MacIntel,30.00120005,,,,,,,,,,,,,,p,1,1.64,2.179303457,1,5,2,2,10,1,1,,,,,,,,,,,,,,
,,,,,,,,,,,left.png,,w,right,6168a697ae9f4d8dcfada29b,2021-10-27_11h08.55.327,arrow_simon_punish,2021.1.2,MacIntel,30.00120005,,,,,,,,,,,,,,w,1,1.5016,1.77493377,0,5,2,3,11,3,1,,,,,,,,,,,,,,
,,,,,,,,,,,left.png,,w,right,6168a697ae9f4d8dcfada29b,2021-10-27_11h08.55.327,arrow_simon_punish,2021.1.2,MacIntel,30.00120005,,,,,,,,,,,,,,w,1,1.4799,1.608820931,0,5,3,0,12,3,1,,,,,,,,,,,,,,
,,,,,,,,,,,left.png,,w,left,6168a697ae9f4d8dcfada29b,2021-10-27_11h08.55.327,arrow_simon_punish,2021.1.2,MacIntel,30.00120005,,,,,,,,,,,,,,w,1,1.5209,1.706584785,0,5,3,1,13,2,1,,,,,,,,,,,,,,
,,,,,,,,,,,left.png,,w,left,6168a697ae9f4d8dcfada29b,2021-10-27_11h08.55.327,arrow_simon_punish,2021.1.2,MacIntel,30.00120005,,,,,,,,,,,,,,w,1,1.5809,1.595269271,0,5,3,2,14,2,1,,,,,,,,,,,,,,
,,,,,,,,,,,right.png,,p,left,6168a697ae9f4d8dcfada29b,2021-10-27_11h08.55.327,arrow_simon_punish,2021.1.2,MacIntel,30.00120005,,,,,,,,,,,,,,p,1,1.6848,2.266648998,1,5,3,3,15,0,1,,,,,,,,,,,,,,
,,,,,,,,,,,right.png,,p,left,6168a697ae9f4d8dcfada29b,2021-10-27_11h08.55.327,arrow_simon_punish,2021.1.2,MacIntel,30.00120005,,,,,,,,,,,,,,w,0,1.6637,2.257447881,1,5,4,0,16,0,1,,,,,,,,,,,,,,
,,,,,,,,,,,left.png,,w,right,6168a697ae9f4d8dcfada29b,2021-10-27_11h08.55.327,arrow_simon_punish,2021.1.2,MacIntel,30.00120005,,,,,,,,,,,,,,w,1,1.6697,1.910377687,1,5,4,1,17,3,1,,,,,,,,,,,,,,
,,,,,,,,,,,left.png,,w,right,6168a697ae9f4d8dcfada29b,2021-10-27_11h08.55.327,arrow_simon_punish,2021.1.2,MacIntel,30.00120005,,,,,,,,,,,,,,w,1,1.5199,1.533949675,0,5,4,2,18,3,1,,,,,,,,,,,,,,
,,,,,,,,,,,left.png,,w,right,6168a697ae9f4d8dcfada29b,2021-10-27_11h08.55.327,arrow_simon_punish,2021.1.2,MacIntel,30.00120005,,,,,,,,,,,,,,w,1,1.6463,1.945336566,1,5,4,3,19,3,1,,,,,,,,,,,,,,
,,,,,,,,,,,right.png,,p,right,6168a697ae9f4d8dcfada29b,2021-10-27_11h08.55.327,arrow_simon_punish,2021.1.2,MacIntel,30.00120005,,,,,,,,,,,,,,w,0,1.6256,2.233010716,1,5,5,0,20,1,1,,,,,,,,,,,,,,
,,,,,,,,,,,right.png,,p,left,6168a697ae9f4d8dcfada29b,2021-10-27_11h08.55.327,arrow_simon_punish,2021.1.2,MacIntel,30.00120005,,,,,,,,,,,,,,p,1,1.5799,2.170230025,0,5,5,1,21,0,1,,,,,,,,,,,,,,
,,,,,,,,,,,left.png,,w,right,6168a697ae9f4d8dcfada29b,2021-10-27_11h08.55.327,arrow_simon_punish,2021.1.2,MacIntel,30.00120005,,,,,,,,,,,,,,w,1,1.2475,1.64183314,1,5,5,2,22,3,1,,,,,,,,,,,,,,
,,,,,,,,,,,right.png,,p,left,6168a697ae9f4d8dcfada29b,2021-10-27_11h08.55.327,arrow_simon_punish,2021.1.2,MacIntel,30.00120005,,,,,,,,,,,,,,p,1,1.6254,2.145296452,1,5,5,3,23,0,1,,,,,,,,,,,,,,
,,,,,,,,,,,right.png,,p,right,6168a697ae9f4d8dcfada29b,2021-10-27_11h08.55.327,arrow_simon_punish,2021.1.2,MacIntel,30.00120005,,,,,,,,,,,,,,p,1,1.3501,1.837206672,1,5,6,0,24,1,1,,,,,,,,,,,,,,
,,,,,,,,,,,left.png,,w,right,6168a697ae9f4d8dcfada29b,2021-10-27_11h08.55.327,arrow_simon_punish,2021.1.2,MacIntel,30.00120005,,,,,,,,,,,,,,w,1,1.6194,1.953264653,1,5,6,1,25,3,1,,,,,,,,,,,,,,
,,,,,,,,,,,right.png,,p,right,6168a697ae9f4d8dcfada29b,2021-10-27_11h08.55.327,arrow_simon_punish,2021.1.2,MacIntel,30.00120005,,,,,,,,,,,,,,p,1,1.3828,1.591769709,1,5,6,2,26,1,1,,,,,,,,,,,,,,
,,,,,,,,,,,left.png,,w,left,6168a697ae9f4d8dcfada29b,2021-10-27_11h08.55.327,arrow_simon_punish,2021.1.2,MacIntel,30.00120005,,,,,,,,,,,,,,w,1,1.4366,1.994308856,0,5,6,3,27,2,1,,,,,,,,,,,,,,
,,,,,,,,,,,right.png,,p,right,6168a697ae9f4d8dcfada29b,2021-10-27_11h08.55.327,arrow_simon_punish,2021.1.2,MacIntel,30.00120005,,,,,,,,,,,,,,p,1,1.469,2.086650522,0,5,7,0,28,1,1,,,,,,,,,,,,,,
,,,,,,,,,,,right.png,,p,right,6168a697ae9f4d8dcfada29b,2021-10-27_11h08.55.327,arrow_simon_punish,2021.1.2,MacIntel,30.00120005,,,,,,,,,,,,,,p,1,1.3465,1.671179468,1,5,7,1,29,1,1,,,,,,,,,,,,,,
,,,,,,,,,,,right.png,,p,left,6168a697ae9f4d8dcfada29b,2021-10-27_11h08.55.327,arrow_simon_punish,2021.1.2,MacIntel,30.00120005,,,,,,,,,,,,,,p,1,1.6014,1.712026728,1,5,7,2,30,0,1,,,,,,,,,,,,,,
,,,,,,,,,,,right.png,,p,left,6168a697ae9f4d8dcfada29b,2021-10-27_11h08.55.327,arrow_simon_punish,2021.1.2,MacIntel,30.00120005,,,,,,,,,,,,,,p,1,1.5159,1.902851804,0,5,7,3,31,0,1,,,,,,,,,,,,,,
,,,,,,,,,,,right.png,,p,right,6168a697ae9f4d8dcfada29b,2021-10-27_11h08.55.327,arrow_simon_punish,2021.1.2,MacIntel,30.00120005,,,,,,,,,,,,,,p,1,1.3906,1.98225458,1,5,8,0,32,1,1,,,,,,,,,,,,,,
,,,,,,,,,,,left.png,,w,right,6168a697ae9f4d8dcfada29b,2021-10-27_11h08.55.327,arrow_simon_punish,2021.1.2,MacIntel,30.00120005,,,,,,,,,,,,,,w,1,1.5877,1.987915322,0,5,8,1,33,3,1,,,,,,,,,,,,,,
,,,,,,,,,,,right.png,,p,right,6168a697ae9f4d8dcfada29b,2021-10-27_11h08.55.327,arrow_simon_punish,2021.1.2,MacIntel,30.00120005,,,,,,,,,,,,,,p,1,1.5455,2.146396399,0,5,8,2,34,1,1,,,,,,,,,,,,,,
,,,,,,,,,,,left.png,,w,right,6168a697ae9f4d8dcfada29b,2021-10-27_11h08.55.327,arrow_simon_punish,2021.1.2,MacIntel,30.00120005,,,,,,,,,,,,,,w,1,1.8077,2.365368998,1,5,8,3,35,3,1,,,,,,,,,,,,,,
,,,,,,,,,,,right.png,,p,left,6168a697ae9f4d8dcfada29b,2021-10-27_11h08.55.327,arrow_simon_punish,2021.1.2,MacIntel,30.00120005,,,,,,,,,,,,,,p,1,1.1924,1.780116487,1,5,9,0,36,0,1,,,,,,,,,,,,,,
,,,,,,,,,,,left.png,,w,left,6168a697ae9f4d8dcfada29b,2021-10-27_11h08.55.327,arrow_simon_punish,2021.1.2,MacIntel,30.00120005,,,,,,,,,,,,,,w,1,1.0793,1.605353362,1,5,9,1,37,2,1,,,,,,,,,,,,,,
,,,,,,,,,,,left.png,,w,left,6168a697ae9f4d8dcfada29b,2021-10-27_11h08.55.327,arrow_simon_punish,2021.1.2,MacIntel,30.00120005,,,,,,,,,,,,,,w,1,1.5657,2.121957783,0,5,9,2,38,2,1,,,,,,,,,,,,,,
,,,,,,,,,,,right.png,,p,right,6168a697ae9f4d8dcfada29b,2021-10-27_11h08.55.327,arrow_simon_punish,2021.1.2,MacIntel,30.00120005,,,,,,,,,,,,,,p,1,1.6122,1.946716654,1,5,9,3,39,1,1,,,,,,,,,,,,,,
,,,,,,,,,,,right.png,,p,left,6168a697ae9f4d8dcfada29b,2021-10-27_11h08.55.327,arrow_simon_punish,2021.1.2,MacIntel,30.00120005,,,,,,,,,,,,,,p,1,1.4141,1.577278391,0,5,10,0,40,0,1,,,,,,,,,,,,,,
,,,,,,,,,,,left.png,,w,right,6168a697ae9f4d8dcfada29b,2021-10-27_11h08.55.327,arrow_simon_punish,2021.1.2,MacIntel,30.00120005,,,,,,,,,,,,,,w,1,1.3105,1.699445629,1,5,10,1,41,3,1,,,,,,,,,,,,,,
,,,,,,,,,,,left.png,,w,left,6168a697ae9f4d8dcfada29b,2021-10-27_11h08.55.327,arrow_simon_punish,2021.1.2,MacIntel,30.00120005,,,,,,,,,,,,,,w,1,1.4672,2.079539797,0,5,10,2,42,2,1,,,,,,,,,,,,,,
,,,,,,,,,,,right.png,,p,right,6168a697ae9f4d8dcfada29b,2021-10-27_11h08.55.327,arrow_simon_punish,2021.1.2,MacIntel,30.00120005,,,,,,,,,,,,,,p,1,1.3488,1.506904135,1,5,10,3,43,1,1,,,,,,,,,,,,,,
,,,,,,,,,,,left.png,,w,left,6168a697ae9f4d8dcfada29b,2021-10-27_11h08.55.327,arrow_simon_punish,2021.1.2,MacIntel,30.00120005,,,,,,,,,,,,,,w,1,1.4608,1.898417699,0,5,11,0,44,2,1,,,,,,,,,,,,,,
,,,,,,,,,,,right.png,,p,left,6168a697ae9f4d8dcfada29b,2021-10-27_11h08.55.327,arrow_simon_punish,2021.1.2,MacIntel,30.00120005,,,,,,,,,,,,,,p,1,1.5594,1.828934744,0,5,11,1,45,0,1,,,,,,,,,,,,,,
,,,,,,,,,,,left.png,,w,left,6168a697ae9f4d8dcfada29b,2021-10-27_11h08.55.327,arrow_simon_punish,2021.1.2,MacIntel,30.00120005,,,,,,,,,,,,,,w,1,1.8986,2.283433669,1,5,11,2,46,2,1,,,,,,,,,,,,,,
,,,,,,,,,,,left.png,,w,left,6168a697ae9f4d8dcfada29b,2021-10-27_11h08.55.327,arrow_simon_punish,2021.1.2,MacIntel,30.00120005,,,,,,,,,,,,,,w,1,1.5282,2.132125031,0,5,11,3,47,2,1,,,,,,,,,,,,,,
,,,,,,,,,,,right.png,,p,right,6168a697ae9f4d8dcfada29b,2021-10-27_11h08.55.327,arrow_simon_punish,2021.1.2,MacIntel,30.00120005,,,,,,,,,,,,,,p,1,1.3078,1.649054618,1,5,12,0,48,1,1,,,,,,,,,,,,,,
,,,,,,,,,,,left.png,,w,right,6168a697ae9f4d8dcfada29b,2021-10-27_11h08.55.327,arrow_simon_punish,2021.1.2,MacIntel,30.00120005,,,,,,,,,,,,,,w,1,1.4209,1.976571559,0,5,12,1,49,3,1,,,,,,,,,,,,,,
,,,,,,,,,,,left.png,,w,right,6168a697ae9f4d8dcfada29b,2021-10-27_11h08.55.327,arrow_simon_punish,2021.1.2,MacIntel,30.00120005,,,,,,,,,,,,,,w,1,1.469,1.947918337,0,5,12,2,50,3,1,,,,,,,,,,,,,,
,,,,,,,,,,,left.png,,w,left,6168a697ae9f4d8dcfada29b,2021-10-27_11h08.55.327,arrow_simon_punish,2021.1.2,MacIntel,30.00120005,,,,,,,,,,,,,,p,0,1.9245,2.49835778,1,5,12,3,51,2,1,,,,,,,,,,,,,,
,,,,,,,,,,,left.png,,w,left,6168a697ae9f4d8dcfada29b,2021-10-27_11h08.55.327,arrow_simon_punish,2021.1.2,MacIntel,30.00120005,,,,,,,,,,,,,,w,1,1.8546,2.476571352,1,5,13,0,52,2,1,,,,,,,,,,,,,,
,,,,,,,,,,,left.png,,w,left,6168a697ae9f4d8dcfada29b,2021-10-27_11h08.55.327,arrow_simon_punish,2021.1.2,MacIntel,30.00120005,,,,,,,,,,,,,,w,1,1.3289,1.584194126,1,5,13,1,53,2,1,,,,,,,,,,,,,,
,,,,,,,,,,,right.png,,p,right,6168a697ae9f4d8dcfada29b,2021-10-27_11h08.55.327,arrow_simon_punish,2021.1.2,MacIntel,30.00120005,,,,,,,,,,,,,,p,1,1.8182,2.457035152,1,5,13,2,54,1,1,,,,,,,,,,,,,,
,,,,,,,,,,,right.png,,p,left,6168a697ae9f4d8dcfada29b,2021-10-27_11h08.55.327,arrow_simon_punish,2021.1.2,MacIntel,30.00120005,,,,,,,,,,,,,,p,1,1.6552,2.096288329,1,5,13,3,55,0,1,,,,,,,,,,,,,,
,,,,,,,,,,,left.png,,w,right,6168a697ae9f4d8dcfada29b,2021-10-27_11h08.55.327,arrow_simon_punish,2021.1.2,MacIntel,30.00120005,,,,,,,,,,,,,,w,1,1.4146,1.957619715,0,5,14,0,56,3,1,,,,,,,,,,,,,,
,,,,,,,,,,,right.png,,p,left,6168a697ae9f4d8dcfada29b,2021-10-27_11h08.55.327,arrow_simon_punish,2021.1.2,MacIntel,30.00120005,,,,,,,,,,,,,,p,1,1.5436,2.068007049,0,5,14,1,57,0,1,,,,,,,,,,,,,,
,,,,,,,,,,,left.png,,w,left,6168a697ae9f4d8dcfada29b,2021-10-27_11h08.55.327,arrow_simon_punish,2021.1.2,MacIntel,30.00120005,,,,,,,,,,,,,,w,1,1.3234,1.505230286,1,5,14,2,58,2,1,,,,,,,,,,,,,,
,,,,,,,,,,,right.png,,p,left,6168a697ae9f4d8dcfada29b,2021-10-27_11h08.55.327,arrow_simon_punish,2021.1.2,MacIntel,30.00120005,,,,,,,,,,,,,,p,1,1.2285,1.760400958,1,5,14,3,59,0,1,,,,,,,,,,,,,,
,,,,,,,,,,,,,,,6168a697ae9f4d8dcfada29b,2021-10-27_11h08.55.327,arrow_simon_punish,2021.1.2,MacIntel,30.00120005,,,,,,,,,,,,,,,,,,,,,,,,,space,9.7172,5,1,1,3,1,1,5,,,,,
,,,,,,,,,,,right.png,,p,left,6168a697ae9f4d8dcfada29b,2021-10-27_11h08.55.327,arrow_simon_punish,2021.1.2,MacIntel,30.00120005,,,,,,,,,,,,,,p,1,1.4908,2.022049038,0,1,0,0,0,0,1,,,,,,,,,,,,,,
,,,,,,,,,,,left.png,,w,left,6168a697ae9f4d8dcfada29b,2021-10-27_11h08.55.327,arrow_simon_punish,2021.1.2,MacIntel,30.00120005,,,,,,,,,,,,,,w,1,1.5213,2.118258716,0,1,0,1,1,2,1,,,,,,,,,,,,,,
,,,,,,,,,,,right.png,,p,left,6168a697ae9f4d8dcfada29b,2021-10-27_11h08.55.327,arrow_simon_punish,2021.1.2,MacIntel,30.00120005,,,,,,,,,,,,,,p,1,1.5312,2.055384735,0,1,0,2,2,0,1,,,,,,,,,,,,,,
,,,,,,,,,,,right.png,,p,right,6168a697ae9f4d8dcfada29b,2021-10-27_11h08.55.327,arrow_simon_punish,2021.1.2,MacIntel,30.00120005,,,,,,,,,,,,,,p,1,1.2043,1.806312015,1,1,0,3,3,1,1,,,,,,,,,,,,,,
,,,,,,,,,,,left.png,,w,right,6168a697ae9f4d8dcfada29b,2021-10-27_11h08.55.327,arrow_simon_punish,2021.1.2,MacIntel,30.00120005,,,,,,,,,,,,,,p,0,1.7819,2.384480388,1,1,1,0,4,3,1,,,,,,,,,,,,,,
,,,,,,,,,,,left.png,,w,right,6168a697ae9f4d8dcfada29b,2021-10-27_11h08.55.327,arrow_simon_punish,2021.1.2,MacIntel,30.00120005,,,,,,,,,,,,,,w,1,1.6698,2.205373213,1,1,1,1,5,3,1,,,,,,,,,,,,,,
,,,,,,,,,,,right.png,,p,left,6168a697ae9f4d8dcfada29b,2021-10-27_11h08.55.327,arrow_simon_punish,2021.1.2,MacIntel,30.00120005,,,,,,,,,,,,,,p,1,1.1846,1.52823936,1,1,1,2,6,0,1,,,,,,,,,,,,,,
,,,,,,,,,,,left.png,,w,left,6168a697ae9f4d8dcfada29b,2021-10-27_11h08.55.327,arrow_simon_punish,2021.1.2,MacIntel,30.00120005,,,,,,,,,,,,,,w,1,1.6724,2.302844841,1,1,1,3,7,2,1,,,,,,,,,,,,,,
,,,,,,,,,,,right.png,,p,right,6168a697ae9f4d8dcfada29b,2021-10-27_11h08.55.327,arrow_simon_punish,2021.1.2,MacIntel,30.00120005,,,,,,,,,,,,,,p,1,1.345,1.618895173,1,1,2,0,8,1,1,,,,,,,,,,,,,,
,,,,,,,,,,,right.png,,p,right,6168a697ae9f4d8dcfada29b,2021-10-27_11h08.55.327,arrow_simon_punish,2021.1.2,MacIntel,30.00120005,,,,,,,,,,,,,,p,1,1.5063,1.927483,0,1,2,1,9,1,1,,,,,,,,,,,,,,
,,,,,,,,,,,right.png,,p,left,6168a697ae9f4d8dcfada29b,2021-10-27_11h08.55.327,arrow_simon_punish,2021.1.2,MacIntel,30.00120005,,,,,,,,,,,,,,p,1,1.5956,2.153768807,0,1,2,2,10,0,1,,,,,,,,,,,,,,
,,,,,,,,,,,left.png,,w,right,6168a697ae9f4d8dcfada29b,2021-10-27_11h08.55.327,arrow_simon_punish,2021.1.2,MacIntel,30.00120005,,,,,,,,,,,,,,w,1,1.6171,2.032347834,1,1,2,3,11,3,1,,,,,,,,,,,,,,
,,,,,,,,,,,left.png,,w,right,6168a697ae9f4d8dcfada29b,2021-10-27_11h08.55.327,arrow_simon_punish,2021.1.2,MacIntel,30.00120005,,,,,,,,,,,,,,w,1,1.4613,1.851395642,0,1,3,0,12,3,1,,,,,,,,,,,,,,
,,,,,,,,,,,right.png,,p,left,6168a697ae9f4d8dcfada29b,2021-10-27_11h08.55.327,arrow_simon_punish,2021.1.2,MacIntel,30.00120005,,,,,,,,,,,,,,p,1,1.4892,2.087875049,0,1,3,1,13,0,1,,,,,,,,,,,,,,
,,,,,,,,,,,left.png,,w,left,6168a697ae9f4d8dcfada29b,2021-10-27_11h08.55.327,arrow_simon_punish,2021.1.2,MacIntel,30.00120005,,,,,,,,,,,,,,w,1,1.9536,2.432119403,1,1,3,2,14,2,1,,,,,,,,,,,,,,
,,,,,,,,,,,left.png,,w,right,6168a697ae9f4d8dcfada29b,2021-10-27_11h08.55.327,arrow_simon_punish,2021.1.2,MacIntel,30.00120005,,,,,,,,,,,,,,w,1,1.5654,2.127390718,0,1,3,3,15,3,1,,,,,,,,,,,,,,
,,,,,,,,,,,right.png,,p,right,6168a697ae9f4d8dcfada29b,2021-10-27_11h08.55.327,arrow_simon_punish,2021.1.2,MacIntel,30.00120005,,,,,,,,,,,,,,p,1,1.4135,1.758427327,0,1,4,0,16,1,1,,,,,,,,,,,,,,
,,,,,,,,,,,left.png,,w,right,6168a697ae9f4d8dcfada29b,2021-10-27_11h08.55.327,arrow_simon_punish,2021.1.2,MacIntel,30.00120005,,,,,,,,,,,,,,w,1,1.8422,2.378119117,1,1,4,1,17,3,1,,,,,,,,,,,,,,
,,,,,,,,,,,right.png,,p,left,6168a697ae9f4d8dcfada29b,2021-10-27_11h08.55.327,arrow_simon_punish,2021.1.2,MacIntel,30.00120005,,,,,,,,,,,,,,p,1,1.5507,2.140705891,0,1,4,2,18,0,1,,,,,,,,,,,,,,
,,,,,,,,,,,left.png,,w,left,6168a697ae9f4d8dcfada29b,2021-10-27_11h08.55.327,arrow_simon_punish,2021.1.2,MacIntel,30.00120005,,,,,,,,,,,,,,w,1,1.644,2.337434881,1,1,4,3,19,2,1,,,,,,,,,,,,,,
,,,,,,,,,,,left.png,,w,left,6168a697ae9f4d8dcfada29b,2021-10-27_11h08.55.327,arrow_simon_punish,2021.1.2,MacIntel,30.00120005,,,,,,,,,,,,,,w,1,1.8018,2.475125991,1,1,5,0,20,2,1,,,,,,,,,,,,,,
,,,,,,,,,,,right.png,,p,left,6168a697ae9f4d8dcfada29b,2021-10-27_11h08.55.327,arrow_simon_punish,2021.1.2,MacIntel,30.00120005,,,,,,,,,,,,,,p,1,1.8018,2.393742078,1,1,5,1,21,0,1,,,,,,,,,,,,,,
,,,,,,,,,,,left.png,,w,right,6168a697ae9f4d8dcfada29b,2021-10-27_11h08.55.327,arrow_simon_punish,2021.1.2,MacIntel,30.00120005,,,,,,,,,,,,,,w,1,1.7291,2.401959861,1,1,5,2,22,3,1,,,,,,,,,,,,,,
,,,,,,,,,,,right.png,,p,right,6168a697ae9f4d8dcfada29b,2021-10-27_11h08.55.327,arrow_simon_punish,2021.1.2,MacIntel,30.00120005,,,,,,,,,,,,,,p,1,1.2505,1.756187237,1,1,5,3,23,1,1,,,,,,,,,,,,,,
,,,,,,,,,,,left.png,,w,left,6168a697ae9f4d8dcfada29b,2021-10-27_11h08.55.327,arrow_simon_punish,2021.1.2,MacIntel,30.00120005,,,,,,,,,,,,,,w,1,1.4911,1.882291454,0,1,6,0,24,2,1,,,,,,,,,,,,,,
,,,,,,,,,,,right.png,,p,right,6168a697ae9f4d8dcfada29b,2021-10-27_11h08.55.327,arrow_simon_punish,2021.1.2,MacIntel,30.00120005,,,,,,,,,,,,,,p,1,1.3197,1.970841714,1,1,6,1,25,1,1,,,,,,,,,,,,,,
,,,,,,,,,,,right.png,,p,right,6168a697ae9f4d8dcfada29b,2021-10-27_11h08.55.327,arrow_simon_punish,2021.1.2,MacIntel,30.00120005,,,,,,,,,,,,,,p,1,1.9418,2.420078306,1,1,6,2,26,1,1,,,,,,,,,,,,,,
,,,,,,,,,,,right.png,,p,right,6168a697ae9f4d8dcfada29b,2021-10-27_11h08.55.327,arrow_simon_punish,2021.1.2,MacIntel,30.00120005,,,,,,,,,,,,,,p,1,1.4338,1.964453579,0,1,6,3,27,1,1,,,,,,,,,,,,,,
,,,,,,,,,,,left.png,,w,right,6168a697ae9f4d8dcfada29b,2021-10-27_11h08.55.327,arrow_simon_punish,2021.1.2,MacIntel,30.00120005,,,,,,,,,,,,,,w,1,1.2461,1.786948512,1,1,7,0,28,3,1,,,,,,,,,,,,,,
,,,,,,,,,,,right.png,,p,right,6168a697ae9f4d8dcfada29b,2021-10-27_11h08.55.327,arrow_simon_punish,2021.1.2,MacIntel,30.00120005,,,,,,,,,,,,,,p,1,1.41,1.637723952,0,1,7,1,29,1,1,,,,,,,,,,,,,,
,,,,,,,,,,,right.png,,p,left,6168a697ae9f4d8dcfada29b,2021-10-27_11h08.55.327,arrow_simon_punish,2021.1.2,MacIntel,30.00120005,,,,,,,,,,,,,,p,1,1.411,1.926960269,0,1,7,2,30,0,1,,,,,,,,,,,,,,
,,,,,,,,,,,left.png,,w,left,6168a697ae9f4d8dcfada29b,2021-10-27_11h08.55.327,arrow_simon_punish,2021.1.2,MacIntel,30.00120005,,,,,,,,,,,,,,p,0,1.369,1.955937728,1,1,7,3,31,2,1,,,,,,,,,,,,,,
,,,,,,,,,,,left.png,,w,left,6168a697ae9f4d8dcfada29b,2021-10-27_11h08.55.327,arrow_simon_punish,2021.1.2,MacIntel,30.00120005,,,,,,,,,,,,,,w,1,1.3386,1.898683696,1,1,8,0,32,2,1,,,,,,,,,,,,,,
,,,,,,,,,,,left.png,,w,left,6168a697ae9f4d8dcfada29b,2021-10-27_11h08.55.327,arrow_simon_punish,2021.1.2,MacIntel,30.00120005,,,,,,,,,,,,,,w,1,1.4581,2.109888483,0,1,8,1,33,2,1,,,,,,,,,,,,,,
,,,,,,,,,,,left.png,,w,left,6168a697ae9f4d8dcfada29b,2021-10-27_11h08.55.327,arrow_simon_punish,2021.1.2,MacIntel,30.00120005,,,,,,,,,,,,,,w,1,1.8246,2.495922555,1,1,8,2,34,2,1,,,,,,,,,,,,,,
,,,,,,,,,,,right.png,,p,left,6168a697ae9f4d8dcfada29b,2021-10-27_11h08.55.327,arrow_simon_punish,2021.1.2,MacIntel,30.00120005,,,,,,,,,,,,,,p,1,1.2233,1.712674441,1,1,8,3,35,0,1,,,,,,,,,,,,,,
,,,,,,,,,,,left.png,,w,right,6168a697ae9f4d8dcfada29b,2021-10-27_11h08.55.327,arrow_simon_punish,2021.1.2,MacIntel,30.00120005,,,,,,,,,,,,,,w,1,1.3793,1.922020698,1,1,9,0,36,3,1,,,,,,,,,,,,,,
,,,,,,,,,,,right.png,,p,left,6168a697ae9f4d8dcfada29b,2021-10-27_11h08.55.327,arrow_simon_punish,2021.1.2,MacIntel,30.00120005,,,,,,,,,,,,,,w,0,1.5979,2.189729106,1,1,9,1,37,0,1,,,,,,,,,,,,,,
,,,,,,,,,,,right.png,,p,left,6168a697ae9f4d8dcfada29b,2021-10-27_11h08.55.327,arrow_simon_punish,2021.1.2,MacIntel,30.00120005,,,,,,,,,,,,,,p,1,1.78,2.307918812,1,1,9,2,38,0,1,,,,,,,,,,,,,,
,,,,,,,,,,,left.png,,w,left,6168a697ae9f4d8dcfada29b,2021-10-27_11h08.55.327,arrow_simon_punish,2021.1.2,MacIntel,30.00120005,,,,,,,,,,,,,,w,1,1.3889,1.933378388,1,1,9,3,39,2,1,,,,,,,,,,,,,,
,,,,,,,,,,,left.png,,w,right,6168a697ae9f4d8dcfada29b,2021-10-27_11h08.55.327,arrow_simon_punish,2021.1.2,MacIntel,30.00120005,,,,,,,,,,,,,,w,1,1.4959,1.776131644,0,1,10,0,40,3,1,,,,,,,,,,,,,,
,,,,,,,,,,,right.png,,p,right,6168a697ae9f4d8dcfada29b,2021-10-27_11h08.55.327,arrow_simon_punish,2021.1.2,MacIntel,30.00120005,,,,,,,,,,,,,,p,1,1.0954,1.605573774,1,1,10,1,41,1,1,,,,,,,,,,,,,,
,,,,,,,,,,,left.png,,w,right,6168a697ae9f4d8dcfada29b,2021-10-27_11h08.55.327,arrow_simon_punish,2021.1.2,MacIntel,30.00120005,,,,,,,,,,,,,,w,1,1.8356,2.480087781,1,1,10,2,42,3,1,,,,,,,,,,,,,,
,,,,,,,,,,,right.png,,p,right,6168a697ae9f4d8dcfada29b,2021-10-27_11h08.55.327,arrow_simon_punish,2021.1.2,MacIntel,30.00120005,,,,,,,,,,,,,,p,1,1.5577,2.12661613,0,1,10,3,43,1,1,,,,,,,,,,,,,,
,,,,,,,,,,,left.png,,w,right,6168a697ae9f4d8dcfada29b,2021-10-27_11h08.55.327,arrow_simon_punish,2021.1.2,MacIntel,30.00120005,,,,,,,,,,,,,,w,1,1.3304,1.870806923,1,1,11,0,44,3,1,,,,,,,,,,,,,,
,,,,,,,,,,,right.png,,p,right,6168a697ae9f4d8dcfada29b,2021-10-27_11h08.55.327,arrow_simon_punish,2021.1.2,MacIntel,30.00120005,,,,,,,,,,,,,,p,1,1.6394,2.294711823,1,1,11,1,45,1,1,,,,,,,,,,,,,,
,,,,,,,,,,,left.png,,w,left,6168a697ae9f4d8dcfada29b,2021-10-27_11h08.55.327,arrow_simon_punish,2021.1.2,MacIntel,30.00120005,,,,,,,,,,,,,,w,1,1.2288,1.86786379,1,1,11,2,46,2,1,,,,,,,,,,,,,,
,,,,,,,,,,,left.png,,w,left,6168a697ae9f4d8dcfada29b,2021-10-27_11h08.55.327,arrow_simon_punish,2021.1.2,MacIntel,30.00120005,,,,,,,,,,,,,,w,1,1.8231,2.429399851,1,1,11,3,47,2,1,,,,,,,,,,,,,,
,,,,,,,,,,,right.png,,p,right,6168a697ae9f4d8dcfada29b,2021-10-27_11h08.55.327,arrow_simon_punish,2021.1.2,MacIntel,30.00120005,,,,,,,,,,,,,,p,1,1.4963,2.075455069,0,1,12,0,48,1,1,,,,,,,,,,,,,,
,,,,,,,,,,,left.png,,w,right,6168a697ae9f4d8dcfada29b,2021-10-27_11h08.55.327,arrow_simon_punish,2021.1.2,MacIntel,30.00120005,,,,,,,,,,,,,,w,1,1.2262,1.56570774,1,1,12,1,49,3,1,,,,,,,,,,,,,,
,,,,,,,,,,,right.png,,p,left,6168a697ae9f4d8dcfada29b,2021-10-27_11h08.55.327,arrow_simon_punish,2021.1.2,MacIntel,30.00120005,,,,,,,,,,,,,,p,1,1.1398,1.579872087,1,1,12,2,50,0,1,,,,,,,,,,,,,,
,,,,,,,,,,,right.png,,p,left,6168a697ae9f4d8dcfada29b,2021-10-27_11h08.55.327,arrow_simon_punish,2021.1.2,MacIntel,30.00120005,,,,,,,,,,,,,,w,0,1.1641,1.744815763,1,1,12,3,51,0,1,,,,,,,,,,,,,,
,,,,,,,,,,,left.png,,w,left,6168a697ae9f4d8dcfada29b,2021-10-27_11h08.55.327,arrow_simon_punish,2021.1.2,MacIntel,30.00120005,,,,,,,,,,,,,,w,1,1.4228,1.94512551,0,1,13,0,52,2,1,,,,,,,,,,,,,,
,,,,,,,,,,,right.png,,p,left,6168a697ae9f4d8dcfada29b,2021-10-27_11h08.55.327,arrow_simon_punish,2021.1.2,MacIntel,30.00120005,,,,,,,,,,,,,,p,1,1.4888,1.818002474,0,1,13,1,53,0,1,,,,,,,,,,,,,,
,,,,,,,,,,,right.png,,p,right,6168a697ae9f4d8dcfada29b,2021-10-27_11h08.55.327,arrow_simon_punish,2021.1.2,MacIntel,30.00120005,,,,,,,,,,,,,,p,1,1.894,2.491215241,1,1,13,2,54,1,1,,,,,,,,,,,,,,
,,,,,,,,,,,right.png,,p,left,6168a697ae9f4d8dcfada29b,2021-10-27_11h08.55.327,arrow_simon_punish,2021.1.2,MacIntel,30.00120005,,,,,,,,,,,,,,p,1,1.4223,1.514943731,0,1,13,3,55,0,1,,,,,,,,,,,,,,
,,,,,,,,,,,right.png,,p,right,6168a697ae9f4d8dcfada29b,2021-10-27_11h08.55.327,arrow_simon_punish,2021.1.2,MacIntel,30.00120005,,,,,,,,,,,,,,p,1,1.5643,1.589307489,0,1,14,0,56,1,1,,,,,,,,,,,,,,
,,,,,,,,,,,left.png,,w,left,6168a697ae9f4d8dcfada29b,2021-10-27_11h08.55.327,arrow_simon_punish,2021.1.2,MacIntel,30.00120005,,,,,,,,,,,,,,w,1,1.5087,2.127752791,0,1,14,1,57,2,1,,,,,,,,,,,,,,
,,,,,,,,,,,left.png,,w,right,6168a697ae9f4d8dcfada29b,2021-10-27_11h08.55.327,arrow_simon_punish,2021.1.2,MacIntel,30.00120005,,,,,,,,,,,,,,w,1,1.7315,1.908316111,1,1,14,2,58,3,1,,,,,,,,,,,,,,
,,,,,,,,,,,left.png,,w,right,6168a697ae9f4d8dcfada29b,2021-10-27_11h08.55.327,arrow_simon_punish,2021.1.2,MacIntel,30.00120005,,,,,,,,,,,,,,w,1,1.8064,1.864057933,1,1,14,3,59,3,1,,,,,,,,,,,,,,
,,,,,,,,,,,,,,,6168a697ae9f4d8dcfada29b,2021-10-27_11h08.55.327,arrow_simon_punish,2021.1.2,MacIntel,30.00120005,,,,,,,,,,,,,,,,,,,,,,,,,space,5.9294,6,2,0,4,0,1,1,,,,,
,,,,,,,,,,,right.png,,p,right,6168a697ae9f4d8dcfada29b,2021-10-27_11h08.55.327,arrow_simon_punish,2021.1.2,MacIntel,30.00120005,,,,,,,,,,,,,,p,1,1.3574,1.839204697,1,5,0,0,0,1,1,,,,,,,,,,,,,,
,,,,,,,,,,,left.png,,w,left,6168a697ae9f4d8dcfada29b,2021-10-27_11h08.55.327,arrow_simon_punish,2021.1.2,MacIntel,30.00120005,,,,,,,,,,,,,,w,1,1.5385,2.159167318,0,5,0,1,1,2,1,,,,,,,,,,,,,,
,,,,,,,,,,,right.png,,p,left,6168a697ae9f4d8dcfada29b,2021-10-27_11h08.55.327,arrow_simon_punish,2021.1.2,MacIntel,30.00120005,,,,,,,,,,,,,,p,1,1.1516,1.715594381,1,5,0,2,2,0,1,,,,,,,,,,,,,,
,,,,,,,,,,,right.png,,p,left,6168a697ae9f4d8dcfada29b,2021-10-27_11h08.55.327,arrow_simon_punish,2021.1.2,MacIntel,30.00120005,,,,,,,,,,,,,,w,0,1.637,2.19821446,1,5,0,3,3,0,1,,,,,,,,,,,,,,
,,,,,,,,,,,right.png,,p,right,6168a697ae9f4d8dcfada29b,2021-10-27_11h08.55.327,arrow_simon_punish,2021.1.2,MacIntel,30.00120005,,,,,,,,,,,,,,w,0,1.6493,2.236015305,1,5,1,0,4,1,1,,,,,,,,,,,,,,
,,,,,,,,,,,left.png,,w,right,6168a697ae9f4d8dcfada29b,2021-10-27_11h08.55.327,arrow_simon_punish,2021.1.2,MacIntel,30.00120005,,,,,,,,,,,,,,w,1,1.8033,2.057888118,1,5,1,1,5,3,1,,,,,,,,,,,,,,
,,,,,,,,,,,left.png,,w,right,6168a697ae9f4d8dcfada29b,2021-10-27_11h08.55.327,arrow_simon_punish,2021.1.2,MacIntel,30.00120005,,,,,,,,,,,,,,w,1,1.5856,2.079681386,0,5,1,2,6,3,1,,,,,,,,,,,,,,
,,,,,,,,,,,left.png,,w,right,6168a697ae9f4d8dcfada29b,2021-10-27_11h08.55.327,arrow_simon_punish,2021.1.2,MacIntel,30.00120005,,,,,,,,,,,,,,w,1,1.7681,2.338181419,1,5,1,3,7,3,1,,,,,,,,,,,,,,
,,,,,,,,,,,left.png,,w,right,6168a697ae9f4d8dcfada29b,2021-10-27_11h08.55.327,arrow_simon_punish,2021.1.2,MacIntel,30.00120005,,,,,,,,,,,,,,w,1,1.1423,1.578465438,1,5,2,0,8,3,1,,,,,,,,,,,,,,
,,,,,,,,,,,left.png,,w,right,6168a697ae9f4d8dcfada29b,2021-10-27_11h08.55.327,arrow_simon_punish,2021.1.2,MacIntel,30.00120005,,,,,,,,,,,,,,w,1,1.5578,2.194375743,0,5,2,1,9,3,1,,,,,,,,,,,,,,
,,,,,,,,,,,right.png,,p,left,6168a697ae9f4d8dcfada29b,2021-10-27_11h08.55.327,arrow_simon_punish,2021.1.2,MacIntel,30.00120005,,,,,,,,,,,,,,p,1,1.9061,2.397871885,1,5,2,2,10,0,1,,,,,,,,,,,,,,
,,,,,,,,,,,left.png,,w,right,6168a697ae9f4d8dcfada29b,2021-10-27_11h08.55.327,arrow_simon_punish,2021.1.2,MacIntel,30.00120005,,,,,,,,,,,,,,w,1,1.89,2.470576498,1,5,2,3,11,3,1,,,,,,,,,,,,,,
,,,,,,,,,,,right.png,,p,right,6168a697ae9f4d8dcfada29b,2021-10-27_11h08.55.327,arrow_simon_punish,2021.1.2,MacIntel,30.00120005,,,,,,,,,,,,,,p,1,1.3317,1.915507726,1,5,3,0,12,1,1,,,,,,,,,,,,,,
,,,,,,,,,,,left.png,,w,left,6168a697ae9f4d8dcfada29b,2021-10-27_11h08.55.327,arrow_simon_punish,2021.1.2,MacIntel,30.00120005,,,,,,,,,,,,,,w,1,1.7506,2.261682704,1,5,3,1,13,2,1,,,,,,,,,,,,,,
,,,,,,,,,,,left.png,,w,right,6168a697ae9f4d8dcfada29b,2021-10-27_11h08.55.327,arrow_simon_punish,2021.1.2,MacIntel,30.00120005,,,,,,,,,,,,,,p,0,1.8008,2.395315221,1,5,3,2,14,3,1,,,,,,,,,,,,,,
,,,,,,,,,,,left.png,,w,left,6168a697ae9f4d8dcfada29b,2021-10-27_11h08.55.327,arrow_simon_punish,2021.1.2,MacIntel,30.00120005,,,,,,,,,,,,,,w,1,1.4724,2.058271855,0,5,3,3,15,2,1,,,,,,,,,,,,,,
,,,,,,,,,,,right.png,,p,left,6168a697ae9f4d8dcfada29b,2021-10-27_11h08.55.327,arrow_simon_punish,2021.1.2,MacIntel,30.00120005,,,,,,,,,,,,,,p,1,1.4677,1.671997039,0,5,4,0,16,0,1,,,,,,,,,,,,,,
,,,,,,,,,,,left.png,,w,right,6168a697ae9f4d8dcfada29b,2021-10-27_11h08.55.327,arrow_simon_punish,2021.1.2,MacIntel,30.00120005,,,,,,,,,,,,,,w,1,1.415,1.575484651,0,5,4,1,17,3,1,,,,,,,,,,,,,,
,,,,,,,,,,,left.png,,w,right,6168a697ae9f4d8dcfada29b,2021-10-27_11h08.55.327,arrow_simon_punish,2021.1.2,MacIntel,30.00120005,,,,,,,,,,,,,,w,1,1.3158,1.755919199,1,5,4,2,18,3,1,,,,,,,,,,,,,,
,,,,,,,,,,,left.png,,w,left,6168a697ae9f4d8dcfada29b,2021-10-27_11h08.55.327,arrow_simon_punish,2021.1.2,MacIntel,30.00120005,,,,,,,,,,,,,,w,1,1.8544,2.402325635,1,5,4,3,19,2,1,,,,,,,,,,,,,,
,,,,,,,,,,,left.png,,w,left,6168a697ae9f4d8dcfada29b,2021-10-27_11h08.55.327,arrow_simon_punish,2021.1.2,MacIntel,30.00120005,,,,,,,,,,,,,,w,1,1.7239,2.349914741,1,5,5,0,20,2,1,,,,,,,,,,,,,,
,,,,,,,,,,,right.png,,p,right,6168a697ae9f4d8dcfada29b,2021-10-27_11h08.55.327,arrow_simon_punish,2021.1.2,MacIntel,30.00120005,,,,,,,,,,,,,,p,1,1.6918,2.296739268,1,5,5,1,21,1,1,,,,,,,,,,,,,,
,,,,,,,,,,,left.png,,w,right,6168a697ae9f4d8dcfada29b,2021-10-27_11h08.55.327,arrow_simon_punish,2021.1.2,MacIntel,30.00120005,,,,,,,,,,,,,,w,1,1.5598,1.78234496,0,5,5,2,22,3,1,,,,,,,,,,,,,,
,,,,,,,,,,,right.png,,p,right,6168a697ae9f4d8dcfada29b,2021-10-27_11h08.55.327,arrow_simon_punish,2021.1.2,MacIntel,30.00120005,,,,,,,,,,,,,,p,1,1.3075,1.92329728,1,5,5,3,23,1,1,,,,,,,,,,,,,,
,,,,,,,,,,,right.png,,p,right,6168a697ae9f4d8dcfada29b,2021-10-27_11h08.55.327,arrow_simon_punish,2021.1.2,MacIntel,30.00120005,,,,,,,,,,,,,,p,1,1.3627,1.937111889,1,5,6,0,24,1,1,,,,,,,,,,,,,,
,,,,,,,,,,,right.png,,p,left,6168a697ae9f4d8dcfada29b,2021-10-27_11h08.55.327,arrow_simon_punish,2021.1.2,MacIntel,30.00120005,,,,,,,,,,,,,,p,1,1.7874,2.270122341,1,5,6,1,25,0,1,,,,,,,,,,,,,,
,,,,,,,,,,,right.png,,p,right,6168a697ae9f4d8dcfada29b,2021-10-27_11h08.55.327,arrow_simon_punish,2021.1.2,MacIntel,30.00120005,,,,,,,,,,,,,,p,1,1.3419,1.926273015,1,5,6,2,26,1,1,,,,,,,,,,,,,,
,,,,,,,,,,,left.png,,w,left,6168a697ae9f4d8dcfada29b,2021-10-27_11h08.55.327,arrow_simon_punish,2021.1.2,MacIntel,30.00120005,,,,,,,,,,,,,,w,1,1.146,1.694244146,1,5,6,3,27,2,1,,,,,,,,,,,,,,
,,,,,,,,,,,left.png,,w,right,6168a697ae9f4d8dcfada29b,2021-10-27_11h08.55.327,arrow_simon_punish,2021.1.2,MacIntel,30.00120005,,,,,,,,,,,,,,p,0,1.7629,2.437372547,1,5,7,0,28,3,1,,,,,,,,,,,,,,
,,,,,,,,,,,left.png,,w,right,6168a697ae9f4d8dcfada29b,2021-10-27_11h08.55.327,arrow_simon_punish,2021.1.2,MacIntel,30.00120005,,,,,,,,,,,,,,w,1,1.3183,1.843913442,1,5,7,1,29,3,1,,,,,,,,,,,,,,
,,,,,,,,,,,right.png,,p,right,6168a697ae9f4d8dcfada29b,2021-10-27_11h08.55.327,arrow_simon_punish,2021.1.2,MacIntel,30.00120005,,,,,,,,,,,,,,p,1,1.561,1.587527416,0,5,7,2,30,1,1,,,,,,,,,,,,,,
,,,,,,,,,,,right.png,,p,left,6168a697ae9f4d8dcfada29b,2021-10-27_11h08.55.327,arrow_simon_punish,2021.1.2,MacIntel,30.00120005,,,,,,,,,,,,,,w,0,1.4746,1.936518742,1,5,7,3,31,0,1,,,,,,,,,,,,,,
,,,,,,,,,,,left.png,,w,right,6168a697ae9f4d8dcfada29b,2021-10-27_11h08.55.327,arrow_simon_punish,2021.1.2,MacIntel,30.00120005,,,,,,,,,,,,,,w,1,1.1075,1.645627007,1,5,8,0,32,3,1,,,,,,,,,,,,,,
,,,,,,,,,,,left.png,,w,left,6168a697ae9f4d8dcfada29b,2021-10-27_11h08.55.327,arrow_simon_punish,2021.1.2,MacIntel,30.00120005,,,,,,,,,,,,,,w,1,1.1131,1.514977475,1,5,8,1,33,2,1,,,,,,,,,,,,,,
,,,,,,,,,,,right.png,,p,right,6168a697ae9f4d8dcfada29b,2021-10-27_11h08.55.327,arrow_simon_punish,2021.1.2,MacIntel,30.00120005,,,,,,,,,,,,,,p,1,1.2719,1.758042934,1,5,8,2,34,1,1,,,,,,,,,,,,,,
,,,,,,,,,,,left.png,,w,left,6168a697ae9f4d8dcfada29b,2021-10-27_11h08.55.327,arrow_simon_punish,2021.1.2,MacIntel,30.00120005,,,,,,,,,,,,,,w,1,1.8189,2.373022782,1,5,8,3,35,2,1,,,,,,,,,,,,,,
,,,,,,,,,,,right.png,,p,left,6168a697ae9f4d8dcfada29b,2021-10-27_11h08.55.327,arrow_simon_punish,2021.1.2,MacIntel,30.00120005,,,,,,,,,,,,,,w,0,1.5813,2.24947906,1,5,9,0,36,0,1,,,,,,,,,,,,,,
,,,,,,,,,,,right.png,,p,left,6168a697ae9f4d8dcfada29b,2021-10-27_11h08.55.327,arrow_simon_punish,2021.1.2,MacIntel,30.00120005,,,,,,,,,,,,,,w,0,1.384,1.86725048,1,5,9,1,37,0,1,,,,,,,,,,,,,,
,,,,,,,,,,,left.png,,w,left,6168a697ae9f4d8dcfada29b,2021-10-27_11h08.55.327,arrow_simon_punish,2021.1.2,MacIntel,30.00120005,,,,,,,,,,,,,,w,1,1.0854,1.634792467,1,5,9,2,38,2,1,,,,,,,,,,,,,,
,,,,,,,,,,,left.png,,w,left,6168a697ae9f4d8dcfada29b,2021-10-27_11h08.55.327,arrow_simon_punish,2021.1.2,MacIntel,30.00120005,,,,,,,,,,,,,,w,1,1.3162,1.923509905,1,5,9,3,39,2,1,,,,,,,,,,,,,,
,,,,,,,,,,,left.png,,w,left,6168a697ae9f4d8dcfada29b,2021-10-27_11h08.55.327,arrow_simon_punish,2021.1.2,MacIntel,30.00120005,,,,,,,,,,,,,,w,1,1.5278,2.119457304,0,5,10,0,40,2,1,,,,,,,,,,,,,,
,,,,,,,,,,,right.png,,p,left,6168a697ae9f4d8dcfada29b,2021-10-27_11h08.55.327,arrow_simon_punish,2021.1.2,MacIntel,30.00120005,,,,,,,,,,,,,,w,0,1.6158,2.298333456,1,5,10,1,41,0,1,,,,,,,,,,,,,,
,,,,,,,,,,,right.png,,p,right,6168a697ae9f4d8dcfada29b,2021-10-27_11h08.55.327,arrow_simon_punish,2021.1.2,MacIntel,30.00120005,,,,,,,,,,,,,,p,1,1.5503,1.670290525,0,5,10,2,42,1,1,,,,,,,,,,,,,,
,,,,,,,,,,,left.png,,w,left,6168a697ae9f4d8dcfada29b,2021-10-27_11h08.55.327,arrow_simon_punish,2021.1.2,MacIntel,30.00120005,,,,,,,,,,,,,,w,1,1.3386,1.651583683,1,5,10,3,43,2,1,,,,,,,,,,,,,,
,,,,,,,,,,,right.png,,p,left,6168a697ae9f4d8dcfada29b,2021-10-27_11h08.55.327,arrow_simon_punish,2021.1.2,MacIntel,30.00120005,,,,,,,,,,,,,,p,1,1.1884,1.700665254,1,5,11,0,44,0,1,,,,,,,,,,,,,,
,,,,,,,,,,,left.png,,w,right,6168a697ae9f4d8dcfada29b,2021-10-27_11h08.55.327,arrow_simon_punish,2021.1.2,MacIntel,30.00120005,,,,,,,,,,,,,,p,0,1.8083,2.356377573,1,5,11,1,45,3,1,,,,,,,,,,,,,,
,,,,,,,,,,,right.png,,p,left,6168a697ae9f4d8dcfada29b,2021-10-27_11h08.55.327,arrow_simon_punish,2021.1.2,MacIntel,30.00120005,,,,,,,,,,,,,,p,1,1.3434,1.530403565,1,5,11,2,46,0,1,,,,,,,,,,,,,,
,,,,,,,,,,,left.png,,w,left,6168a697ae9f4d8dcfada29b,2021-10-27_11h08.55.327,arrow_simon_punish,2021.1.2,MacIntel,30.00120005,,,,,,,,,,,,,,w,1,1.4895,2.105014863,0,5,11,3,47,2,1,,,,,,,,,,,,,,
,,,,,,,,,,,right.png,,p,right,6168a697ae9f4d8dcfada29b,2021-10-27_11h08.55.327,arrow_simon_punish,2021.1.2,MacIntel,30.00120005,,,,,,,,,,,,,,p,1,1.8583,2.005329534,1,5,12,0,48,1,1,,,,,,,,,,,,,,
,,,,,,,,,,,right.png,,p,left,6168a697ae9f4d8dcfada29b,2021-10-27_11h08.55.327,arrow_simon_punish,2021.1.2,MacIntel,30.00120005,,,,,,,,,,,,,,p,1,1.2349,1.521919862,1,5,12,1,49,0,1,,,,,,,,,,,,,,
,,,,,,,,,,,right.png,,p,right,6168a697ae9f4d8dcfada29b,2021-10-27_11h08.55.327,arrow_simon_punish,2021.1.2,MacIntel,30.00120005,,,,,,,,,,,,,,p,1,1.3802,1.904948939,1,5,12,2,50,1,1,,,,,,,,,,,,,,
,,,,,,,,,,,right.png,,p,right,6168a697ae9f4d8dcfada29b,2021-10-27_11h08.55.327,arrow_simon_punish,2021.1.2,MacIntel,30.00120005,,,,,,,,,,,,,,p,1,1.3307,1.818773556,1,5,12,3,51,1,1,,,,,,,,,,,,,,
,,,,,,,,,,,right.png,,p,left,6168a697ae9f4d8dcfada29b,2021-10-27_11h08.55.327,arrow_simon_punish,2021.1.2,MacIntel,30.00120005,,,,,,,,,,,,,,p,1,7.2484,2.448738653,1,5,13,0,52,0,1,,,,,,,,,,,,,,
,,,,,,,,,,,left.png,,w,left,6168a697ae9f4d8dcfada29b,2021-10-27_11h08.55.327,arrow_simon_punish,2021.1.2,MacIntel,30.00120005,,,,,,,,,,,,,,w,1,2.1564,2.230655054,1,5,13,1,53,2,1,,,,,,,,,,,,,,
,,,,,,,,,,,right.png,,p,right,6168a697ae9f4d8dcfada29b,2021-10-27_11h08.55.327,arrow_simon_punish,2021.1.2,MacIntel,30.00120005,,,,,,,,,,,,,,p,1,1.2065,1.7163455,1,5,13,2,54,1,1,,,,,,,,,,,,,,
,,,,,,,,,,,left.png,,w,right,6168a697ae9f4d8dcfada29b,2021-10-27_11h08.55.327,arrow_simon_punish,2021.1.2,MacIntel,30.00120005,,,,,,,,,,,,,,w,1,1.6752,2.255154104,1,5,13,3,55,3,1,,,,,,,,,,,,,,
,,,,,,,,,,,right.png,,p,right,6168a697ae9f4d8dcfada29b,2021-10-27_11h08.55.327,arrow_simon_punish,2021.1.2,MacIntel,30.00120005,,,,,,,,,,,,,,p,1,1.3722,1.942385512,1,5,14,0,56,1,1,,,,,,,,,,,,,,
,,,,,,,,,,,right.png,,p,left,6168a697ae9f4d8dcfada29b,2021-10-27_11h08.55.327,arrow_simon_punish,2021.1.2,MacIntel,30.00120005,,,,,,,,,,,,,,w,0,1.6962,2.339334778,1,5,14,1,57,0,1,,,,,,,,,,,,,,
,,,,,,,,,,,right.png,,p,left,6168a697ae9f4d8dcfada29b,2021-10-27_11h08.55.327,arrow_simon_punish,2021.1.2,MacIntel,30.00120005,,,,,,,,,,,,,,p,1,1.6719,2.236228851,1,5,14,2,58,0,1,,,,,,,,,,,,,,
,,,,,,,,,,,left.png,,w,left,6168a697ae9f4d8dcfada29b,2021-10-27_11h08.55.327,arrow_simon_punish,2021.1.2,MacIntel,30.00120005,,,,,,,,,,,,,,w,1,1.7241,2.273608001,1,5,14,3,59,2,1,,,,,,,,,,,,,,
,,,,,,,,,,,,,,,6168a697ae9f4d8dcfada29b,2021-10-27_11h08.55.327,arrow_simon_punish,2021.1.2,MacIntel,30.00120005,,,,,,,,,,,,,,,,,,,,,,,,,space,58.3096,7,2,1,5,1,1,5,,,,,
,,,,,,,,,,,right.png,,p,left,6168a697ae9f4d8dcfada29b,2021-10-27_11h08.55.327,arrow_simon_punish,2021.1.2,MacIntel,30.00120005,,,,,,,,,,,,,,p,1,1.0831,1.591106442,1,1,0,0,0,0,1,,,,,,,,,,,,,,
,,,,,,,,,,,left.png,,w,right,6168a697ae9f4d8dcfada29b,2021-10-27_11h08.55.327,arrow_simon_punish,2021.1.2,MacIntel,30.00120005,,,,,,,,,,,,,,p,0,0.9787,1.636716957,1,1,0,1,1,3,1,,,,,,,,,,,,,,
,,,,,,,,,,,right.png,,p,left,6168a697ae9f4d8dcfada29b,2021-10-27_11h08.55.327,arrow_simon_punish,2021.1.2,MacIntel,30.00120005,,,,,,,,,,,,,,p,1,1.5818,2.219210905,0,1,0,2,2,0,1,,,,,,,,,,,,,,
,,,,,,,,,,,right.png,,p,right,6168a697ae9f4d8dcfada29b,2021-10-27_11h08.55.327,arrow_simon_punish,2021.1.2,MacIntel,30.00120005,,,,,,,,,,,,,,p,1,1.4966,2.091637234,0,1,0,3,3,1,1,,,,,,,,,,,,,,
,,,,,,,,,,,left.png,,w,right,6168a697ae9f4d8dcfada29b,2021-10-27_11h08.55.327,arrow_simon_punish,2021.1.2,MacIntel,30.00120005,,,,,,,,,,,,,,p,0,1.6392,2.319480915,1,1,1,0,4,3,1,,,,,,,,,,,,,,
,,,,,,,,,,,left.png,,w,left,6168a697ae9f4d8dcfada29b,2021-10-27_11h08.55.327,arrow_simon_punish,2021.1.2,MacIntel,30.00120005,,,,,,,,,,,,,,w,1,1.63,2.222340607,1,1,1,1,5,2,1,,,,,,,,,,,,,,
,,,,,,,,,,,left.png,,w,right,6168a697ae9f4d8dcfada29b,2021-10-27_11h08.55.327,arrow_simon_punish,2021.1.2,MacIntel,30.00120005,,,,,,,,,,,,,,w,1,1.4191,1.89277889,0,1,1,2,6,3,1,,,,,,,,,,,,,,
,,,,,,,,,,,left.png,,w,right,6168a697ae9f4d8dcfada29b,2021-10-27_11h08.55.327,arrow_simon_punish,2021.1.2,MacIntel,30.00120005,,,,,,,,,,,,,,w,1,1.7561,2.396166572,1,1,1,3,7,3,1,,,,,,,,,,,,,,
,,,,,,,,,,,left.png,,w,left,6168a697ae9f4d8dcfada29b,2021-10-27_11h08.55.327,arrow_simon_punish,2021.1.2,MacIntel,30.00120005,,,,,,,,,,,,,,w,1,1.1908,1.72672338,1,1,2,0,8,2,1,,,,,,,,,,,,,,
,,,,,,,,,,,right.png,,p,right,6168a697ae9f4d8dcfada29b,2021-10-27_11h08.55.327,arrow_simon_punish,2021.1.2,MacIntel,30.00120005,,,,,,,,,,,,,,p,1,1.3779,1.749769404,1,1,2,1,9,1,1,,,,,,,,,,,,,,
,,,,,,,,,,,right.png,,p,left,6168a697ae9f4d8dcfada29b,2021-10-27_11h08.55.327,arrow_simon_punish,2021.1.2,MacIntel,30.00120005,,,,,,,,,,,,,,w,0,1.7923,2.486830654,1,1,2,2,10,0,1,,,,,,,,,,,,,,
,,,,,,,,,,,right.png,,p,right,6168a697ae9f4d8dcfada29b,2021-10-27_11h08.55.327,arrow_simon_punish,2021.1.2,MacIntel,30.00120005,,,,,,,,,,,,,,p,1,1.4112,1.948804203,0,1,2,3,11,1,1,,,,,,,,,,,,,,
,,,,,,,,,,,right.png,,p,left,6168a697ae9f4d8dcfada29b,2021-10-27_11h08.55.327,arrow_simon_punish,2021.1.2,MacIntel,30.00120005,,,,,,,,,,,,,,p,1,1.5299,1.924750078,0,1,3,0,12,0,1,,,,,,,,,,,,,,
,,,,,,,,,,,left.png,,w,left,6168a697ae9f4d8dcfada29b,2021-10-27_11h08.55.327,arrow_simon_punish,2021.1.2,MacIntel,30.00120005,,,,,,,,,,,,,,w,1,1.7227,2.333680892,1,1,3,1,13,2,1,,,,,,,,,,,,,,
,,,,,,,,,,,left.png,,w,right,6168a697ae9f4d8dcfada29b,2021-10-27_11h08.55.327,arrow_simon_punish,2021.1.2,MacIntel,30.00120005,,,,,,,,,,,,,,w,1,1.4291,1.732905146,0,1,3,2,14,3,1,,,,,,,,,,,,,,
,,,,,,,,,,,left.png,,w,right,6168a697ae9f4d8dcfada29b,2021-10-27_11h08.55.327,arrow_simon_punish,2021.1.2,MacIntel,30.00120005,,,,,,,,,,,,,,w,1,1.4234,1.742395454,0,1,3,3,15,3,1,,,,,,,,,,,,,,
,,,,,,,,,,,left.png,,w,left,6168a697ae9f4d8dcfada29b,2021-10-27_11h08.55.327,arrow_simon_punish,2021.1.2,MacIntel,30.00120005,,,,,,,,,,,,,,p,0,1.7391,2.381977907,1,1,4,0,16,2,1,,,,,,,,,,,,,,
,,,,,,,,,,,right.png,,p,left,6168a697ae9f4d8dcfada29b,2021-10-27_11h08.55.327,arrow_simon_punish,2021.1.2,MacIntel,30.00120005,,,,,,,,,,,,,,p,1,1.4316,1.988901947,0,1,4,1,17,0,1,,,,,,,,,,,,,,
,,,,,,,,,,,left.png,,w,right,6168a697ae9f4d8dcfada29b,2021-10-27_11h08.55.327,arrow_simon_punish,2021.1.2,MacIntel,30.00120005,,,,,,,,,,,,,,w,1,1.7253,2.308175563,1,1,4,2,18,3,1,,,,,,,,,,,,,,
,,,,,,,,,,,left.png,,w,left,6168a697ae9f4d8dcfada29b,2021-10-27_11h08.55.327,arrow_simon_punish,2021.1.2,MacIntel,30.00120005,,,,,,,,,,,,,,w,1,1.6917,2.339312832,1,1,4,3,19,2,1,,,,,,,,,,,,,,
,,,,,,,,,,,left.png,,w,left,6168a697ae9f4d8dcfada29b,2021-10-27_11h08.55.327,arrow_simon_punish,2021.1.2,MacIntel,30.00120005,,,,,,,,,,,,,,w,1,1.2809,1.688207267,1,1,5,0,20,2,1,,,,,,,,,,,,,,
,,,,,,,,,,,right.png,,p,right,6168a697ae9f4d8dcfada29b,2021-10-27_11h08.55.327,arrow_simon_punish,2021.1.2,MacIntel,30.00120005,,,,,,,,,,,,,,p,1,1.5237,2.094071958,0,1,5,1,21,1,1,,,,,,,,,,,,,,
,,,,,,,,,,,left.png,,w,left,6168a697ae9f4d8dcfada29b,2021-10-27_11h08.55.327,arrow_simon_punish,2021.1.2,MacIntel,30.00120005,,,,,,,,,,,,,,w,1,1.2565,1.787254002,1,1,5,2,22,2,1,,,,,,,,,,,,,,
,,,,,,,,,,,left.png,,w,right,6168a697ae9f4d8dcfada29b,2021-10-27_11h08.55.327,arrow_simon_punish,2021.1.2,MacIntel,30.00120005,,,,,,,,,,,,,,w,1,1.5637,2.135941899,0,1,5,3,23,3,1,,,,,,,,,,,,,,
,,,,,,,,,,,right.png,,p,left,6168a697ae9f4d8dcfada29b,2021-10-27_11h08.55.327,arrow_simon_punish,2021.1.2,MacIntel,30.00120005,,,,,,,,,,,,,,p,1,1.3875,1.620707165,1,1,6,0,24,0,1,,,,,,,,,,,,,,
,,,,,,,,,,,left.png,,w,right,6168a697ae9f4d8dcfada29b,2021-10-27_11h08.55.327,arrow_simon_punish,2021.1.2,MacIntel,30.00120005,,,,,,,,,,,,,,w,1,1.2129,1.672501292,1,1,6,1,25,3,1,,,,,,,,,,,,,,
,,,,,,,,,,,right.png,,p,right,6168a697ae9f4d8dcfada29b,2021-10-27_11h08.55.327,arrow_simon_punish,2021.1.2,MacIntel,30.00120005,,,,,,,,,,,,,,p,1,1.4198,1.732598411,0,1,6,2,26,1,1,,,,,,,,,,,,,,
,,,,,,,,,,,left.png,,w,right,6168a697ae9f4d8dcfada29b,2021-10-27_11h08.55.327,arrow_simon_punish,2021.1.2,MacIntel,30.00120005,,,,,,,,,,,,,,w,1,1.5191,2.086630514,0,1,6,3,27,3,1,,,,,,,,,,,,,,
,,,,,,,,,,,left.png,,w,left,6168a697ae9f4d8dcfada29b,2021-10-27_11h08.55.327,arrow_simon_punish,2021.1.2,MacIntel,30.00120005,,,,,,,,,,,,,,w,1,1.6268,1.826721208,1,1,7,0,28,2,1,,,,,,,,,,,,,,
,,,,,,,,,,,right.png,,p,right,6168a697ae9f4d8dcfada29b,2021-10-27_11h08.55.327,arrow_simon_punish,2021.1.2,MacIntel,30.00120005,,,,,,,,,,,,,,p,1,1.5558,1.577364793,0,1,7,1,29,1,1,,,,,,,,,,,,,,
,,,,,,,,,,,left.png,,w,left,6168a697ae9f4d8dcfada29b,2021-10-27_11h08.55.327,arrow_simon_punish,2021.1.2,MacIntel,30.00120005,,,,,,,,,,,,,,w,1,1.691,2.375479975,1,1,7,2,30,2,1,,,,,,,,,,,,,,
,,,,,,,,,,,left.png,,w,left,6168a697ae9f4d8dcfada29b,2021-10-27_11h08.55.327,arrow_simon_punish,2021.1.2,MacIntel,30.00120005,,,,,,,,,,,,,,w,1,1.4255,1.756158638,0,1,7,3,31,2,1,,,,,,,,,,,,,,
,,,,,,,,,,,right.png,,p,left,6168a697ae9f4d8dcfada29b,2021-10-27_11h08.55.327,arrow_simon_punish,2021.1.2,MacIntel,30.00120005,,,,,,,,,,,,,,w,0,1.7095,2.386375512,1,1,8,0,32,0,1,,,,,,,,,,,,,,
,,,,,,,,,,,right.png,,p,left,6168a697ae9f4d8dcfada29b,2021-10-27_11h08.55.327,arrow_simon_punish,2021.1.2,MacIntel,30.00120005,,,,,,,,,,,,,,p,1,1.2663,1.613224166,1,1,8,1,33,0,1,,,,,,,,,,,,,,
,,,,,,,,,,,right.png,,p,left,6168a697ae9f4d8dcfada29b,2021-10-27_11h08.55.327,arrow_simon_punish,2021.1.2,MacIntel,30.00120005,,,,,,,,,,,,,,w,0,1.59,2.250819618,1,1,8,2,34,0,1,,,,,,,,,,,,,,
,,,,,,,,,,,right.png,,p,right,6168a697ae9f4d8dcfada29b,2021-10-27_11h08.55.327,arrow_simon_punish,2021.1.2,MacIntel,30.00120005,,,,,,,,,,,,,,p,1,1.4797,2.002581584,0,1,8,3,35,1,1,,,,,,,,,,,,,,
,,,,,,,,,,,left.png,,w,right,6168a697ae9f4d8dcfada29b,2021-10-27_11h08.55.327,arrow_simon_punish,2021.1.2,MacIntel,30.00120005,,,,,,,,,,,,,,w,1,1.5392,2.09207928,0,1,9,0,36,3,1,,,,,,,,,,,,,,
,,,,,,,,,,,right.png,,p,right,6168a697ae9f4d8dcfada29b,2021-10-27_11h08.55.327,arrow_simon_punish,2021.1.2,MacIntel,30.00120005,,,,,,,,,,,,,,p,1,1.365,1.992015466,1,1,9,1,37,1,1,,,,,,,,,,,,,,
,,,,,,,,,,,right.png,,p,right,6168a697ae9f4d8dcfada29b,2021-10-27_11h08.55.327,arrow_simon_punish,2021.1.2,MacIntel,30.00120005,,,,,,,,,,,,,,w,0,1.6735,2.246063839,1,1,9,2,38,1,1,,,,,,,,,,,,,,
,,,,,,,,,,,right.png,,p,left,6168a697ae9f4d8dcfada29b,2021-10-27_11h08.55.327,arrow_simon_punish,2021.1.2,MacIntel,30.00120005,,,,,,,,,,,,,,p,1,1.8979,2.470127027,1,1,9,3,39,0,1,,,,,,,,,,,,,,
,,,,,,,,,,,left.png,,w,right,6168a697ae9f4d8dcfada29b,2021-10-27_11h08.55.327,arrow_simon_punish,2021.1.2,MacIntel,30.00120005,,,,,,,,,,,,,,w,1,1.7361,2.294252763,1,1,10,0,40,3,1,,,,,,,,,,,,,,
,,,,,,,,,,,right.png,,p,left,6168a697ae9f4d8dcfada29b,2021-10-27_11h08.55.327,arrow_simon_punish,2021.1.2,MacIntel,30.00120005,,,,,,,,,,,,,,p,1,1.6462,2.234169391,1,1,10,1,41,0,1,,,,,,,,,,,,,,
,,,,,,,,,,,left.png,,w,left,6168a697ae9f4d8dcfada29b,2021-10-27_11h08.55.327,arrow_simon_punish,2021.1.2,MacIntel,30.00120005,,,,,,,,,,,,,,w,1,1.8807,2.405224008,1,1,10,2,42,2,1,,,,,,,,,,,,,,
,,,,,,,,,,,right.png,,p,left,6168a697ae9f4d8dcfada29b,2021-10-27_11h08.55.327,arrow_simon_punish,2021.1.2,MacIntel,30.00120005,,,,,,,,,,,,,,p,1,1.6726,2.256159131,1,1,10,3,43,0,1,,,,,,,,,,,,,,
,,,,,,,,,,,left.png,,w,left,6168a697ae9f4d8dcfada29b,2021-10-27_11h08.55.327,arrow_simon_punish,2021.1.2,MacIntel,30.00120005,,,,,,,,,,,,,,w,1,1.4763,2.0744046,0,1,11,0,44,2,1,,,,,,,,,,,,,,
,,,,,,,,,,,right.png,,p,left,6168a697ae9f4d8dcfada29b,2021-10-27_11h08.55.327,arrow_simon_punish,2021.1.2,MacIntel,30.00120005,,,,,,,,,,,,,,p,1,1.3929,1.938801342,1,1,11,1,45,0,1,,,,,,,,,,,,,,
,,,,,,,,,,,right.png,,p,right,6168a697ae9f4d8dcfada29b,2021-10-27_11h08.55.327,arrow_simon_punish,2021.1.2,MacIntel,30.00120005,,,,,,,,,,,,,,p,1,1.1454,1.719900733,1,1,11,2,46,1,1,,,,,,,,,,,,,,
,,,,,,,,,,,right.png,,p,right,6168a697ae9f4d8dcfada29b,2021-10-27_11h08.55.327,arrow_simon_punish,2021.1.2,MacIntel,30.00120005,,,,,,,,,,,,,,p,1,1.7595,2.339328042,1,1,11,3,47,1,1,,,,,,,,,,,,,,
,,,,,,,,,,,left.png,,w,left,6168a697ae9f4d8dcfada29b,2021-10-27_11h08.55.327,arrow_simon_punish,2021.1.2,MacIntel,30.00120005,,,,,,,,,,,,,,w,1,1.3789,1.825582166,1,1,12,0,48,2,1,,,,,,,,,,,,,,
,,,,,,,,,,,left.png,,w,right,6168a697ae9f4d8dcfada29b,2021-10-27_11h08.55.327,arrow_simon_punish,2021.1.2,MacIntel,30.00120005,,,,,,,,,,,,,,w,1,1.3064,1.514555414,1,1,12,1,49,3,1,,,,,,,,,,,,,,
,,,,,,,,,,,left.png,,w,right,6168a697ae9f4d8dcfada29b,2021-10-27_11h08.55.327,arrow_simon_punish,2021.1.2,MacIntel,30.00120005,,,,,,,,,,,,,,w,1,1.859,2.443928073,1,1,12,2,50,3,1,,,,,,,,,,,,,,
,,,,,,,,,,,right.png,,p,right,6168a697ae9f4d8dcfada29b,2021-10-27_11h08.55.327,arrow_simon_punish,2021.1.2,MacIntel,30.00120005,,,,,,,,,,,,,,p,1,1.4883,2.096067859,0,1,12,3,51,1,1,,,,,,,,,,,,,,
,,,,,,,,,,,right.png,,p,left,6168a697ae9f4d8dcfada29b,2021-10-27_11h08.55.327,arrow_simon_punish,2021.1.2,MacIntel,30.00120005,,,,,,,,,,,,,,w,0,1.7473,2.396683535,1,1,13,0,52,0,1,,,,,,,,,,,,,,
,,,,,,,,,,,left.png,,w,left,6168a697ae9f4d8dcfada29b,2021-10-27_11h08.55.327,arrow_simon_punish,2021.1.2,MacIntel,30.00120005,,,,,,,,,,,,,,w,1,1.293,1.891392274,1,1,13,1,53,2,1,,,,,,,,,,,,,,
,,,,,,,,,,,left.png,,w,left,6168a697ae9f4d8dcfada29b,2021-10-27_11h08.55.327,arrow_simon_punish,2021.1.2,MacIntel,30.00120005,,,,,,,,,,,,,,w,1,1.4433,1.997250919,0,1,13,2,54,2,1,,,,,,,,,,,,,,
,,,,,,,,,,,right.png,,p,left,6168a697ae9f4d8dcfada29b,2021-10-27_11h08.55.327,arrow_simon_punish,2021.1.2,MacIntel,30.00120005,,,,,,,,,,,,,,p,1,1.8056,2.382507809,1,1,13,3,55,0,1,,,,,,,,,,,,,,
,,,,,,,,,,,left.png,,w,right,6168a697ae9f4d8dcfada29b,2021-10-27_11h08.55.327,arrow_simon_punish,2021.1.2,MacIntel,30.00120005,,,,,,,,,,,,,,w,1,1.6636,2.201362714,1,1,14,0,56,3,1,,,,,,,,,,,,,,
,,,,,,,,,,,right.png,,p,right,6168a697ae9f4d8dcfada29b,2021-10-27_11h08.55.327,arrow_simon_punish,2021.1.2,MacIntel,30.00120005,,,,,,,,,,,,,,p,1,1.4452,1.704274382,0,1,14,1,57,1,1,,,,,,,,,,,,,,
,,,,,,,,,,,right.png,,p,right,6168a697ae9f4d8dcfada29b,2021-10-27_11h08.55.327,arrow_simon_punish,2021.1.2,MacIntel,30.00120005,,,,,,,,,,,,,,p,1,1.365,1.613392557,1,1,14,2,58,1,1,,,,,,,,,,,,,,
,,,,,,,,,,,right.png,,p,right,6168a697ae9f4d8dcfada29b,2021-10-27_11h08.55.327,arrow_simon_punish,2021.1.2,MacIntel,30.00120005,,,,,,,,,,,,,,p,1,1.7458,2.022637773,1,1,14,3,59,1,1,,,,,,,,,,,,,,
,,,,,,,,,,,,,,,6168a697ae9f4d8dcfada29b,2021-10-27_11h08.55.327,arrow_simon_punish,2021.1.2,MacIntel,30.00120005,,,,,,,,,,,,,,,,,,,,,,,,,space,67.9994,8,3,0,6,0,1,1,,,,,
