instruct_resp_simon.keys,instruct_resp_simon.corr,instruct_resp_simon.rt,trial_resp_simon.keys,trial_resp_simon.corr,trial_resp_simon.rt,trials_train_simon.thisRepN,trials_train_simon.thisTrialN,trials_train_simon.thisN,trials_train_simon.thisIndex,trials_train_simon.ran,target_file,target_pos,target_resp,target_side,participant,date,expName,psychopyVersion,OS,frameRate,instruct_resp_timing.keys,instruct_resp_timing.corr,instruct_resp_timing.rt,trial_resp_timing.keys,trial_resp_timing.rt,trials_train_timing.thisRepN,trials_train_timing.thisTrialN,trials_train_timing.thisN,trials_train_timing.thisIndex,trials_train_timing.ran,instruct_resp.keys,instruct_resp.corr,instruct_resp.rt,trial_resp.keys,trial_resp.corr,trial_resp.rt,target_onset,err,pun,trials.thisRepN,trials.thisTrialN,trials.thisN,trials.thisIndex,trials.ran,block_note_resp.keys,block_note_resp.rt,block_num,blocks.thisRepN,blocks.thisTrialN,blocks.thisN,blocks.thisIndex,blocks.ran,punish,complete_resp.keys,complete_resp.rt,raffle_trial,raffle_err,raffle_rew
space,0,32.944,p,0,2.998,0,0,0,2,1,left.png,,w,left,6168e3efc08671bd92f7fd37,2021-10-27_11h10.43.946,arrow_simon_punish,2021.1.2,Win32,60.0240096,,,,,,,,,,,,,,,,,,,,,,,,,,,,,,,,,,,,,,
,,,p,1,1.944,0,1,1,0,1,right.png,,p,left,6168e3efc08671bd92f7fd37,2021-10-27_11h10.43.946,arrow_simon_punish,2021.1.2,Win32,60.0240096,,,,,,,,,,,,,,,,,,,,,,,,,,,,,,,,,,,,,,
,,,p,1,1.368,0,2,2,1,1,right.png,,p,right,6168e3efc08671bd92f7fd37,2021-10-27_11h10.43.946,arrow_simon_punish,2021.1.2,Win32,60.0240096,,,,,,,,,,,,,,,,,,,,,,,,,,,,,,,,,,,,,,
,,,w,1,6.987,0,3,3,3,1,left.png,,w,right,6168e3efc08671bd92f7fd37,2021-10-27_11h10.43.946,arrow_simon_punish,2021.1.2,Win32,60.0240096,,,,,,,,,,,,,,,,,,,,,,,,,,,,,,,,,,,,,,
,,,p,1,1.224,1,0,4,1,1,right.png,,p,right,6168e3efc08671bd92f7fd37,2021-10-27_11h10.43.946,arrow_simon_punish,2021.1.2,Win32,60.0240096,,,,,,,,,,,,,,,,,,,,,,,,,,,,,,,,,,,,,,
,,,w,1,1.064,1,1,5,2,1,left.png,,w,left,6168e3efc08671bd92f7fd37,2021-10-27_11h10.43.946,arrow_simon_punish,2021.1.2,Win32,60.0240096,,,,,,,,,,,,,,,,,,,,,,,,,,,,,,,,,,,,,,
,,,p,1,1.122,1,2,6,0,1,right.png,,p,left,6168e3efc08671bd92f7fd37,2021-10-27_11h10.43.946,arrow_simon_punish,2021.1.2,Win32,60.0240096,,,,,,,,,,,,,,,,,,,,,,,,,,,,,,,,,,,,,,
,,,w,1,1.342,1,3,7,3,1,left.png,,w,right,6168e3efc08671bd92f7fd37,2021-10-27_11h10.43.946,arrow_simon_punish,2021.1.2,Win32,60.0240096,,,,,,,,,,,,,,,,,,,,,,,,,,,,,,,,,,,,,,
,,,w,1,0.887,2,0,8,3,1,left.png,,w,right,6168e3efc08671bd92f7fd37,2021-10-27_11h10.43.946,arrow_simon_punish,2021.1.2,Win32,60.0240096,,,,,,,,,,,,,,,,,,,,,,,,,,,,,,,,,,,,,,
,,,p,0,0.58,2,1,9,2,1,left.png,,w,left,6168e3efc08671bd92f7fd37,2021-10-27_11h10.43.946,arrow_simon_punish,2021.1.2,Win32,60.0240096,,,,,,,,,,,,,,,,,,,,,,,,,,,,,,,,,,,,,,
,,,p,1,1.235,2,2,10,0,1,right.png,,p,left,6168e3efc08671bd92f7fd37,2021-10-27_11h10.43.946,arrow_simon_punish,2021.1.2,Win32,60.0240096,,,,,,,,,,,,,,,,,,,,,,,,,,,,,,,,,,,,,,
,,,p,1,1.186,2,3,11,1,1,right.png,,p,right,6168e3efc08671bd92f7fd37,2021-10-27_11h10.43.946,arrow_simon_punish,2021.1.2,Win32,60.0240096,,,,,,,,,,,,,,,,,,,,,,,,,,,,,,,,,,,,,,
,,,p,1,1.086,3,0,12,0,1,right.png,,p,left,6168e3efc08671bd92f7fd37,2021-10-27_11h10.43.946,arrow_simon_punish,2021.1.2,Win32,60.0240096,,,,,,,,,,,,,,,,,,,,,,,,,,,,,,,,,,,,,,
,,,w,1,1.76,3,1,13,3,1,left.png,,w,right,6168e3efc08671bd92f7fd37,2021-10-27_11h10.43.946,arrow_simon_punish,2021.1.2,Win32,60.0240096,,,,,,,,,,,,,,,,,,,,,,,,,,,,,,,,,,,,,,
,,,w,1,0.921,3,2,14,2,1,left.png,,w,left,6168e3efc08671bd92f7fd37,2021-10-27_11h10.43.946,arrow_simon_punish,2021.1.2,Win32,60.0240096,,,,,,,,,,,,,,,,,,,,,,,,,,,,,,,,,,,,,,
,,,p,1,1.368,3,3,15,1,1,right.png,,p,right,6168e3efc08671bd92f7fd37,2021-10-27_11h10.43.946,arrow_simon_punish,2021.1.2,Win32,60.0240096,,,,,,,,,,,,,,,,,,,,,,,,,,,,,,,,,,,,,,
,,,w,1,0.822,4,0,16,3,1,left.png,,w,right,6168e3efc08671bd92f7fd37,2021-10-27_11h10.43.946,arrow_simon_punish,2021.1.2,Win32,60.0240096,,,,,,,,,,,,,,,,,,,,,,,,,,,,,,,,,,,,,,
,,,p,1,0.598,4,1,17,1,1,right.png,,p,right,6168e3efc08671bd92f7fd37,2021-10-27_11h10.43.946,arrow_simon_punish,2021.1.2,Win32,60.0240096,,,,,,,,,,,,,,,,,,,,,,,,,,,,,,,,,,,,,,
,,,p,1,1.144,4,2,18,0,1,right.png,,p,left,6168e3efc08671bd92f7fd37,2021-10-27_11h10.43.946,arrow_simon_punish,2021.1.2,Win32,60.0240096,,,,,,,,,,,,,,,,,,,,,,,,,,,,,,,,,,,,,,
,,,w,1,0.612,4,3,19,2,1,left.png,,w,left,6168e3efc08671bd92f7fd37,2021-10-27_11h10.43.946,arrow_simon_punish,2021.1.2,Win32,60.0240096,,,,,,,,,,,,,,,,,,,,,,,,,,,,,,,,,,,,,,
,,,p,1,0.758,5,0,20,0,1,right.png,,p,left,6168e3efc08671bd92f7fd37,2021-10-27_11h10.43.946,arrow_simon_punish,2021.1.2,Win32,60.0240096,,,,,,,,,,,,,,,,,,,,,,,,,,,,,,,,,,,,,,
,,,w,1,0.553,5,1,21,3,1,left.png,,w,right,6168e3efc08671bd92f7fd37,2021-10-27_11h10.43.946,arrow_simon_punish,2021.1.2,Win32,60.0240096,,,,,,,,,,,,,,,,,,,,,,,,,,,,,,,,,,,,,,
,,,p,1,0.474,5,2,22,1,1,right.png,,p,right,6168e3efc08671bd92f7fd37,2021-10-27_11h10.43.946,arrow_simon_punish,2021.1.2,Win32,60.0240096,,,,,,,,,,,,,,,,,,,,,,,,,,,,,,,,,,,,,,
,,,w,1,0.856,5,3,23,2,1,left.png,,w,left,6168e3efc08671bd92f7fd37,2021-10-27_11h10.43.946,arrow_simon_punish,2021.1.2,Win32,60.0240096,,,,,,,,,,,,,,,,,,,,,,,,,,,,,,,,,,,,,,
,,,p,1,0.88,6,0,24,0,1,right.png,,p,left,6168e3efc08671bd92f7fd37,2021-10-27_11h10.43.946,arrow_simon_punish,2021.1.2,Win32,60.0240096,,,,,,,,,,,,,,,,,,,,,,,,,,,,,,,,,,,,,,
,,,w,1,1.173,6,1,25,2,1,left.png,,w,left,6168e3efc08671bd92f7fd37,2021-10-27_11h10.43.946,arrow_simon_punish,2021.1.2,Win32,60.0240096,,,,,,,,,,,,,,,,,,,,,,,,,,,,,,,,,,,,,,
,,,w,1,1.373,6,2,26,3,1,left.png,,w,right,6168e3efc08671bd92f7fd37,2021-10-27_11h10.43.946,arrow_simon_punish,2021.1.2,Win32,60.0240096,,,,,,,,,,,,,,,,,,,,,,,,,,,,,,,,,,,,,,
,,,p,1,0.571,6,3,27,1,1,right.png,,p,right,6168e3efc08671bd92f7fd37,2021-10-27_11h10.43.946,arrow_simon_punish,2021.1.2,Win32,60.0240096,,,,,,,,,,,,,,,,,,,,,,,,,,,,,,,,,,,,,,
,,,p,1,0.781,7,0,28,0,1,right.png,,p,left,6168e3efc08671bd92f7fd37,2021-10-27_11h10.43.946,arrow_simon_punish,2021.1.2,Win32,60.0240096,,,,,,,,,,,,,,,,,,,,,,,,,,,,,,,,,,,,,,
,,,w,1,1.435,7,1,29,3,1,left.png,,w,right,6168e3efc08671bd92f7fd37,2021-10-27_11h10.43.946,arrow_simon_punish,2021.1.2,Win32,60.0240096,,,,,,,,,,,,,,,,,,,,,,,,,,,,,,,,,,,,,,
,,,w,1,1.057,7,2,30,2,1,left.png,,w,left,6168e3efc08671bd92f7fd37,2021-10-27_11h10.43.946,arrow_simon_punish,2021.1.2,Win32,60.0240096,,,,,,,,,,,,,,,,,,,,,,,,,,,,,,,,,,,,,,
,,,p,1,1.025,7,3,31,1,1,right.png,,p,right,6168e3efc08671bd92f7fd37,2021-10-27_11h10.43.946,arrow_simon_punish,2021.1.2,Win32,60.0240096,,,,,,,,,,,,,,,,,,,,,,,,,,,,,,,,,,,,,,
,,,p,1,1.171,8,0,32,1,1,right.png,,p,right,6168e3efc08671bd92f7fd37,2021-10-27_11h10.43.946,arrow_simon_punish,2021.1.2,Win32,60.0240096,,,,,,,,,,,,,,,,,,,,,,,,,,,,,,,,,,,,,,
,,,w,1,1.237,8,1,33,2,1,left.png,,w,left,6168e3efc08671bd92f7fd37,2021-10-27_11h10.43.946,arrow_simon_punish,2021.1.2,Win32,60.0240096,,,,,,,,,,,,,,,,,,,,,,,,,,,,,,,,,,,,,,
,,,w,1,1.004,8,2,34,3,1,left.png,,w,right,6168e3efc08671bd92f7fd37,2021-10-27_11h10.43.946,arrow_simon_punish,2021.1.2,Win32,60.0240096,,,,,,,,,,,,,,,,,,,,,,,,,,,,,,,,,,,,,,
,,,p,1,0.84,8,3,35,0,1,right.png,,p,left,6168e3efc08671bd92f7fd37,2021-10-27_11h10.43.946,arrow_simon_punish,2021.1.2,Win32,60.0240096,,,,,,,,,,,,,,,,,,,,,,,,,,,,,,,,,,,,,,
,,,p,1,0.807,9,0,36,1,1,right.png,,p,right,6168e3efc08671bd92f7fd37,2021-10-27_11h10.43.946,arrow_simon_punish,2021.1.2,Win32,60.0240096,,,,,,,,,,,,,,,,,,,,,,,,,,,,,,,,,,,,,,
,,,w,1,0.643,9,1,37,3,1,left.png,,w,right,6168e3efc08671bd92f7fd37,2021-10-27_11h10.43.946,arrow_simon_punish,2021.1.2,Win32,60.0240096,,,,,,,,,,,,,,,,,,,,,,,,,,,,,,,,,,,,,,
,,,p,1,0.654,9,2,38,0,1,right.png,,p,left,6168e3efc08671bd92f7fd37,2021-10-27_11h10.43.946,arrow_simon_punish,2021.1.2,Win32,60.0240096,,,,,,,,,,,,,,,,,,,,,,,,,,,,,,,,,,,,,,
,,,w,1,1.356,9,3,39,2,1,left.png,,w,left,6168e3efc08671bd92f7fd37,2021-10-27_11h10.43.946,arrow_simon_punish,2021.1.2,Win32,60.0240096,,,,,,,,,,,,,,,,,,,,,,,,,,,,,,,,,,,,,,
,,,,,,,,,,,,,,,6168e3efc08671bd92f7fd37,2021-10-27_11h10.43.946,arrow_simon_punish,2021.1.2,Win32,60.0240096,space,0,27.546,p,3.372,0,0,0,0,1,,,,,,,,,,,,,,,,,,,,,,,,,,,,
,,,,,,,,,,,,,,,6168e3efc08671bd92f7fd37,2021-10-27_11h10.43.946,arrow_simon_punish,2021.1.2,Win32,60.0240096,,,,p,1.323,1,0,1,0,1,,,,,,,,,,,,,,,,,,,,,,,,,,,,
,,,,,,,,,,,,,,,6168e3efc08671bd92f7fd37,2021-10-27_11h10.43.946,arrow_simon_punish,2021.1.2,Win32,60.0240096,,,,p,1.28,2,0,2,0,1,,,,,,,,,,,,,,,,,,,,,,,,,,,,
,,,,,,,,,,,,,,,6168e3efc08671bd92f7fd37,2021-10-27_11h10.43.946,arrow_simon_punish,2021.1.2,Win32,60.0240096,,,,w,1.774,3,0,3,0,1,,,,,,,,,,,,,,,,,,,,,,,,,,,,
,,,,,,,,,,,,,,,6168e3efc08671bd92f7fd37,2021-10-27_11h10.43.946,arrow_simon_punish,2021.1.2,Win32,60.0240096,,,,p,2.925,4,0,4,0,1,,,,,,,,,,,,,,,,,,,,,,,,,,,,
,,,,,,,,,,,,,,,6168e3efc08671bd92f7fd37,2021-10-27_11h10.43.946,arrow_simon_punish,2021.1.2,Win32,60.0240096,,,,w,2.354,5,0,5,0,1,,,,,,,,,,,,,,,,,,,,,,,,,,,,
,,,,,,,,,,,,,,,6168e3efc08671bd92f7fd37,2021-10-27_11h10.43.946,arrow_simon_punish,2021.1.2,Win32,60.0240096,,,,w,2.723,6,0,6,0,1,,,,,,,,,,,,,,,,,,,,,,,,,,,,
,,,,,,,,,,,,,,,6168e3efc08671bd92f7fd37,2021-10-27_11h10.43.946,arrow_simon_punish,2021.1.2,Win32,60.0240096,,,,w,2.439,7,0,7,0,1,,,,,,,,,,,,,,,,,,,,,,,,,,,,
,,,,,,,,,,,,,,,6168e3efc08671bd92f7fd37,2021-10-27_11h10.43.946,arrow_simon_punish,2021.1.2,Win32,60.0240096,,,,p,2.619,8,0,8,0,1,,,,,,,,,,,,,,,,,,,,,,,,,,,,
,,,,,,,,,,,,,,,6168e3efc08671bd92f7fd37,2021-10-27_11h10.43.946,arrow_simon_punish,2021.1.2,Win32,60.0240096,,,,p,2.521,9,0,9,0,1,,,,,,,,,,,,,,,,,,,,,,,,,,,,
,,,,,,,,,,,,,,,6168e3efc08671bd92f7fd37,2021-10-27_11h10.43.946,arrow_simon_punish,2021.1.2,Win32,60.0240096,,,,w,2.567,10,0,10,0,1,,,,,,,,,,,,,,,,,,,,,,,,,,,,
,,,,,,,,,,,,,,,6168e3efc08671bd92f7fd37,2021-10-27_11h10.43.946,arrow_simon_punish,2021.1.2,Win32,60.0240096,,,,p,2.511,11,0,11,0,1,,,,,,,,,,,,,,,,,,,,,,,,,,,,
,,,,,,,,,,,,,,,6168e3efc08671bd92f7fd37,2021-10-27_11h10.43.946,arrow_simon_punish,2021.1.2,Win32,60.0240096,,,,p,2.639,12,0,12,0,1,,,,,,,,,,,,,,,,,,,,,,,,,,,,
,,,,,,,,,,,,,,,6168e3efc08671bd92f7fd37,2021-10-27_11h10.43.946,arrow_simon_punish,2021.1.2,Win32,60.0240096,,,,w,2.555,13,0,13,0,1,,,,,,,,,,,,,,,,,,,,,,,,,,,,
,,,,,,,,,,,,,,,6168e3efc08671bd92f7fd37,2021-10-27_11h10.43.946,arrow_simon_punish,2021.1.2,Win32,60.0240096,,,,p,2.433,14,0,14,0,1,,,,,,,,,,,,,,,,,,,,,,,,,,,,
,,,,,,,,,,,,,,,6168e3efc08671bd92f7fd37,2021-10-27_11h10.43.946,arrow_simon_punish,2021.1.2,Win32,60.0240096,,,,w,2.491,15,0,15,0,1,,,,,,,,,,,,,,,,,,,,,,,,,,,,
,,,,,,,,,,,,,,,6168e3efc08671bd92f7fd37,2021-10-27_11h10.43.946,arrow_simon_punish,2021.1.2,Win32,60.0240096,,,,p,2.487,16,0,16,0,1,,,,,,,,,,,,,,,,,,,,,,,,,,,,
,,,,,,,,,,,,,,,6168e3efc08671bd92f7fd37,2021-10-27_11h10.43.946,arrow_simon_punish,2021.1.2,Win32,60.0240096,,,,w,2.384,17,0,17,0,1,,,,,,,,,,,,,,,,,,,,,,,,,,,,
,,,,,,,,,,,,,,,6168e3efc08671bd92f7fd37,2021-10-27_11h10.43.946,arrow_simon_punish,2021.1.2,Win32,60.0240096,,,,p,2.61,18,0,18,0,1,,,,,,,,,,,,,,,,,,,,,,,,,,,,
,,,,,,,,,,,,,,,6168e3efc08671bd92f7fd37,2021-10-27_11h10.43.946,arrow_simon_punish,2021.1.2,Win32,60.0240096,,,,w,2.475,19,0,19,0,1,,,,,,,,,,,,,,,,,,,,,,,,,,,,
,,,,,,,,,,,,,,,6168e3efc08671bd92f7fd37,2021-10-27_11h10.43.946,arrow_simon_punish,2021.1.2,Win32,60.0240096,,,,p,2.531,20,0,20,0,1,,,,,,,,,,,,,,,,,,,,,,,,,,,,
,,,,,,,,,,,,,,,6168e3efc08671bd92f7fd37,2021-10-27_11h10.43.946,arrow_simon_punish,2021.1.2,Win32,60.0240096,,,,w,2.624,21,0,21,0,1,,,,,,,,,,,,,,,,,,,,,,,,,,,,
,,,,,,,,,,,,,,,6168e3efc08671bd92f7fd37,2021-10-27_11h10.43.946,arrow_simon_punish,2021.1.2,Win32,60.0240096,,,,p,2.555,22,0,22,0,1,,,,,,,,,,,,,,,,,,,,,,,,,,,,
,,,,,,,,,,,,,,,6168e3efc08671bd92f7fd37,2021-10-27_11h10.43.946,arrow_simon_punish,2021.1.2,Win32,60.0240096,,,,w,2.589,23,0,23,0,1,,,,,,,,,,,,,,,,,,,,,,,,,,,,
,,,,,,,,,,,,,,,6168e3efc08671bd92f7fd37,2021-10-27_11h10.43.946,arrow_simon_punish,2021.1.2,Win32,60.0240096,,,,p,2.521,24,0,24,0,1,,,,,,,,,,,,,,,,,,,,,,,,,,,,
,,,,,,,,,,,,,,,6168e3efc08671bd92f7fd37,2021-10-27_11h10.43.946,arrow_simon_punish,2021.1.2,Win32,60.0240096,,,,w,2.497,25,0,25,0,1,,,,,,,,,,,,,,,,,,,,,,,,,,,,
,,,,,,,,,,,,,,,6168e3efc08671bd92f7fd37,2021-10-27_11h10.43.946,arrow_simon_punish,2021.1.2,Win32,60.0240096,,,,p,2.522,26,0,26,0,1,,,,,,,,,,,,,,,,,,,,,,,,,,,,
,,,,,,,,,,,,,,,6168e3efc08671bd92f7fd37,2021-10-27_11h10.43.946,arrow_simon_punish,2021.1.2,Win32,60.0240096,,,,w,2.583,27,0,27,0,1,,,,,,,,,,,,,,,,,,,,,,,,,,,,
,,,,,,,,,,,,,,,6168e3efc08671bd92f7fd37,2021-10-27_11h10.43.946,arrow_simon_punish,2021.1.2,Win32,60.0240096,,,,p,2.586,28,0,28,0,1,,,,,,,,,,,,,,,,,,,,,,,,,,,,
,,,,,,,,,,,,,,,6168e3efc08671bd92f7fd37,2021-10-27_11h10.43.946,arrow_simon_punish,2021.1.2,Win32,60.0240096,,,,w,2.573,29,0,29,0,1,,,,,,,,,,,,,,,,,,,,,,,,,,,,
,,,,,,,,,,,,,,,6168e3efc08671bd92f7fd37,2021-10-27_11h10.43.946,arrow_simon_punish,2021.1.2,Win32,60.0240096,,,,p,2.343,30,0,30,0,1,,,,,,,,,,,,,,,,,,,,,,,,,,,,
,,,,,,,,,,,,,,,6168e3efc08671bd92f7fd37,2021-10-27_11h10.43.946,arrow_simon_punish,2021.1.2,Win32,60.0240096,,,,w,2.534,31,0,31,0,1,,,,,,,,,,,,,,,,,,,,,,,,,,,,
,,,,,,,,,,,,,,,6168e3efc08671bd92f7fd37,2021-10-27_11h10.43.946,arrow_simon_punish,2021.1.2,Win32,60.0240096,,,,p,2.608,32,0,32,0,1,,,,,,,,,,,,,,,,,,,,,,,,,,,,
,,,,,,,,,,,,,,,6168e3efc08671bd92f7fd37,2021-10-27_11h10.43.946,arrow_simon_punish,2021.1.2,Win32,60.0240096,,,,w,2.509,33,0,33,0,1,,,,,,,,,,,,,,,,,,,,,,,,,,,,
,,,,,,,,,,,,,,,6168e3efc08671bd92f7fd37,2021-10-27_11h10.43.946,arrow_simon_punish,2021.1.2,Win32,60.0240096,,,,p,2.57,34,0,34,0,1,,,,,,,,,,,,,,,,,,,,,,,,,,,,
,,,,,,,,,,,,,,,6168e3efc08671bd92f7fd37,2021-10-27_11h10.43.946,arrow_simon_punish,2021.1.2,Win32,60.0240096,,,,w,2.606,35,0,35,0,1,,,,,,,,,,,,,,,,,,,,,,,,,,,,
,,,,,,,,,,,,,,,6168e3efc08671bd92f7fd37,2021-10-27_11h10.43.946,arrow_simon_punish,2021.1.2,Win32,60.0240096,,,,p,2.502,36,0,36,0,1,,,,,,,,,,,,,,,,,,,,,,,,,,,,
,,,,,,,,,,,,,,,6168e3efc08671bd92f7fd37,2021-10-27_11h10.43.946,arrow_simon_punish,2021.1.2,Win32,60.0240096,,,,w,2.633,37,0,37,0,1,,,,,,,,,,,,,,,,,,,,,,,,,,,,
,,,,,,,,,,,,,,,6168e3efc08671bd92f7fd37,2021-10-27_11h10.43.946,arrow_simon_punish,2021.1.2,Win32,60.0240096,,,,p,2.667,38,0,38,0,1,,,,,,,,,,,,,,,,,,,,,,,,,,,,
,,,,,,,,,,,,,,,6168e3efc08671bd92f7fd37,2021-10-27_11h10.43.946,arrow_simon_punish,2021.1.2,Win32,60.0240096,,,,w,2.635,39,0,39,0,1,,,,,,,,,,,,,,,,,,,,,,,,,,,,
,,,,,,,,,,,,,,,6168e3efc08671bd92f7fd37,2021-10-27_11h10.43.946,arrow_simon_punish,2021.1.2,Win32,60.0240096,,,,p,2.448,40,0,40,0,1,,,,,,,,,,,,,,,,,,,,,,,,,,,,
,,,,,,,,,,,,,,,6168e3efc08671bd92f7fd37,2021-10-27_11h10.43.946,arrow_simon_punish,2021.1.2,Win32,60.0240096,,,,w,2.484,41,0,41,0,1,,,,,,,,,,,,,,,,,,,,,,,,,,,,
,,,,,,,,,,,,,,,6168e3efc08671bd92f7fd37,2021-10-27_11h10.43.946,arrow_simon_punish,2021.1.2,Win32,60.0240096,,,,p,2.453,42,0,42,0,1,,,,,,,,,,,,,,,,,,,,,,,,,,,,
,,,,,,,,,,,,,,,6168e3efc08671bd92f7fd37,2021-10-27_11h10.43.946,arrow_simon_punish,2021.1.2,Win32,60.0240096,,,,w,2.435,43,0,43,0,1,,,,,,,,,,,,,,,,,,,,,,,,,,,,
,,,,,,,,,,,,,,,6168e3efc08671bd92f7fd37,2021-10-27_11h10.43.946,arrow_simon_punish,2021.1.2,Win32,60.0240096,,,,p,2.476,44,0,44,0,1,,,,,,,,,,,,,,,,,,,,,,,,,,,,
,,,,,,,,,,,,,,,6168e3efc08671bd92f7fd37,2021-10-27_11h10.43.946,arrow_simon_punish,2021.1.2,Win32,60.0240096,,,,w,2.51,45,0,45,0,1,,,,,,,,,,,,,,,,,,,,,,,,,,,,
,,,,,,,,,,,,,,,6168e3efc08671bd92f7fd37,2021-10-27_11h10.43.946,arrow_simon_punish,2021.1.2,Win32,60.0240096,,,,p,2.552,46,0,46,0,1,,,,,,,,,,,,,,,,,,,,,,,,,,,,
,,,,,,,,,,,,,,,6168e3efc08671bd92f7fd37,2021-10-27_11h10.43.946,arrow_simon_punish,2021.1.2,Win32,60.0240096,,,,w,2.471,47,0,47,0,1,,,,,,,,,,,,,,,,,,,,,,,,,,,,
,,,,,,,,,,,,,,,6168e3efc08671bd92f7fd37,2021-10-27_11h10.43.946,arrow_simon_punish,2021.1.2,Win32,60.0240096,,,,p,2.543,48,0,48,0,1,,,,,,,,,,,,,,,,,,,,,,,,,,,,
,,,,,,,,,,,,,,,6168e3efc08671bd92f7fd37,2021-10-27_11h10.43.946,arrow_simon_punish,2021.1.2,Win32,60.0240096,,,,w,2.555,49,0,49,0,1,,,,,,,,,,,,,,,,,,,,,,,,,,,,
,,,,,,,,,,,,,,,6168e3efc08671bd92f7fd37,2021-10-27_11h10.43.946,arrow_simon_punish,2021.1.2,Win32,60.0240096,,,,p,2.592,50,0,50,0,1,,,,,,,,,,,,,,,,,,,,,,,,,,,,
,,,,,,,,,,,,,,,6168e3efc08671bd92f7fd37,2021-10-27_11h10.43.946,arrow_simon_punish,2021.1.2,Win32,60.0240096,,,,w,2.569,51,0,51,0,1,,,,,,,,,,,,,,,,,,,,,,,,,,,,
,,,,,,,,,,,,,,,6168e3efc08671bd92f7fd37,2021-10-27_11h10.43.946,arrow_simon_punish,2021.1.2,Win32,60.0240096,,,,p,2.606,52,0,52,0,1,,,,,,,,,,,,,,,,,,,,,,,,,,,,
,,,,,,,,,,,,,,,6168e3efc08671bd92f7fd37,2021-10-27_11h10.43.946,arrow_simon_punish,2021.1.2,Win32,60.0240096,,,,w,2.577,53,0,53,0,1,,,,,,,,,,,,,,,,,,,,,,,,,,,,
,,,,,,,,,,,,,,,6168e3efc08671bd92f7fd37,2021-10-27_11h10.43.946,arrow_simon_punish,2021.1.2,Win32,60.0240096,,,,p,2.548,54,0,54,0,1,,,,,,,,,,,,,,,,,,,,,,,,,,,,
,,,,,,,,,,,,,,,6168e3efc08671bd92f7fd37,2021-10-27_11h10.43.946,arrow_simon_punish,2021.1.2,Win32,60.0240096,,,,w,2.612,55,0,55,0,1,,,,,,,,,,,,,,,,,,,,,,,,,,,,
,,,,,,,,,,,,,,,6168e3efc08671bd92f7fd37,2021-10-27_11h10.43.946,arrow_simon_punish,2021.1.2,Win32,60.0240096,,,,p,2.588,56,0,56,0,1,,,,,,,,,,,,,,,,,,,,,,,,,,,,
,,,,,,,,,,,,,,,6168e3efc08671bd92f7fd37,2021-10-27_11h10.43.946,arrow_simon_punish,2021.1.2,Win32,60.0240096,,,,w,2.502,57,0,57,0,1,,,,,,,,,,,,,,,,,,,,,,,,,,,,
,,,,,,,,,,,,,,,6168e3efc08671bd92f7fd37,2021-10-27_11h10.43.946,arrow_simon_punish,2021.1.2,Win32,60.0240096,,,,p,2.549,58,0,58,0,1,,,,,,,,,,,,,,,,,,,,,,,,,,,,
,,,,,,,,,,,,,,,6168e3efc08671bd92f7fd37,2021-10-27_11h10.43.946,arrow_simon_punish,2021.1.2,Win32,60.0240096,,,,w,2.603,59,0,59,0,1,,,,,,,,,,,,,,,,,,,,,,,,,,,,
,,,,,,,,,,,left.png,,w,left,6168e3efc08671bd92f7fd37,2021-10-27_11h10.43.946,arrow_simon_punish,2021.1.2,Win32,60.0240096,,,,,,,,,,,space,0,70.232,w,1,1.603,1.820444383,1,1,0,0,0,2,1,,,,,,,,,,,,,,
,,,,,,,,,,,left.png,,w,right,6168e3efc08671bd92f7fd37,2021-10-27_11h10.43.946,arrow_simon_punish,2021.1.2,Win32,60.0240096,,,,,,,,,,,,,,p,0,1.673,2.376918227,1,1,0,1,1,3,1,,,,,,,,,,,,,,
,,,,,,,,,,,left.png,,w,left,6168e3efc08671bd92f7fd37,2021-10-27_11h10.43.946,arrow_simon_punish,2021.1.2,Win32,60.0240096,,,,,,,,,,,,,,w,1,1.125,1.599541661,1,1,0,2,2,2,1,,,,,,,,,,,,,,
,,,,,,,,,,,right.png,,p,right,6168e3efc08671bd92f7fd37,2021-10-27_11h10.43.946,arrow_simon_punish,2021.1.2,Win32,60.0240096,,,,,,,,,,,,,,p,1,1.553,2.275567006,0,1,0,3,3,1,1,,,,,,,,,,,,,,
,,,,,,,,,,,left.png,,w,left,6168e3efc08671bd92f7fd37,2021-10-27_11h10.43.946,arrow_simon_punish,2021.1.2,Win32,60.0240096,,,,,,,,,,,,,,w,1,1.441,1.783517046,0,1,1,0,4,2,1,,,,,,,,,,,,,,
,,,,,,,,,,,right.png,,p,left,6168e3efc08671bd92f7fd37,2021-10-27_11h10.43.946,arrow_simon_punish,2021.1.2,Win32,60.0240096,,,,,,,,,,,,,,p,1,1.603,2.367214432,1,1,1,1,5,0,1,,,,,,,,,,,,,,
,,,,,,,,,,,left.png,,w,right,6168e3efc08671bd92f7fd37,2021-10-27_11h10.43.946,arrow_simon_punish,2021.1.2,Win32,60.0240096,,,,,,,,,,,,,,w,1,1.635,1.754860416,1,1,1,2,6,3,1,,,,,,,,,,,,,,
,,,,,,,,,,,right.png,,p,right,6168e3efc08671bd92f7fd37,2021-10-27_11h10.43.946,arrow_simon_punish,2021.1.2,Win32,60.0240096,,,,,,,,,,,,,,p,1,1.794,1.93845725,1,1,1,3,7,1,1,,,,,,,,,,,,,,
,,,,,,,,,,,left.png,,w,right,6168e3efc08671bd92f7fd37,2021-10-27_11h10.43.946,arrow_simon_punish,2021.1.2,Win32,60.0240096,,,,,,,,,,,,,,w,1,1.439,1.790864948,0,1,2,0,8,3,1,,,,,,,,,,,,,,
,,,,,,,,,,,left.png,,w,right,6168e3efc08671bd92f7fd37,2021-10-27_11h10.43.946,arrow_simon_punish,2021.1.2,Win32,60.0240096,,,,,,,,,,,,,,w,1,1.623,1.722816905,1,1,2,1,9,3,1,,,,,,,,,,,,,,
,,,,,,,,,,,right.png,,p,right,6168e3efc08671bd92f7fd37,2021-10-27_11h10.43.946,arrow_simon_punish,2021.1.2,Win32,60.0240096,,,,,,,,,,,,,,w,0,1.637,2.428431238,1,1,2,2,10,1,1,,,,,,,,,,,,,,
,,,,,,,,,,,right.png,,p,right,6168e3efc08671bd92f7fd37,2021-10-27_11h10.43.946,arrow_simon_punish,2021.1.2,Win32,60.0240096,,,,,,,,,,,,,,p,1,1.616,2.435339875,1,1,2,3,11,1,1,,,,,,,,,,,,,,
,,,,,,,,,,,left.png,,w,left,6168e3efc08671bd92f7fd37,2021-10-27_11h10.43.946,arrow_simon_punish,2021.1.2,Win32,60.0240096,,,,,,,,,,,,,,w,1,1.587,2.31926514,0,1,3,0,12,2,1,,,,,,,,,,,,,,
,,,,,,,,,,,right.png,,p,left,6168e3efc08671bd92f7fd37,2021-10-27_11h10.43.946,arrow_simon_punish,2021.1.2,Win32,60.0240096,,,,,,,,,,,,,,w,0,1.647,2.378107903,1,1,3,1,13,0,1,,,,,,,,,,,,,,
,,,,,,,,,,,right.png,,p,left,6168e3efc08671bd92f7fd37,2021-10-27_11h10.43.946,arrow_simon_punish,2021.1.2,Win32,60.0240096,,,,,,,,,,,,,,p,1,1.5,2.019042764,0,1,3,2,14,0,1,,,,,,,,,,,,,,
,,,,,,,,,,,left.png,,w,right,6168e3efc08671bd92f7fd37,2021-10-27_11h10.43.946,arrow_simon_punish,2021.1.2,Win32,60.0240096,,,,,,,,,,,,,,w,1,1.534,2.065469111,0,1,3,3,15,3,1,,,,,,,,,,,,,,
,,,,,,,,,,,right.png,,p,right,6168e3efc08671bd92f7fd37,2021-10-27_11h10.43.946,arrow_simon_punish,2021.1.2,Win32,60.0240096,,,,,,,,,,,,,,p,1,1.593,1.527602404,0,1,4,0,16,1,1,,,,,,,,,,,,,,
,,,,,,,,,,,right.png,,p,left,6168e3efc08671bd92f7fd37,2021-10-27_11h10.43.946,arrow_simon_punish,2021.1.2,Win32,60.0240096,,,,,,,,,,,,,,p,1,1.604,1.656476216,1,1,4,1,17,0,1,,,,,,,,,,,,,,
,,,,,,,,,,,left.png,,w,left,6168e3efc08671bd92f7fd37,2021-10-27_11h10.43.946,arrow_simon_punish,2021.1.2,Win32,60.0240096,,,,,,,,,,,,,,w,1,1.388,1.96178668,1,1,4,2,18,2,1,,,,,,,,,,,,,,
,,,,,,,,,,,left.png,,w,left,6168e3efc08671bd92f7fd37,2021-10-27_11h10.43.946,arrow_simon_punish,2021.1.2,Win32,60.0240096,,,,,,,,,,,,,,w,1,1.485,1.872587142,0,1,4,3,19,2,1,,,,,,,,,,,,,,
,,,,,,,,,,,left.png,,w,right,6168e3efc08671bd92f7fd37,2021-10-27_11h10.43.946,arrow_simon_punish,2021.1.2,Win32,60.0240096,,,,,,,,,,,,,,w,1,1.609,1.579305434,1,1,5,0,20,3,1,,,,,,,,,,,,,,
,,,,,,,,,,,right.png,,p,right,6168e3efc08671bd92f7fd37,2021-10-27_11h10.43.946,arrow_simon_punish,2021.1.2,Win32,60.0240096,,,,,,,,,,,,,,p,1,1.59,1.713573592,0,1,5,1,21,1,1,,,,,,,,,,,,,,
,,,,,,,,,,,left.png,,w,left,6168e3efc08671bd92f7fd37,2021-10-27_11h10.43.946,arrow_simon_punish,2021.1.2,Win32,60.0240096,,,,,,,,,,,,,,w,1,1.494,2.1837554,0,1,5,2,22,2,1,,,,,,,,,,,,,,
,,,,,,,,,,,right.png,,p,left,6168e3efc08671bd92f7fd37,2021-10-27_11h10.43.946,arrow_simon_punish,2021.1.2,Win32,60.0240096,,,,,,,,,,,,,,p,1,1.561,2.341852802,0,1,5,3,23,0,1,,,,,,,,,,,,,,
,,,,,,,,,,,left.png,,w,left,6168e3efc08671bd92f7fd37,2021-10-27_11h10.43.946,arrow_simon_punish,2021.1.2,Win32,60.0240096,,,,,,,,,,,,,,w,1,1.606,2.36967403,1,1,6,0,24,2,1,,,,,,,,,,,,,,
,,,,,,,,,,,right.png,,p,left,6168e3efc08671bd92f7fd37,2021-10-27_11h10.43.946,arrow_simon_punish,2021.1.2,Win32,60.0240096,,,,,,,,,,,,,,p,1,1.744,1.966105392,1,1,6,1,25,0,1,,,,,,,,,,,,,,
,,,,,,,,,,,right.png,,p,right,6168e3efc08671bd92f7fd37,2021-10-27_11h10.43.946,arrow_simon_punish,2021.1.2,Win32,60.0240096,,,,,,,,,,,,,,p,1,1.573,1.579523919,0,1,6,2,26,1,1,,,,,,,,,,,,,,
,,,,,,,,,,,right.png,,p,left,6168e3efc08671bd92f7fd37,2021-10-27_11h10.43.946,arrow_simon_punish,2021.1.2,Win32,60.0240096,,,,,,,,,,,,,,p,1,1.559,1.683823875,0,1,6,3,27,0,1,,,,,,,,,,,,,,
,,,,,,,,,,,right.png,,p,right,6168e3efc08671bd92f7fd37,2021-10-27_11h10.43.946,arrow_simon_punish,2021.1.2,Win32,60.0240096,,,,,,,,,,,,,,p,1,1.639,2.384460909,1,1,7,0,28,1,1,,,,,,,,,,,,,,
,,,,,,,,,,,left.png,,w,right,6168e3efc08671bd92f7fd37,2021-10-27_11h10.43.946,arrow_simon_punish,2021.1.2,Win32,60.0240096,,,,,,,,,,,,,,w,1,1.509,1.601103433,0,1,7,1,29,3,1,,,,,,,,,,,,,,
,,,,,,,,,,,right.png,,p,left,6168e3efc08671bd92f7fd37,2021-10-27_11h10.43.946,arrow_simon_punish,2021.1.2,Win32,60.0240096,,,,,,,,,,,,,,p,1,1.484,2.368977876,0,1,7,2,30,0,1,,,,,,,,,,,,,,
,,,,,,,,,,,right.png,,p,right,6168e3efc08671bd92f7fd37,2021-10-27_11h10.43.946,arrow_simon_punish,2021.1.2,Win32,60.0240096,,,,,,,,,,,,,,p,1,1.055,1.672654981,1,1,7,3,31,1,1,,,,,,,,,,,,,,
,,,,,,,,,,,left.png,,w,right,6168e3efc08671bd92f7fd37,2021-10-27_11h10.43.946,arrow_simon_punish,2021.1.2,Win32,60.0240096,,,,,,,,,,,,,,w,1,1.56,2.392908794,0,1,8,0,32,3,1,,,,,,,,,,,,,,
,,,,,,,,,,,left.png,,w,left,6168e3efc08671bd92f7fd37,2021-10-27_11h10.43.946,arrow_simon_punish,2021.1.2,Win32,60.0240096,,,,,,,,,,,,,,w,1,1.456,1.938343635,0,1,8,1,33,2,1,,,,,,,,,,,,,,
,,,,,,,,,,,left.png,,w,right,6168e3efc08671bd92f7fd37,2021-10-27_11h10.43.946,arrow_simon_punish,2021.1.2,Win32,60.0240096,,,,,,,,,,,,,,p,0,1.458,1.89073681,1,1,8,2,34,3,1,,,,,,,,,,,,,,
,,,,,,,,,,,right.png,,p,left,6168e3efc08671bd92f7fd37,2021-10-27_11h10.43.946,arrow_simon_punish,2021.1.2,Win32,60.0240096,,,,,,,,,,,,,,w,0,1.439,2.151461358,1,1,8,3,35,0,1,,,,,,,,,,,,,,
,,,,,,,,,,,left.png,,w,right,6168e3efc08671bd92f7fd37,2021-10-27_11h10.43.946,arrow_simon_punish,2021.1.2,Win32,60.0240096,,,,,,,,,,,,,,p,0,1.558,2.376309136,1,1,9,0,36,3,1,,,,,,,,,,,,,,
,,,,,,,,,,,left.png,,w,left,6168e3efc08671bd92f7fd37,2021-10-27_11h10.43.946,arrow_simon_punish,2021.1.2,Win32,60.0240096,,,,,,,,,,,,,,w,1,1.572,2.329008392,0,1,9,1,37,2,1,,,,,,,,,,,,,,
,,,,,,,,,,,left.png,,w,left,6168e3efc08671bd92f7fd37,2021-10-27_11h10.43.946,arrow_simon_punish,2021.1.2,Win32,60.0240096,,,,,,,,,,,,,,w,1,1.492,1.688125669,0,1,9,2,38,2,1,,,,,,,,,,,,,,
,,,,,,,,,,,left.png,,w,right,6168e3efc08671bd92f7fd37,2021-10-27_11h10.43.946,arrow_simon_punish,2021.1.2,Win32,60.0240096,,,,,,,,,,,,,,w,1,1.407,1.844180812,0,1,9,3,39,3,1,,,,,,,,,,,,,,
,,,,,,,,,,,right.png,,p,left,6168e3efc08671bd92f7fd37,2021-10-27_11h10.43.946,arrow_simon_punish,2021.1.2,Win32,60.0240096,,,,,,,,,,,,,,p,1,1.457,1.524462707,0,1,10,0,40,0,1,,,,,,,,,,,,,,
,,,,,,,,,,,left.png,,w,right,6168e3efc08671bd92f7fd37,2021-10-27_11h10.43.946,arrow_simon_punish,2021.1.2,Win32,60.0240096,,,,,,,,,,,,,,p,0,1.539,2.313542832,1,1,10,1,41,3,1,,,,,,,,,,,,,,
,,,,,,,,,,,right.png,,p,right,6168e3efc08671bd92f7fd37,2021-10-27_11h10.43.946,arrow_simon_punish,2021.1.2,Win32,60.0240096,,,,,,,,,,,,,,p,1,1.507,1.87992621,0,1,10,2,42,1,1,,,,,,,,,,,,,,
,,,,,,,,,,,right.png,,p,left,6168e3efc08671bd92f7fd37,2021-10-27_11h10.43.946,arrow_simon_punish,2021.1.2,Win32,60.0240096,,,,,,,,,,,,,,p,1,1.473,1.987417889,0,1,10,3,43,0,1,,,,,,,,,,,,,,
,,,,,,,,,,,right.png,,p,left,6168e3efc08671bd92f7fd37,2021-10-27_11h10.43.946,arrow_simon_punish,2021.1.2,Win32,60.0240096,,,,,,,,,,,,,,w,0,1.453,2.258687929,1,1,11,0,44,0,1,,,,,,,,,,,,,,
,,,,,,,,,,,right.png,,p,left,6168e3efc08671bd92f7fd37,2021-10-27_11h10.43.946,arrow_simon_punish,2021.1.2,Win32,60.0240096,,,,,,,,,,,,,,p,1,1.509,1.621338916,0,1,11,1,45,0,1,,,,,,,,,,,,,,
,,,,,,,,,,,left.png,,w,right,6168e3efc08671bd92f7fd37,2021-10-27_11h10.43.946,arrow_simon_punish,2021.1.2,Win32,60.0240096,,,,,,,,,,,,,,w,1,1.553,2.358512747,0,1,11,2,46,3,1,,,,,,,,,,,,,,
,,,,,,,,,,,left.png,,w,left,6168e3efc08671bd92f7fd37,2021-10-27_11h10.43.946,arrow_simon_punish,2021.1.2,Win32,60.0240096,,,,,,,,,,,,,,w,1,1.553,2.434002149,0,1,11,3,47,2,1,,,,,,,,,,,,,,
,,,,,,,,,,,right.png,,p,right,6168e3efc08671bd92f7fd37,2021-10-27_11h10.43.946,arrow_simon_punish,2021.1.2,Win32,60.0240096,,,,,,,,,,,,,,p,1,1.437,2.140504558,0,1,12,0,48,1,1,,,,,,,,,,,,,,
,,,,,,,,,,,right.png,,p,right,6168e3efc08671bd92f7fd37,2021-10-27_11h10.43.946,arrow_simon_punish,2021.1.2,Win32,60.0240096,,,,,,,,,,,,,,p,1,1.529,1.558733991,0,1,12,1,49,1,1,,,,,,,,,,,,,,
,,,,,,,,,,,right.png,,p,right,6168e3efc08671bd92f7fd37,2021-10-27_11h10.43.946,arrow_simon_punish,2021.1.2,Win32,60.0240096,,,,,,,,,,,,,,p,1,1.502,2.223138083,0,1,12,2,50,1,1,,,,,,,,,,,,,,
,,,,,,,,,,,left.png,,w,right,6168e3efc08671bd92f7fd37,2021-10-27_11h10.43.946,arrow_simon_punish,2021.1.2,Win32,60.0240096,,,,,,,,,,,,,,p,0,1.432,2.187386576,1,1,12,3,51,3,1,,,,,,,,,,,,,,
,,,,,,,,,,,left.png,,w,left,6168e3efc08671bd92f7fd37,2021-10-27_11h10.43.946,arrow_simon_punish,2021.1.2,Win32,60.0240096,,,,,,,,,,,,,,w,1,1.452,2.209850166,0,1,13,0,52,2,1,,,,,,,,,,,,,,
,,,,,,,,,,,left.png,,w,left,6168e3efc08671bd92f7fd37,2021-10-27_11h10.43.946,arrow_simon_punish,2021.1.2,Win32,60.0240096,,,,,,,,,,,,,,w,1,1.435,1.981040178,0,1,13,1,53,2,1,,,,,,,,,,,,,,
,,,,,,,,,,,right.png,,p,left,6168e3efc08671bd92f7fd37,2021-10-27_11h10.43.946,arrow_simon_punish,2021.1.2,Win32,60.0240096,,,,,,,,,,,,,,p,1,1.492,2.245012923,0,1,13,2,54,0,1,,,,,,,,,,,,,,
,,,,,,,,,,,left.png,,w,left,6168e3efc08671bd92f7fd37,2021-10-27_11h10.43.946,arrow_simon_punish,2021.1.2,Win32,60.0240096,,,,,,,,,,,,,,w,1,1.376,1.850289361,1,1,13,3,55,2,1,,,,,,,,,,,,,,
,,,,,,,,,,,right.png,,p,left,6168e3efc08671bd92f7fd37,2021-10-27_11h10.43.946,arrow_simon_punish,2021.1.2,Win32,60.0240096,,,,,,,,,,,,,,p,1,1.435,1.830764574,0,1,14,0,56,0,1,,,,,,,,,,,,,,
,,,,,,,,,,,right.png,,p,right,6168e3efc08671bd92f7fd37,2021-10-27_11h10.43.946,arrow_simon_punish,2021.1.2,Win32,60.0240096,,,,,,,,,,,,,,p,1,1.542,1.690494271,0,1,14,1,57,1,1,,,,,,,,,,,,,,
,,,,,,,,,,,left.png,,w,right,6168e3efc08671bd92f7fd37,2021-10-27_11h10.43.946,arrow_simon_punish,2021.1.2,Win32,60.0240096,,,,,,,,,,,,,,w,1,1.471,1.713142879,0,1,14,2,58,3,1,,,,,,,,,,,,,,
,,,,,,,,,,,right.png,,p,right,6168e3efc08671bd92f7fd37,2021-10-27_11h10.43.946,arrow_simon_punish,2021.1.2,Win32,60.0240096,,,,,,,,,,,,,,p,1,1.435,1.860301583,0,1,14,3,59,1,1,,,,,,,,,,,,,,
,,,,,,,,,,,,,,,6168e3efc08671bd92f7fd37,2021-10-27_11h10.43.946,arrow_simon_punish,2021.1.2,Win32,60.0240096,,,,,,,,,,,,,,,,,,,,,,,,,space,38.419,2,0,0,0,0,1,1,,,,,
,,,,,,,,,,,right.png,,p,left,6168e3efc08671bd92f7fd37,2021-10-27_11h10.43.946,arrow_simon_punish,2021.1.2,Win32,60.0240096,,,,,,,,,,,,,,w,0,1.455,2.115678711,1,5,0,0,0,0,1,,,,,,,,,,,,,,
,,,,,,,,,,,left.png,,w,left,6168e3efc08671bd92f7fd37,2021-10-27_11h10.43.946,arrow_simon_punish,2021.1.2,Win32,60.0240096,,,,,,,,,,,,,,w,1,1.539,1.802029392,0,5,0,1,1,2,1,,,,,,,,,,,,,,
,,,,,,,,,,,left.png,,w,left,6168e3efc08671bd92f7fd37,2021-10-27_11h10.43.946,arrow_simon_punish,2021.1.2,Win32,60.0240096,,,,,,,,,,,,,,p,0,1.609,2.443387992,1,5,0,2,2,2,1,,,,,,,,,,,,,,
,,,,,,,,,,,left.png,,w,left,6168e3efc08671bd92f7fd37,2021-10-27_11h10.43.946,arrow_simon_punish,2021.1.2,Win32,60.0240096,,,,,,,,,,,,,,w,1,1.391,1.591845946,1,5,0,3,3,2,1,,,,,,,,,,,,,,
,,,,,,,,,,,left.png,,w,left,6168e3efc08671bd92f7fd37,2021-10-27_11h10.43.946,arrow_simon_punish,2021.1.2,Win32,60.0240096,,,,,,,,,,,,,,w,1,1.338,1.580943327,1,5,1,0,4,2,1,,,,,,,,,,,,,,
,,,,,,,,,,,left.png,,w,right,6168e3efc08671bd92f7fd37,2021-10-27_11h10.43.946,arrow_simon_punish,2021.1.2,Win32,60.0240096,,,,,,,,,,,,,,p,0,1.572,2.288041096,1,5,1,1,5,3,1,,,,,,,,,,,,,,
,,,,,,,,,,,left.png,,w,right,6168e3efc08671bd92f7fd37,2021-10-27_11h10.43.946,arrow_simon_punish,2021.1.2,Win32,60.0240096,,,,,,,,,,,,,,w,1,1.516,1.988267541,0,5,1,2,6,3,1,,,,,,,,,,,,,,
,,,,,,,,,,,right.png,,p,left,6168e3efc08671bd92f7fd37,2021-10-27_11h10.43.946,arrow_simon_punish,2021.1.2,Win32,60.0240096,,,,,,,,,,,,,,p,1,1.472,2.339199797,0,5,1,3,7,0,1,,,,,,,,,,,,,,
,,,,,,,,,,,right.png,,p,right,6168e3efc08671bd92f7fd37,2021-10-27_11h10.43.946,arrow_simon_punish,2021.1.2,Win32,60.0240096,,,,,,,,,,,,,,p,1,1.479,1.686039083,0,5,2,0,8,1,1,,,,,,,,,,,,,,
,,,,,,,,,,,right.png,,p,left,6168e3efc08671bd92f7fd37,2021-10-27_11h10.43.946,arrow_simon_punish,2021.1.2,Win32,60.0240096,,,,,,,,,,,,,,p,1,1.568,1.641958619,0,5,2,1,9,0,1,,,,,,,,,,,,,,
,,,,,,,,,,,right.png,,p,right,6168e3efc08671bd92f7fd37,2021-10-27_11h10.43.946,arrow_simon_punish,2021.1.2,Win32,60.0240096,,,,,,,,,,,,,,p,1,0.344,1.652858649,1,5,2,2,10,1,1,,,,,,,,,,,,,,
,,,,,,,,,,,left.png,,w,right,6168e3efc08671bd92f7fd37,2021-10-27_11h10.43.946,arrow_simon_punish,2021.1.2,Win32,60.0240096,,,,,,,,,,,,,,w,1,1.604,2.287940522,1,5,2,3,11,3,1,,,,,,,,,,,,,,
,,,,,,,,,,,right.png,,p,left,6168e3efc08671bd92f7fd37,2021-10-27_11h10.43.946,arrow_simon_punish,2021.1.2,Win32,60.0240096,,,,,,,,,,,,,,p,1,1.519,1.856167674,0,5,3,0,12,0,1,,,,,,,,,,,,,,
,,,,,,,,,,,left.png,,w,left,6168e3efc08671bd92f7fd37,2021-10-27_11h10.43.946,arrow_simon_punish,2021.1.2,Win32,60.0240096,,,,,,,,,,,,,,w,1,1.506,2.237682302,0,5,3,1,13,2,1,,,,,,,,,,,,,,
,,,,,,,,,,,right.png,,p,right,6168e3efc08671bd92f7fd37,2021-10-27_11h10.43.946,arrow_simon_punish,2021.1.2,Win32,60.0240096,,,,,,,,,,,,,,p,1,1.488,2.139086013,0,5,3,2,14,1,1,,,,,,,,,,,,,,
,,,,,,,,,,,left.png,,w,left,6168e3efc08671bd92f7fd37,2021-10-27_11h10.43.946,arrow_simon_punish,2021.1.2,Win32,60.0240096,,,,,,,,,,,,,,w,1,1.574,1.70172796,0,5,3,3,15,2,1,,,,,,,,,,,,,,
,,,,,,,,,,,left.png,,w,right,6168e3efc08671bd92f7fd37,2021-10-27_11h10.43.946,arrow_simon_punish,2021.1.2,Win32,60.0240096,,,,,,,,,,,,,,w,1,1.49,1.894208721,0,5,4,0,16,3,1,,,,,,,,,,,,,,
,,,,,,,,,,,left.png,,w,left,6168e3efc08671bd92f7fd37,2021-10-27_11h10.43.946,arrow_simon_punish,2021.1.2,Win32,60.0240096,,,,,,,,,,,,,,w,1,1.521,1.761692995,0,5,4,1,17,2,1,,,,,,,,,,,,,,
,,,,,,,,,,,left.png,,w,left,6168e3efc08671bd92f7fd37,2021-10-27_11h10.43.946,arrow_simon_punish,2021.1.2,Win32,60.0240096,,,,,,,,,,,,,,w,1,1.507,2.005863337,0,5,4,2,18,2,1,,,,,,,,,,,,,,
,,,,,,,,,,,left.png,,w,right,6168e3efc08671bd92f7fd37,2021-10-27_11h10.43.946,arrow_simon_punish,2021.1.2,Win32,60.0240096,,,,,,,,,,,,,,w,1,1.423,1.731342016,0,5,4,3,19,3,1,,,,,,,,,,,,,,
,,,,,,,,,,,right.png,,p,right,6168e3efc08671bd92f7fd37,2021-10-27_11h10.43.946,arrow_simon_punish,2021.1.2,Win32,60.0240096,,,,,,,,,,,,,,p,1,1.544,1.910810126,0,5,5,0,20,1,1,,,,,,,,,,,,,,
,,,,,,,,,,,right.png,,p,left,6168e3efc08671bd92f7fd37,2021-10-27_11h10.43.946,arrow_simon_punish,2021.1.2,Win32,60.0240096,,,,,,,,,,,,,,p,1,1.525,1.757609565,0,5,5,1,21,0,1,,,,,,,,,,,,,,
,,,,,,,,,,,left.png,,w,right,6168e3efc08671bd92f7fd37,2021-10-27_11h10.43.946,arrow_simon_punish,2021.1.2,Win32,60.0240096,,,,,,,,,,,,,,w,1,1.609,2.025930499,1,5,5,2,22,3,1,,,,,,,,,,,,,,
,,,,,,,,,,,right.png,,p,right,6168e3efc08671bd92f7fd37,2021-10-27_11h10.43.946,arrow_simon_punish,2021.1.2,Win32,60.0240096,,,,,,,,,,,,,,p,1,1.585,1.686123121,0,5,5,3,23,1,1,,,,,,,,,,,,,,
,,,,,,,,,,,left.png,,w,right,6168e3efc08671bd92f7fd37,2021-10-27_11h10.43.946,arrow_simon_punish,2021.1.2,Win32,60.0240096,,,,,,,,,,,,,,w,1,1.558,2.124076941,0,5,6,0,24,3,1,,,,,,,,,,,,,,
,,,,,,,,,,,right.png,,p,right,6168e3efc08671bd92f7fd37,2021-10-27_11h10.43.946,arrow_simon_punish,2021.1.2,Win32,60.0240096,,,,,,,,,,,,,,p,1,1.622,2.225651321,1,5,6,1,25,1,1,,,,,,,,,,,,,,
,,,,,,,,,,,left.png,,w,right,6168e3efc08671bd92f7fd37,2021-10-27_11h10.43.946,arrow_simon_punish,2021.1.2,Win32,60.0240096,,,,,,,,,,,,,,w,1,1.642,2.411011036,1,5,6,2,26,3,1,,,,,,,,,,,,,,
,,,,,,,,,,,left.png,,w,right,6168e3efc08671bd92f7fd37,2021-10-27_11h10.43.946,arrow_simon_punish,2021.1.2,Win32,60.0240096,,,,,,,,,,,,,,w,1,1.561,2.27159155,0,5,6,3,27,3,1,,,,,,,,,,,,,,
,,,,,,,,,,,right.png,,p,right,6168e3efc08671bd92f7fd37,2021-10-27_11h10.43.946,arrow_simon_punish,2021.1.2,Win32,60.0240096,,,,,,,,,,,,,,p,1,1.506,2.044772916,0,5,7,0,28,1,1,,,,,,,,,,,,,,
,,,,,,,,,,,right.png,,p,right,6168e3efc08671bd92f7fd37,2021-10-27_11h10.43.946,arrow_simon_punish,2021.1.2,Win32,60.0240096,,,,,,,,,,,,,,p,1,1.457,2.154427536,0,5,7,1,29,1,1,,,,,,,,,,,,,,
,,,,,,,,,,,left.png,,w,right,6168e3efc08671bd92f7fd37,2021-10-27_11h10.43.946,arrow_simon_punish,2021.1.2,Win32,60.0240096,,,,,,,,,,,,,,w,1,1.407,1.747137653,0,5,7,2,30,3,1,,,,,,,,,,,,,,
,,,,,,,,,,,right.png,,p,right,6168e3efc08671bd92f7fd37,2021-10-27_11h10.43.946,arrow_simon_punish,2021.1.2,Win32,60.0240096,,,,,,,,,,,,,,w,0,1.558,2.304329402,1,5,7,3,31,1,1,,,,,,,,,,,,,,
,,,,,,,,,,,right.png,,p,left,6168e3efc08671bd92f7fd37,2021-10-27_11h10.43.946,arrow_simon_punish,2021.1.2,Win32,60.0240096,,,,,,,,,,,,,,w,0,1.55,2.302223005,1,5,8,0,32,0,1,,,,,,,,,,,,,,
,,,,,,,,,,,left.png,,w,left,6168e3efc08671bd92f7fd37,2021-10-27_11h10.43.946,arrow_simon_punish,2021.1.2,Win32,60.0240096,,,,,,,,,,,,,,w,1,1.624,2.342272599,1,5,8,1,33,2,1,,,,,,,,,,,,,,
,,,,,,,,,,,right.png,,p,left,6168e3efc08671bd92f7fd37,2021-10-27_11h10.43.946,arrow_simon_punish,2021.1.2,Win32,60.0240096,,,,,,,,,,,,,,p,1,1.452,2.007294606,0,5,8,2,34,0,1,,,,,,,,,,,,,,
,,,,,,,,,,,left.png,,w,left,6168e3efc08671bd92f7fd37,2021-10-27_11h10.43.946,arrow_simon_punish,2021.1.2,Win32,60.0240096,,,,,,,,,,,,,,w,1,1.521,2.161914396,0,5,8,3,35,2,1,,,,,,,,,,,,,,
,,,,,,,,,,,right.png,,p,right,6168e3efc08671bd92f7fd37,2021-10-27_11h10.43.946,arrow_simon_punish,2021.1.2,Win32,60.0240096,,,,,,,,,,,,,,p,1,1.557,1.822502662,0,5,9,0,36,1,1,,,,,,,,,,,,,,
,,,,,,,,,,,left.png,,w,left,6168e3efc08671bd92f7fd37,2021-10-27_11h10.43.946,arrow_simon_punish,2021.1.2,Win32,60.0240096,,,,,,,,,,,,,,w,1,1.557,2.465492963,0,5,9,1,37,2,1,,,,,,,,,,,,,,
,,,,,,,,,,,right.png,,p,left,6168e3efc08671bd92f7fd37,2021-10-27_11h10.43.946,arrow_simon_punish,2021.1.2,Win32,60.0240096,,,,,,,,,,,,,,w,0,1.521,2.066772627,1,5,9,2,38,0,1,,,,,,,,,,,,,,
,,,,,,,,,,,left.png,,w,right,6168e3efc08671bd92f7fd37,2021-10-27_11h10.43.946,arrow_simon_punish,2021.1.2,Win32,60.0240096,,,,,,,,,,,,,,w,1,1.501,2.328010204,0,5,9,3,39,3,1,,,,,,,,,,,,,,
,,,,,,,,,,,right.png,,p,left,6168e3efc08671bd92f7fd37,2021-10-27_11h10.43.946,arrow_simon_punish,2021.1.2,Win32,60.0240096,,,,,,,,,,,,,,p,1,1.525,2.19541494,0,5,10,0,40,0,1,,,,,,,,,,,,,,
,,,,,,,,,,,right.png,,p,right,6168e3efc08671bd92f7fd37,2021-10-27_11h10.43.946,arrow_simon_punish,2021.1.2,Win32,60.0240096,,,,,,,,,,,,,,p,1,1.638,2.237508327,1,5,10,1,41,1,1,,,,,,,,,,,,,,
,,,,,,,,,,,right.png,,p,right,6168e3efc08671bd92f7fd37,2021-10-27_11h10.43.946,arrow_simon_punish,2021.1.2,Win32,60.0240096,,,,,,,,,,,,,,w,0,1.564,2.335365991,1,5,10,2,42,1,1,,,,,,,,,,,,,,
,,,,,,,,,,,left.png,,w,left,6168e3efc08671bd92f7fd37,2021-10-27_11h10.43.946,arrow_simon_punish,2021.1.2,Win32,60.0240096,,,,,,,,,,,,,,w,1,1.522,1.525867239,0,5,10,3,43,2,1,,,,,,,,,,,,,,
,,,,,,,,,,,right.png,,p,left,6168e3efc08671bd92f7fd37,2021-10-27_11h10.43.946,arrow_simon_punish,2021.1.2,Win32,60.0240096,,,,,,,,,,,,,,p,1,1.569,1.606487832,0,5,11,0,44,0,1,,,,,,,,,,,,,,
,,,,,,,,,,,left.png,,w,left,6168e3efc08671bd92f7fd37,2021-10-27_11h10.43.946,arrow_simon_punish,2021.1.2,Win32,60.0240096,,,,,,,,,,,,,,w,1,1.556,1.500292604,0,5,11,1,45,2,1,,,,,,,,,,,,,,
,,,,,,,,,,,right.png,,p,left,6168e3efc08671bd92f7fd37,2021-10-27_11h10.43.946,arrow_simon_punish,2021.1.2,Win32,60.0240096,,,,,,,,,,,,,,p,1,1.536,1.928676142,0,5,11,2,46,0,1,,,,,,,,,,,,,,
,,,,,,,,,,,left.png,,w,right,6168e3efc08671bd92f7fd37,2021-10-27_11h10.43.946,arrow_simon_punish,2021.1.2,Win32,60.0240096,,,,,,,,,,,,,,w,1,1.585,1.778317876,0,5,11,3,47,3,1,,,,,,,,,,,,,,
,,,,,,,,,,,left.png,,w,right,6168e3efc08671bd92f7fd37,2021-10-27_11h10.43.946,arrow_simon_punish,2021.1.2,Win32,60.0240096,,,,,,,,,,,,,,w,1,1.571,1.559132637,0,5,12,0,48,3,1,,,,,,,,,,,,,,
,,,,,,,,,,,left.png,,w,left,6168e3efc08671bd92f7fd37,2021-10-27_11h10.43.946,arrow_simon_punish,2021.1.2,Win32,60.0240096,,,,,,,,,,,,,,w,1,1.519,1.597279396,0,5,12,1,49,2,1,,,,,,,,,,,,,,
,,,,,,,,,,,right.png,,p,left,6168e3efc08671bd92f7fd37,2021-10-27_11h10.43.946,arrow_simon_punish,2021.1.2,Win32,60.0240096,,,,,,,,,,,,,,p,1,1.524,2.311429241,0,5,12,2,50,0,1,,,,,,,,,,,,,,
,,,,,,,,,,,left.png,,w,left,6168e3efc08671bd92f7fd37,2021-10-27_11h10.43.946,arrow_simon_punish,2021.1.2,Win32,60.0240096,,,,,,,,,,,,,,w,1,1.568,1.546898333,0,5,12,3,51,2,1,,,,,,,,,,,,,,
,,,,,,,,,,,right.png,,p,right,6168e3efc08671bd92f7fd37,2021-10-27_11h10.43.946,arrow_simon_punish,2021.1.2,Win32,60.0240096,,,,,,,,,,,,,,p,1,1.489,1.913562537,0,5,13,0,52,1,1,,,,,,,,,,,,,,
,,,,,,,,,,,right.png,,p,right,6168e3efc08671bd92f7fd37,2021-10-27_11h10.43.946,arrow_simon_punish,2021.1.2,Win32,60.0240096,,,,,,,,,,,,,,p,1,1.551,1.99505045,0,5,13,1,53,1,1,,,,,,,,,,,,,,
,,,,,,,,,,,left.png,,w,right,6168e3efc08671bd92f7fd37,2021-10-27_11h10.43.946,arrow_simon_punish,2021.1.2,Win32,60.0240096,,,,,,,,,,,,,,p,0,1.584,2.331325187,1,5,13,2,54,3,1,,,,,,,,,,,,,,
,,,,,,,,,,,left.png,,w,right,6168e3efc08671bd92f7fd37,2021-10-27_11h10.43.946,arrow_simon_punish,2021.1.2,Win32,60.0240096,,,,,,,,,,,,,,w,1,1.459,1.952670633,0,5,13,3,55,3,1,,,,,,,,,,,,,,
,,,,,,,,,,,right.png,,p,right,6168e3efc08671bd92f7fd37,2021-10-27_11h10.43.946,arrow_simon_punish,2021.1.2,Win32,60.0240096,,,,,,,,,,,,,,p,1,1.511,2.034055161,0,5,14,0,56,1,1,,,,,,,,,,,,,,
,,,,,,,,,,,right.png,,p,left,6168e3efc08671bd92f7fd37,2021-10-27_11h10.43.946,arrow_simon_punish,2021.1.2,Win32,60.0240096,,,,,,,,,,,,,,p,1,1.593,1.703929576,0,5,14,1,57,0,1,,,,,,,,,,,,,,
,,,,,,,,,,,right.png,,p,left,6168e3efc08671bd92f7fd37,2021-10-27_11h10.43.946,arrow_simon_punish,2021.1.2,Win32,60.0240096,,,,,,,,,,,,,,p,1,1.544,2.119818621,0,5,14,2,58,0,1,,,,,,,,,,,,,,
,,,,,,,,,,,right.png,,p,left,6168e3efc08671bd92f7fd37,2021-10-27_11h10.43.946,arrow_simon_punish,2021.1.2,Win32,60.0240096,,,,,,,,,,,,,,p,1,1.54,1.699148999,0,5,14,3,59,0,1,,,,,,,,,,,,,,
,,,,,,,,,,,,,,,6168e3efc08671bd92f7fd37,2021-10-27_11h10.43.946,arrow_simon_punish,2021.1.2,Win32,60.0240096,,,,,,,,,,,,,,,,,,,,,,,,,space,36.958,3,0,1,1,1,1,5,,,,,
,,,,,,,,,,,left.png,,w,right,6168e3efc08671bd92f7fd37,2021-10-27_11h10.43.946,arrow_simon_punish,2021.1.2,Win32,60.0240096,,,,,,,,,,,,,,p,0,1.506,2.209860193,1,1,0,0,0,3,1,,,,,,,,,,,,,,
,,,,,,,,,,,left.png,,w,left,6168e3efc08671bd92f7fd37,2021-10-27_11h10.43.946,arrow_simon_punish,2021.1.2,Win32,60.0240096,,,,,,,,,,,,,,w,1,1.489,2.000604946,0,1,0,1,1,2,1,,,,,,,,,,,,,,
,,,,,,,,,,,right.png,,p,right,6168e3efc08671bd92f7fd37,2021-10-27_11h10.43.946,arrow_simon_punish,2021.1.2,Win32,60.0240096,,,,,,,,,,,,,,p,1,1.569,1.726270305,0,1,0,2,2,1,1,,,,,,,,,,,,,,
,,,,,,,,,,,left.png,,w,right,6168e3efc08671bd92f7fd37,2021-10-27_11h10.43.946,arrow_simon_punish,2021.1.2,Win32,60.0240096,,,,,,,,,,,,,,p,0,1.542,1.83035813,1,1,0,3,3,3,1,,,,,,,,,,,,,,
,,,,,,,,,,,left.png,,w,right,6168e3efc08671bd92f7fd37,2021-10-27_11h10.43.946,arrow_simon_punish,2021.1.2,Win32,60.0240096,,,,,,,,,,,,,,p,0,1.527,2.18043952,1,1,1,0,4,3,1,,,,,,,,,,,,,,
,,,,,,,,,,,right.png,,p,left,6168e3efc08671bd92f7fd37,2021-10-27_11h10.43.946,arrow_simon_punish,2021.1.2,Win32,60.0240096,,,,,,,,,,,,,,p,1,1.606,1.877778598,1,1,1,1,5,0,1,,,,,,,,,,,,,,
,,,,,,,,,,,right.png,,p,right,6168e3efc08671bd92f7fd37,2021-10-27_11h10.43.946,arrow_simon_punish,2021.1.2,Win32,60.0240096,,,,,,,,,,,,,,p,1,1.557,1.678234261,0,1,1,2,6,1,1,,,,,,,,,,,,,,
,,,,,,,,,,,left.png,,w,left,6168e3efc08671bd92f7fd37,2021-10-27_11h10.43.946,arrow_simon_punish,2021.1.2,Win32,60.0240096,,,,,,,,,,,,,,p,0,1.488,2.289440078,1,1,1,3,7,2,1,,,,,,,,,,,,,,
,,,,,,,,,,,left.png,,w,left,6168e3efc08671bd92f7fd37,2021-10-27_11h10.43.946,arrow_simon_punish,2021.1.2,Win32,60.0240096,,,,,,,,,,,,,,w,1,2.045,2.171929346,1,1,2,0,8,2,1,,,,,,,,,,,,,,
,,,,,,,,,,,left.png,,w,left,6168e3efc08671bd92f7fd37,2021-10-27_11h10.43.946,arrow_simon_punish,2021.1.2,Win32,60.0240096,,,,,,,,,,,,,,w,1,1.537,1.979136759,0,1,2,1,9,2,1,,,,,,,,,,,,,,
,,,,,,,,,,,left.png,,w,left,6168e3efc08671bd92f7fd37,2021-10-27_11h10.43.946,arrow_simon_punish,2021.1.2,Win32,60.0240096,,,,,,,,,,,,,,w,1,1.422,1.900653091,0,1,2,2,10,2,1,,,,,,,,,,,,,,
,,,,,,,,,,,right.png,,p,right,6168e3efc08671bd92f7fd37,2021-10-27_11h10.43.946,arrow_simon_punish,2021.1.2,Win32,60.0240096,,,,,,,,,,,,,,p,1,1.488,2.219466816,0,1,2,3,11,1,1,,,,,,,,,,,,,,
,,,,,,,,,,,right.png,,p,left,6168e3efc08671bd92f7fd37,2021-10-27_11h10.43.946,arrow_simon_punish,2021.1.2,Win32,60.0240096,,,,,,,,,,,,,,p,1,1.54,1.651176998,0,1,3,0,12,0,1,,,,,,,,,,,,,,
,,,,,,,,,,,right.png,,p,right,6168e3efc08671bd92f7fd37,2021-10-27_11h10.43.946,arrow_simon_punish,2021.1.2,Win32,60.0240096,,,,,,,,,,,,,,p,1,1.539,2.289117949,0,1,3,1,13,1,1,,,,,,,,,,,,,,
,,,,,,,,,,,left.png,,w,left,6168e3efc08671bd92f7fd37,2021-10-27_11h10.43.946,arrow_simon_punish,2021.1.2,Win32,60.0240096,,,,,,,,,,,,,,w,1,1.455,1.883866347,0,1,3,2,14,2,1,,,,,,,,,,,,,,
,,,,,,,,,,,right.png,,p,right,6168e3efc08671bd92f7fd37,2021-10-27_11h10.43.946,arrow_simon_punish,2021.1.2,Win32,60.0240096,,,,,,,,,,,,,,p,1,1.576,2.472264654,0,1,3,3,15,1,1,,,,,,,,,,,,,,
,,,,,,,,,,,left.png,,w,right,6168e3efc08671bd92f7fd37,2021-10-27_11h10.43.946,arrow_simon_punish,2021.1.2,Win32,60.0240096,,,,,,,,,,,,,,w,1,1.573,1.524523116,0,1,4,0,16,3,1,,,,,,,,,,,,,,
,,,,,,,,,,,right.png,,p,left,6168e3efc08671bd92f7fd37,2021-10-27_11h10.43.946,arrow_simon_punish,2021.1.2,Win32,60.0240096,,,,,,,,,,,,,,p,1,1.536,2.260151317,0,1,4,1,17,0,1,,,,,,,,,,,,,,
,,,,,,,,,,,left.png,,w,right,6168e3efc08671bd92f7fd37,2021-10-27_11h10.43.946,arrow_simon_punish,2021.1.2,Win32,60.0240096,,,,,,,,,,,,,,w,1,1.538,1.517412663,0,1,4,2,18,3,1,,,,,,,,,,,,,,
,,,,,,,,,,,left.png,,w,left,6168e3efc08671bd92f7fd37,2021-10-27_11h10.43.946,arrow_simon_punish,2021.1.2,Win32,60.0240096,,,,,,,,,,,,,,p,0,1.492,2.286230431,1,1,4,3,19,2,1,,,,,,,,,,,,,,
,,,,,,,,,,,left.png,,w,left,6168e3efc08671bd92f7fd37,2021-10-27_11h10.43.946,arrow_simon_punish,2021.1.2,Win32,60.0240096,,,,,,,,,,,,,,w,1,1.513,1.733508636,0,1,5,0,20,2,1,,,,,,,,,,,,,,
,,,,,,,,,,,left.png,,w,right,6168e3efc08671bd92f7fd37,2021-10-27_11h10.43.946,arrow_simon_punish,2021.1.2,Win32,60.0240096,,,,,,,,,,,,,,w,1,1.501,2.337891872,0,1,5,1,21,3,1,,,,,,,,,,,,,,
,,,,,,,,,,,right.png,,p,left,6168e3efc08671bd92f7fd37,2021-10-27_11h10.43.946,arrow_simon_punish,2021.1.2,Win32,60.0240096,,,,,,,,,,,,,,p,1,1.506,1.954512163,0,1,5,2,22,0,1,,,,,,,,,,,,,,
,,,,,,,,,,,left.png,,w,right,6168e3efc08671bd92f7fd37,2021-10-27_11h10.43.946,arrow_simon_punish,2021.1.2,Win32,60.0240096,,,,,,,,,,,,,,w,1,1.555,2.011072937,0,1,5,3,23,3,1,,,,,,,,,,,,,,
,,,,,,,,,,,right.png,,p,left,6168e3efc08671bd92f7fd37,2021-10-27_11h10.43.946,arrow_simon_punish,2021.1.2,Win32,60.0240096,,,,,,,,,,,,,,w,0,1.473,2.329290734,1,1,6,0,24,0,1,,,,,,,,,,,,,,
,,,,,,,,,,,left.png,,w,right,6168e3efc08671bd92f7fd37,2021-10-27_11h10.43.946,arrow_simon_punish,2021.1.2,Win32,60.0240096,,,,,,,,,,,,,,p,0,1.536,2.302437303,1,1,6,1,25,3,1,,,,,,,,,,,,,,
,,,,,,,,,,,right.png,,p,right,6168e3efc08671bd92f7fd37,2021-10-27_11h10.43.946,arrow_simon_punish,2021.1.2,Win32,60.0240096,,,,,,,,,,,,,,p,1,1.61,1.564321333,1,1,6,2,26,1,1,,,,,,,,,,,,,,
,,,,,,,,,,,right.png,,p,left,6168e3efc08671bd92f7fd37,2021-10-27_11h10.43.946,arrow_simon_punish,2021.1.2,Win32,60.0240096,,,,,,,,,,,,,,p,1,1.562,1.544182593,0,1,6,3,27,0,1,,,,,,,,,,,,,,
,,,,,,,,,,,left.png,,w,left,6168e3efc08671bd92f7fd37,2021-10-27_11h10.43.946,arrow_simon_punish,2021.1.2,Win32,60.0240096,,,,,,,,,,,,,,p,0,1.559,2.492960141,1,1,7,0,28,2,1,,,,,,,,,,,,,,
,,,,,,,,,,,left.png,,w,right,6168e3efc08671bd92f7fd37,2021-10-27_11h10.43.946,arrow_simon_punish,2021.1.2,Win32,60.0240096,,,,,,,,,,,,,,p,0,1.492,1.513688982,1,1,7,1,29,3,1,,,,,,,,,,,,,,
,,,,,,,,,,,right.png,,p,left,6168e3efc08671bd92f7fd37,2021-10-27_11h10.43.946,arrow_simon_punish,2021.1.2,Win32,60.0240096,,,,,,,,,,,,,,p,1,1.474,1.672188855,0,1,7,2,30,0,1,,,,,,,,,,,,,,
,,,,,,,,,,,left.png,,w,left,6168e3efc08671bd92f7fd37,2021-10-27_11h10.43.946,arrow_simon_punish,2021.1.2,Win32,60.0240096,,,,,,,,,,,,,,w,1,1.539,2.443699826,0,1,7,3,31,2,1,,,,,,,,,,,,,,
,,,,,,,,,,,left.png,,w,right,6168e3efc08671bd92f7fd37,2021-10-27_11h10.43.946,arrow_simon_punish,2021.1.2,Win32,60.0240096,,,,,,,,,,,,,,w,1,1.583,2.149124931,0,1,8,0,32,3,1,,,,,,,,,,,,,,
,,,,,,,,,,,left.png,,w,left,6168e3efc08671bd92f7fd37,2021-10-27_11h10.43.946,arrow_simon_punish,2021.1.2,Win32,60.0240096,,,,,,,,,,,,,,w,1,1.469,1.90839911,0,1,8,1,33,2,1,,,,,,,,,,,,,,
,,,,,,,,,,,left.png,,w,left,6168e3efc08671bd92f7fd37,2021-10-27_11h10.43.946,arrow_simon_punish,2021.1.2,Win32,60.0240096,,,,,,,,,,,,,,w,1,1.575,1.856651752,0,1,8,2,34,2,1,,,,,,,,,,,,,,
,,,,,,,,,,,right.png,,p,right,6168e3efc08671bd92f7fd37,2021-10-27_11h10.43.946,arrow_simon_punish,2021.1.2,Win32,60.0240096,,,,,,,,,,,,,,p,1,1.421,1.522383342,0,1,8,3,35,1,1,,,,,,,,,,,,,,
,,,,,,,,,,,left.png,,w,right,6168e3efc08671bd92f7fd37,2021-10-27_11h10.43.946,arrow_simon_punish,2021.1.2,Win32,60.0240096,,,,,,,,,,,,,,w,1,1.476,1.991044033,0,1,9,0,36,3,1,,,,,,,,,,,,,,
,,,,,,,,,,,right.png,,p,right,6168e3efc08671bd92f7fd37,2021-10-27_11h10.43.946,arrow_simon_punish,2021.1.2,Win32,60.0240096,,,,,,,,,,,,,,p,1,1.511,1.825550386,0,1,9,1,37,1,1,,,,,,,,,,,,,,
,,,,,,,,,,,left.png,,w,right,6168e3efc08671bd92f7fd37,2021-10-27_11h10.43.946,arrow_simon_punish,2021.1.2,Win32,60.0240096,,,,,,,,,,,,,,w,1,1.471,1.696052211,0,1,9,2,38,3,1,,,,,,,,,,,,,,
,,,,,,,,,,,right.png,,p,left,6168e3efc08671bd92f7fd37,2021-10-27_11h10.43.946,arrow_simon_punish,2021.1.2,Win32,60.0240096,,,,,,,,,,,,,,p,1,1.49,2.457677958,0,1,9,3,39,0,1,,,,,,,,,,,,,,
,,,,,,,,,,,right.png,,p,right,6168e3efc08671bd92f7fd37,2021-10-27_11h10.43.946,arrow_simon_punish,2021.1.2,Win32,60.0240096,,,,,,,,,,,,,,p,1,1.526,2.382623306,0,1,10,0,40,1,1,,,,,,,,,,,,,,
,,,,,,,,,,,left.png,,w,right,6168e3efc08671bd92f7fd37,2021-10-27_11h10.43.946,arrow_simon_punish,2021.1.2,Win32,60.0240096,,,,,,,,,,,,,,w,1,1.465,1.893945792,0,1,10,1,41,3,1,,,,,,,,,,,,,,
,,,,,,,,,,,right.png,,p,left,6168e3efc08671bd92f7fd37,2021-10-27_11h10.43.946,arrow_simon_punish,2021.1.2,Win32,60.0240096,,,,,,,,,,,,,,w,0,1.506,2.28106527,1,1,10,2,42,0,1,,,,,,,,,,,,,,
,,,,,,,,,,,right.png,,p,right,6168e3efc08671bd92f7fd37,2021-10-27_11h10.43.946,arrow_simon_punish,2021.1.2,Win32,60.0240096,,,,,,,,,,,,,,p,1,1.521,1.973992953,0,1,10,3,43,1,1,,,,,,,,,,,,,,
,,,,,,,,,,,left.png,,w,left,6168e3efc08671bd92f7fd37,2021-10-27_11h10.43.946,arrow_simon_punish,2021.1.2,Win32,60.0240096,,,,,,,,,,,,,,w,1,1.553,1.697540049,0,1,11,0,44,2,1,,,,,,,,,,,,,,
,,,,,,,,,,,right.png,,p,right,6168e3efc08671bd92f7fd37,2021-10-27_11h10.43.946,arrow_simon_punish,2021.1.2,Win32,60.0240096,,,,,,,,,,,,,,p,1,1.521,1.540037403,0,1,11,1,45,1,1,,,,,,,,,,,,,,
,,,,,,,,,,,right.png,,p,right,6168e3efc08671bd92f7fd37,2021-10-27_11h10.43.946,arrow_simon_punish,2021.1.2,Win32,60.0240096,,,,,,,,,,,,,,p,1,1.491,2.112767712,0,1,11,2,46,1,1,,,,,,,,,,,,,,
,,,,,,,,,,,right.png,,p,left,6168e3efc08671bd92f7fd37,2021-10-27_11h10.43.946,arrow_simon_punish,2021.1.2,Win32,60.0240096,,,,,,,,,,,,,,w,0,1.487,2.196105658,1,1,11,3,47,0,1,,,,,,,,,,,,,,
,,,,,,,,,,,left.png,,w,right,6168e3efc08671bd92f7fd37,2021-10-27_11h10.43.946,arrow_simon_punish,2021.1.2,Win32,60.0240096,,,,,,,,,,,,,,p,0,1.422,2.112371509,1,1,12,0,48,3,1,,,,,,,,,,,,,,
,,,,,,,,,,,left.png,,w,left,6168e3efc08671bd92f7fd37,2021-10-27_11h10.43.946,arrow_simon_punish,2021.1.2,Win32,60.0240096,,,,,,,,,,,,,,w,1,1.481,2.011848314,0,1,12,1,49,2,1,,,,,,,,,,,,,,
,,,,,,,,,,,right.png,,p,left,6168e3efc08671bd92f7fd37,2021-10-27_11h10.43.946,arrow_simon_punish,2021.1.2,Win32,60.0240096,,,,,,,,,,,,,,p,1,1.564,1.984077064,0,1,12,2,50,0,1,,,,,,,,,,,,,,
,,,,,,,,,,,right.png,,p,left,6168e3efc08671bd92f7fd37,2021-10-27_11h10.43.946,arrow_simon_punish,2021.1.2,Win32,60.0240096,,,,,,,,,,,,,,p,1,1.441,1.731530061,0,1,12,3,51,0,1,,,,,,,,,,,,,,
,,,,,,,,,,,right.png,,p,left,6168e3efc08671bd92f7fd37,2021-10-27_11h10.43.946,arrow_simon_punish,2021.1.2,Win32,60.0240096,,,,,,,,,,,,,,p,1,1.469,1.79380504,0,1,13,0,52,0,1,,,,,,,,,,,,,,
,,,,,,,,,,,right.png,,p,left,6168e3efc08671bd92f7fd37,2021-10-27_11h10.43.946,arrow_simon_punish,2021.1.2,Win32,60.0240096,,,,,,,,,,,,,,w,0,1.457,2.179460972,1,1,13,1,53,0,1,,,,,,,,,,,,,,
,,,,,,,,,,,right.png,,p,left,6168e3efc08671bd92f7fd37,2021-10-27_11h10.43.946,arrow_simon_punish,2021.1.2,Win32,60.0240096,,,,,,,,,,,,,,w,0,1.505,2.235109059,1,1,13,2,54,0,1,,,,,,,,,,,,,,
,,,,,,,,,,,left.png,,w,left,6168e3efc08671bd92f7fd37,2021-10-27_11h10.43.946,arrow_simon_punish,2021.1.2,Win32,60.0240096,,,,,,,,,,,,,,w,1,1.509,1.557992712,0,1,13,3,55,2,1,,,,,,,,,,,,,,
,,,,,,,,,,,left.png,,w,right,6168e3efc08671bd92f7fd37,2021-10-27_11h10.43.946,arrow_simon_punish,2021.1.2,Win32,60.0240096,,,,,,,,,,,,,,w,1,1.558,2.375644066,0,1,14,0,56,3,1,,,,,,,,,,,,,,
,,,,,,,,,,,right.png,,p,right,6168e3efc08671bd92f7fd37,2021-10-27_11h10.43.946,arrow_simon_punish,2021.1.2,Win32,60.0240096,,,,,,,,,,,,,,p,1,1.522,1.776239323,0,1,14,1,57,1,1,,,,,,,,,,,,,,
,,,,,,,,,,,right.png,,p,right,6168e3efc08671bd92f7fd37,2021-10-27_11h10.43.946,arrow_simon_punish,2021.1.2,Win32,60.0240096,,,,,,,,,,,,,,p,1,1.624,2.374448395,1,1,14,2,58,1,1,,,,,,,,,,,,,,
,,,,,,,,,,,right.png,,p,right,6168e3efc08671bd92f7fd37,2021-10-27_11h10.43.946,arrow_simon_punish,2021.1.2,Win32,60.0240096,,,,,,,,,,,,,,p,1,1.586,2.422730207,0,1,14,3,59,1,1,,,,,,,,,,,,,,
,,,,,,,,,,,,,,,6168e3efc08671bd92f7fd37,2021-10-27_11h10.43.946,arrow_simon_punish,2021.1.2,Win32,60.0240096,,,,,,,,,,,,,,,,,,,,,,,,,space,22.137,4,1,0,2,0,1,1,,,,,
,,,,,,,,,,,right.png,,p,right,6168e3efc08671bd92f7fd37,2021-10-27_11h10.43.946,arrow_simon_punish,2021.1.2,Win32,60.0240096,,,,,,,,,,,,,,p,1,1.484,1.87472848,0,5,0,0,0,1,1,,,,,,,,,,,,,,
,,,,,,,,,,,right.png,,p,right,6168e3efc08671bd92f7fd37,2021-10-27_11h10.43.946,arrow_simon_punish,2021.1.2,Win32,60.0240096,,,,,,,,,,,,,,w,0,1.585,2.308495313,1,5,0,1,1,1,1,,,,,,,,,,,,,,
,,,,,,,,,,,left.png,,w,left,6168e3efc08671bd92f7fd37,2021-10-27_11h10.43.946,arrow_simon_punish,2021.1.2,Win32,60.0240096,,,,,,,,,,,,,,w,1,1.539,1.649672823,0,5,0,2,2,2,1,,,,,,,,,,,,,,
,,,,,,,,,,,left.png,,w,left,6168e3efc08671bd92f7fd37,2021-10-27_11h10.43.946,arrow_simon_punish,2021.1.2,Win32,60.0240096,,,,,,,,,,,,,,p,0,1.506,2.438968347,1,5,0,3,3,2,1,,,,,,,,,,,,,,
,,,,,,,,,,,right.png,,p,right,6168e3efc08671bd92f7fd37,2021-10-27_11h10.43.946,arrow_simon_punish,2021.1.2,Win32,60.0240096,,,,,,,,,,,,,,p,1,1.687,1.914150801,1,5,1,0,4,1,1,,,,,,,,,,,,,,
,,,,,,,,,,,right.png,,p,left,6168e3efc08671bd92f7fd37,2021-10-27_11h10.43.946,arrow_simon_punish,2021.1.2,Win32,60.0240096,,,,,,,,,,,,,,p,1,1.568,1.667129684,0,5,1,1,5,0,1,,,,,,,,,,,,,,
,,,,,,,,,,,left.png,,w,right,6168e3efc08671bd92f7fd37,2021-10-27_11h10.43.946,arrow_simon_punish,2021.1.2,Win32,60.0240096,,,,,,,,,,,,,,w,1,1.512,1.914023474,0,5,1,2,6,3,1,,,,,,,,,,,,,,
,,,,,,,,,,,left.png,,w,left,6168e3efc08671bd92f7fd37,2021-10-27_11h10.43.946,arrow_simon_punish,2021.1.2,Win32,60.0240096,,,,,,,,,,,,,,w,1,1.539,2.31961032,0,5,1,3,7,2,1,,,,,,,,,,,,,,
,,,,,,,,,,,right.png,,p,right,6168e3efc08671bd92f7fd37,2021-10-27_11h10.43.946,arrow_simon_punish,2021.1.2,Win32,60.0240096,,,,,,,,,,,,,,p,1,1.61,2.057401291,1,5,2,0,8,1,1,,,,,,,,,,,,,,
,,,,,,,,,,,left.png,,w,left,6168e3efc08671bd92f7fd37,2021-10-27_11h10.43.946,arrow_simon_punish,2021.1.2,Win32,60.0240096,,,,,,,,,,,,,,w,1,1.556,1.82089036,0,5,2,1,9,2,1,,,,,,,,,,,,,,
,,,,,,,,,,,left.png,,w,left,6168e3efc08671bd92f7fd37,2021-10-27_11h10.43.946,arrow_simon_punish,2021.1.2,Win32,60.0240096,,,,,,,,,,,,,,w,1,1.451,2.084608627,0,5,2,2,10,2,1,,,,,,,,,,,,,,
,,,,,,,,,,,right.png,,p,right,6168e3efc08671bd92f7fd37,2021-10-27_11h10.43.946,arrow_simon_punish,2021.1.2,Win32,60.0240096,,,,,,,,,,,,,,p,1,1.525,2.446267559,0,5,2,3,11,1,1,,,,,,,,,,,,,,
,,,,,,,,,,,right.png,,p,left,6168e3efc08671bd92f7fd37,2021-10-27_11h10.43.946,arrow_simon_punish,2021.1.2,Win32,60.0240096,,,,,,,,,,,,,,p,1,1.56,2.087771744,0,5,3,0,12,0,1,,,,,,,,,,,,,,
,,,,,,,,,,,left.png,,w,right,6168e3efc08671bd92f7fd37,2021-10-27_11h10.43.946,arrow_simon_punish,2021.1.2,Win32,60.0240096,,,,,,,,,,,,,,p,0,1.504,2.496876724,1,5,3,1,13,3,1,,,,,,,,,,,,,,
,,,,,,,,,,,right.png,,p,right,6168e3efc08671bd92f7fd37,2021-10-27_11h10.43.946,arrow_simon_punish,2021.1.2,Win32,60.0240096,,,,,,,,,,,,,,p,1,1.541,1.573463369,0,5,3,2,14,1,1,,,,,,,,,,,,,,
,,,,,,,,,,,left.png,,w,right,6168e3efc08671bd92f7fd37,2021-10-27_11h10.43.946,arrow_simon_punish,2021.1.2,Win32,60.0240096,,,,,,,,,,,,,,w,1,1.425,1.862901858,0,5,3,3,15,3,1,,,,,,,,,,,,,,
,,,,,,,,,,,right.png,,p,left,6168e3efc08671bd92f7fd37,2021-10-27_11h10.43.946,arrow_simon_punish,2021.1.2,Win32,60.0240096,,,,,,,,,,,,,,p,1,1.508,1.791690126,0,5,4,0,16,0,1,,,,,,,,,,,,,,
,,,,,,,,,,,left.png,,w,left,6168e3efc08671bd92f7fd37,2021-10-27_11h10.43.946,arrow_simon_punish,2021.1.2,Win32,60.0240096,,,,,,,,,,,,,,w,1,2.464,1.564830325,1,5,4,1,17,2,1,,,,,,,,,,,,,,
,,,,,,,,,,,right.png,,p,right,6168e3efc08671bd92f7fd37,2021-10-27_11h10.43.946,arrow_simon_punish,2021.1.2,Win32,60.0240096,,,,,,,,,,,,,,p,1,1.498,2.226794875,0,5,4,2,18,1,1,,,,,,,,,,,,,,
,,,,,,,,,,,left.png,,w,left,6168e3efc08671bd92f7fd37,2021-10-27_11h10.43.946,arrow_simon_punish,2021.1.2,Win32,60.0240096,,,,,,,,,,,,,,w,1,1.473,2.124882649,0,5,4,3,19,2,1,,,,,,,,,,,,,,
,,,,,,,,,,,right.png,,p,left,6168e3efc08671bd92f7fd37,2021-10-27_11h10.43.946,arrow_simon_punish,2021.1.2,Win32,60.0240096,,,,,,,,,,,,,,p,1,1.492,2.361392125,0,5,5,0,20,0,1,,,,,,,,,,,,,,
,,,,,,,,,,,right.png,,p,right,6168e3efc08671bd92f7fd37,2021-10-27_11h10.43.946,arrow_simon_punish,2021.1.2,Win32,60.0240096,,,,,,,,,,,,,,p,1,1.704,1.874644349,1,5,5,1,21,1,1,,,,,,,,,,,,,,
,,,,,,,,,,,left.png,,w,right,6168e3efc08671bd92f7fd37,2021-10-27_11h10.43.946,arrow_simon_punish,2021.1.2,Win32,60.0240096,,,,,,,,,,,,,,w,1,1.488,2.341225589,0,5,5,2,22,3,1,,,,,,,,,,,,,,
,,,,,,,,,,,right.png,,p,right,6168e3efc08671bd92f7fd37,2021-10-27_11h10.43.946,arrow_simon_punish,2021.1.2,Win32,60.0240096,,,,,,,,,,,,,,p,1,1.486,1.729149487,0,5,5,3,23,1,1,,,,,,,,,,,,,,
,,,,,,,,,,,left.png,,w,left,6168e3efc08671bd92f7fd37,2021-10-27_11h10.43.946,arrow_simon_punish,2021.1.2,Win32,60.0240096,,,,,,,,,,,,,,w,1,1.498,2.124561502,0,5,6,0,24,2,1,,,,,,,,,,,,,,
,,,,,,,,,,,right.png,,p,left,6168e3efc08671bd92f7fd37,2021-10-27_11h10.43.946,arrow_simon_punish,2021.1.2,Win32,60.0240096,,,,,,,,,,,,,,p,1,1.455,2.066605552,0,5,6,1,25,0,1,,,,,,,,,,,,,,
,,,,,,,,,,,left.png,,w,left,6168e3efc08671bd92f7fd37,2021-10-27_11h10.43.946,arrow_simon_punish,2021.1.2,Win32,60.0240096,,,,,,,,,,,,,,w,1,1.438,1.995328831,0,5,6,2,26,2,1,,,,,,,,,,,,,,
,,,,,,,,,,,left.png,,w,right,6168e3efc08671bd92f7fd37,2021-10-27_11h10.43.946,arrow_simon_punish,2021.1.2,Win32,60.0240096,,,,,,,,,,,,,,p,0,1.491,2.212342761,1,5,6,3,27,3,1,,,,,,,,,,,,,,
,,,,,,,,,,,right.png,,p,right,6168e3efc08671bd92f7fd37,2021-10-27_11h10.43.946,arrow_simon_punish,2021.1.2,Win32,60.0240096,,,,,,,,,,,,,,p,1,1.623,2.407423126,1,5,7,0,28,1,1,,,,,,,,,,,,,,
,,,,,,,,,,,left.png,,w,right,6168e3efc08671bd92f7fd37,2021-10-27_11h10.43.946,arrow_simon_punish,2021.1.2,Win32,60.0240096,,,,,,,,,,,,,,w,1,1.493,2.103616338,0,5,7,1,29,3,1,,,,,,,,,,,,,,
,,,,,,,,,,,left.png,,w,left,6168e3efc08671bd92f7fd37,2021-10-27_11h10.43.946,arrow_simon_punish,2021.1.2,Win32,60.0240096,,,,,,,,,,,,,,w,1,1.488,2.364828055,0,5,7,2,30,2,1,,,,,,,,,,,,,,
,,,,,,,,,,,right.png,,p,left,6168e3efc08671bd92f7fd37,2021-10-27_11h10.43.946,arrow_simon_punish,2021.1.2,Win32,60.0240096,,,,,,,,,,,,,,w,0,1.391,2.109560948,1,5,7,3,31,0,1,,,,,,,,,,,,,,
,,,,,,,,,,,left.png,,w,left,6168e3efc08671bd92f7fd37,2021-10-27_11h10.43.946,arrow_simon_punish,2021.1.2,Win32,60.0240096,,,,,,,,,,,,,,w,1,1.433,1.887281185,0,5,8,0,32,2,1,,,,,,,,,,,,,,
,,,,,,,,,,,right.png,,p,left,6168e3efc08671bd92f7fd37,2021-10-27_11h10.43.946,arrow_simon_punish,2021.1.2,Win32,60.0240096,,,,,,,,,,,,,,p,1,1.453,1.680675261,0,5,8,1,33,0,1,,,,,,,,,,,,,,
,,,,,,,,,,,right.png,,p,left,6168e3efc08671bd92f7fd37,2021-10-27_11h10.43.946,arrow_simon_punish,2021.1.2,Win32,60.0240096,,,,,,,,,,,,,,p,1,1.528,1.547890925,0,5,8,2,34,0,1,,,,,,,,,,,,,,
,,,,,,,,,,,left.png,,w,right,6168e3efc08671bd92f7fd37,2021-10-27_11h10.43.946,arrow_simon_punish,2021.1.2,Win32,60.0240096,,,,,,,,,,,,,,w,1,1.534,1.588444439,0,5,8,3,35,3,1,,,,,,,,,,,,,,
,,,,,,,,,,,right.png,,p,right,6168e3efc08671bd92f7fd37,2021-10-27_11h10.43.946,arrow_simon_punish,2021.1.2,Win32,60.0240096,,,,,,,,,,,,,,w,0,1.442,2.452018872,1,5,9,0,36,1,1,,,,,,,,,,,,,,
,,,,,,,,,,,right.png,,p,right,6168e3efc08671bd92f7fd37,2021-10-27_11h10.43.946,arrow_simon_punish,2021.1.2,Win32,60.0240096,,,,,,,,,,,,,,p,1,1.521,2.022085765,0,5,9,1,37,1,1,,,,,,,,,,,,,,
,,,,,,,,,,,left.png,,w,right,6168e3efc08671bd92f7fd37,2021-10-27_11h10.43.946,arrow_simon_punish,2021.1.2,Win32,60.0240096,,,,,,,,,,,,,,p,0,1.504,2.173059788,1,5,9,2,38,3,1,,,,,,,,,,,,,,
,,,,,,,,,,,right.png,,p,left,6168e3efc08671bd92f7fd37,2021-10-27_11h10.43.946,arrow_simon_punish,2021.1.2,Win32,60.0240096,,,,,,,,,,,,,,p,1,1.539,1.845023528,0,5,9,3,39,0,1,,,,,,,,,,,,,,
,,,,,,,,,,,left.png,,w,right,6168e3efc08671bd92f7fd37,2021-10-27_11h10.43.946,arrow_simon_punish,2021.1.2,Win32,60.0240096,,,,,,,,,,,,,,w,1,1.524,2.079745264,0,5,10,0,40,3,1,,,,,,,,,,,,,,
,,,,,,,,,,,left.png,,w,right,6168e3efc08671bd92f7fd37,2021-10-27_11h10.43.946,arrow_simon_punish,2021.1.2,Win32,60.0240096,,,,,,,,,,,,,,w,1,1.555,1.99638592,0,5,10,1,41,3,1,,,,,,,,,,,,,,
,,,,,,,,,,,left.png,,w,left,6168e3efc08671bd92f7fd37,2021-10-27_11h10.43.946,arrow_simon_punish,2021.1.2,Win32,60.0240096,,,,,,,,,,,,,,w,1,1.505,2.006553924,0,5,10,2,42,2,1,,,,,,,,,,,,,,
,,,,,,,,,,,left.png,,w,right,6168e3efc08671bd92f7fd37,2021-10-27_11h10.43.946,arrow_simon_punish,2021.1.2,Win32,60.0240096,,,,,,,,,,,,,,w,1,1.49,1.508848301,0,5,10,3,43,3,1,,,,,,,,,,,,,,
,,,,,,,,,,,left.png,,w,left,6168e3efc08671bd92f7fd37,2021-10-27_11h10.43.946,arrow_simon_punish,2021.1.2,Win32,60.0240096,,,,,,,,,,,,,,w,1,1.537,1.804471169,0,5,11,0,44,2,1,,,,,,,,,,,,,,
,,,,,,,,,,,right.png,,p,left,6168e3efc08671bd92f7fd37,2021-10-27_11h10.43.946,arrow_simon_punish,2021.1.2,Win32,60.0240096,,,,,,,,,,,,,,p,1,1.526,1.548233886,0,5,11,1,45,0,1,,,,,,,,,,,,,,
,,,,,,,,,,,right.png,,p,left,6168e3efc08671bd92f7fd37,2021-10-27_11h10.43.946,arrow_simon_punish,2021.1.2,Win32,60.0240096,,,,,,,,,,,,,,w,0,1.622,2.360304381,1,5,11,2,46,0,1,,,,,,,,,,,,,,
,,,,,,,,,,,right.png,,p,left,6168e3efc08671bd92f7fd37,2021-10-27_11h10.43.946,arrow_simon_punish,2021.1.2,Win32,60.0240096,,,,,,,,,,,,,,w,0,1.518,2.458528879,1,5,11,3,47,0,1,,,,,,,,,,,,,,
,,,,,,,,,,,right.png,,p,right,6168e3efc08671bd92f7fd37,2021-10-27_11h10.43.946,arrow_simon_punish,2021.1.2,Win32,60.0240096,,,,,,,,,,,,,,p,1,1.602,1.659935949,1,5,12,0,48,1,1,,,,,,,,,,,,,,
,,,,,,,,,,,right.png,,p,right,6168e3efc08671bd92f7fd37,2021-10-27_11h10.43.946,arrow_simon_punish,2021.1.2,Win32,60.0240096,,,,,,,,,,,,,,w,0,1.538,2.41763817,1,5,12,1,49,1,1,,,,,,,,,,,,,,
,,,,,,,,,,,right.png,,p,left,6168e3efc08671bd92f7fd37,2021-10-27_11h10.43.946,arrow_simon_punish,2021.1.2,Win32,60.0240096,,,,,,,,,,,,,,p,1,1.685,2.153789954,1,5,12,2,50,0,1,,,,,,,,,,,,,,
,,,,,,,,,,,right.png,,p,right,6168e3efc08671bd92f7fd37,2021-10-27_11h10.43.946,arrow_simon_punish,2021.1.2,Win32,60.0240096,,,,,,,,,,,,,,p,1,1.532,2.206516631,0,5,12,3,51,1,1,,,,,,,,,,,,,,
,,,,,,,,,,,left.png,,w,left,6168e3efc08671bd92f7fd37,2021-10-27_11h10.43.946,arrow_simon_punish,2021.1.2,Win32,60.0240096,,,,,,,,,,,,,,w,1,1.572,1.918162462,0,5,13,0,52,2,1,,,,,,,,,,,,,,
,,,,,,,,,,,left.png,,w,left,6168e3efc08671bd92f7fd37,2021-10-27_11h10.43.946,arrow_simon_punish,2021.1.2,Win32,60.0240096,,,,,,,,,,,,,,w,1,1.658,2.426445562,1,5,13,1,53,2,1,,,,,,,,,,,,,,
,,,,,,,,,,,right.png,,p,left,6168e3efc08671bd92f7fd37,2021-10-27_11h10.43.946,arrow_simon_punish,2021.1.2,Win32,60.0240096,,,,,,,,,,,,,,p,1,1.535,2.45410557,0,5,13,2,54,0,1,,,,,,,,,,,,,,
,,,,,,,,,,,left.png,,w,right,6168e3efc08671bd92f7fd37,2021-10-27_11h10.43.946,arrow_simon_punish,2021.1.2,Win32,60.0240096,,,,,,,,,,,,,,w,1,1.586,2.184321971,0,5,13,3,55,3,1,,,,,,,,,,,,,,
,,,,,,,,,,,right.png,,p,left,6168e3efc08671bd92f7fd37,2021-10-27_11h10.43.946,arrow_simon_punish,2021.1.2,Win32,60.0240096,,,,,,,,,,,,,,p,1,1.683,1.886919356,1,5,14,0,56,0,1,,,,,,,,,,,,,,
,,,,,,,,,,,left.png,,w,right,6168e3efc08671bd92f7fd37,2021-10-27_11h10.43.946,arrow_simon_punish,2021.1.2,Win32,60.0240096,,,,,,,,,,,,,,w,1,1.543,2.494944554,0,5,14,1,57,3,1,,,,,,,,,,,,,,
,,,,,,,,,,,left.png,,w,right,6168e3efc08671bd92f7fd37,2021-10-27_11h10.43.946,arrow_simon_punish,2021.1.2,Win32,60.0240096,,,,,,,,,,,,,,w,1,1.492,2.163424169,0,5,14,2,58,3,1,,,,,,,,,,,,,,
,,,,,,,,,,,left.png,,w,right,6168e3efc08671bd92f7fd37,2021-10-27_11h10.43.946,arrow_simon_punish,2021.1.2,Win32,60.0240096,,,,,,,,,,,,,,w,1,1.518,1.965260656,0,5,14,3,59,3,1,,,,,,,,,,,,,,
,,,,,,,,,,,,,,,6168e3efc08671bd92f7fd37,2021-10-27_11h10.43.946,arrow_simon_punish,2021.1.2,Win32,60.0240096,,,,,,,,,,,,,,,,,,,,,,,,,space,15.758,5,1,1,3,1,1,5,,,,,
,,,,,,,,,,,right.png,,p,right,6168e3efc08671bd92f7fd37,2021-10-27_11h10.43.946,arrow_simon_punish,2021.1.2,Win32,60.0240096,,,,,,,,,,,,,,w,0,1.567,2.421532871,1,1,0,0,0,1,1,,,,,,,,,,,,,,
,,,,,,,,,,,left.png,,w,right,6168e3efc08671bd92f7fd37,2021-10-27_11h10.43.946,arrow_simon_punish,2021.1.2,Win32,60.0240096,,,,,,,,,,,,,,w,1,1.51,2.248655626,0,1,0,1,1,3,1,,,,,,,,,,,,,,
,,,,,,,,,,,right.png,,p,left,6168e3efc08671bd92f7fd37,2021-10-27_11h10.43.946,arrow_simon_punish,2021.1.2,Win32,60.0240096,,,,,,,,,,,,,,p,1,1.558,1.757419289,0,1,0,2,2,0,1,,,,,,,,,,,,,,
,,,,,,,,,,,right.png,,p,left,6168e3efc08671bd92f7fd37,2021-10-27_11h10.43.946,arrow_simon_punish,2021.1.2,Win32,60.0240096,,,,,,,,,,,,,,p,1,1.48,2.171342457,0,1,0,3,3,0,1,,,,,,,,,,,,,,
,,,,,,,,,,,left.png,,w,left,6168e3efc08671bd92f7fd37,2021-10-27_11h10.43.946,arrow_simon_punish,2021.1.2,Win32,60.0240096,,,,,,,,,,,,,,p,0,1.547,2.31175424,1,1,1,0,4,2,1,,,,,,,,,,,,,,
,,,,,,,,,,,right.png,,p,right,6168e3efc08671bd92f7fd37,2021-10-27_11h10.43.946,arrow_simon_punish,2021.1.2,Win32,60.0240096,,,,,,,,,,,,,,w,0,1.589,2.461048841,1,1,1,1,5,1,1,,,,,,,,,,,,,,
,,,,,,,,,,,right.png,,p,left,6168e3efc08671bd92f7fd37,2021-10-27_11h10.43.946,arrow_simon_punish,2021.1.2,Win32,60.0240096,,,,,,,,,,,,,,p,1,1.525,2.022066924,0,1,1,2,6,0,1,,,,,,,,,,,,,,
,,,,,,,,,,,left.png,,w,right,6168e3efc08671bd92f7fd37,2021-10-27_11h10.43.946,arrow_simon_punish,2021.1.2,Win32,60.0240096,,,,,,,,,,,,,,w,1,1.539,1.597610711,0,1,1,3,7,3,1,,,,,,,,,,,,,,
,,,,,,,,,,,left.png,,w,right,6168e3efc08671bd92f7fd37,2021-10-27_11h10.43.946,arrow_simon_punish,2021.1.2,Win32,60.0240096,,,,,,,,,,,,,,w,1,1.545,2.071314095,0,1,2,0,8,3,1,,,,,,,,,,,,,,
,,,,,,,,,,,right.png,,p,right,6168e3efc08671bd92f7fd37,2021-10-27_11h10.43.946,arrow_simon_punish,2021.1.2,Win32,60.0240096,,,,,,,,,,,,,,p,1,1.538,2.220067441,0,1,2,1,9,1,1,,,,,,,,,,,,,,
,,,,,,,,,,,right.png,,p,left,6168e3efc08671bd92f7fd37,2021-10-27_11h10.43.946,arrow_simon_punish,2021.1.2,Win32,60.0240096,,,,,,,,,,,,,,w,0,1.554,2.239871114,1,1,2,2,10,0,1,,,,,,,,,,,,,,
,,,,,,,,,,,left.png,,w,left,6168e3efc08671bd92f7fd37,2021-10-27_11h10.43.946,arrow_simon_punish,2021.1.2,Win32,60.0240096,,,,,,,,,,,,,,w,1,1.525,2.238086474,0,1,2,3,11,2,1,,,,,,,,,,,,,,
,,,,,,,,,,,right.png,,p,left,6168e3efc08671bd92f7fd37,2021-10-27_11h10.43.946,arrow_simon_punish,2021.1.2,Win32,60.0240096,,,,,,,,,,,,,,p,1,1.536,2.103876258,0,1,3,0,12,0,1,,,,,,,,,,,,,,
,,,,,,,,,,,left.png,,w,right,6168e3efc08671bd92f7fd37,2021-10-27_11h10.43.946,arrow_simon_punish,2021.1.2,Win32,60.0240096,,,,,,,,,,,,,,w,1,1.57,2.164785506,0,1,3,1,13,3,1,,,,,,,,,,,,,,
,,,,,,,,,,,right.png,,p,left,6168e3efc08671bd92f7fd37,2021-10-27_11h10.43.946,arrow_simon_punish,2021.1.2,Win32,60.0240096,,,,,,,,,,,,,,p,1,1.574,1.686887568,0,1,3,2,14,0,1,,,,,,,,,,,,,,
,,,,,,,,,,,left.png,,w,right,6168e3efc08671bd92f7fd37,2021-10-27_11h10.43.946,arrow_simon_punish,2021.1.2,Win32,60.0240096,,,,,,,,,,,,,,p,0,1.558,2.354712759,1,1,3,3,15,3,1,,,,,,,,,,,,,,
,,,,,,,,,,,right.png,,p,right,6168e3efc08671bd92f7fd37,2021-10-27_11h10.43.946,arrow_simon_punish,2021.1.2,Win32,60.0240096,,,,,,,,,,,,,,w,0,1.54,2.394047749,1,1,4,0,16,1,1,,,,,,,,,,,,,,
,,,,,,,,,,,left.png,,w,left,6168e3efc08671bd92f7fd37,2021-10-27_11h10.43.946,arrow_simon_punish,2021.1.2,Win32,60.0240096,,,,,,,,,,,,,,w,1,1.574,1.994964656,0,1,4,1,17,2,1,,,,,,,,,,,,,,
,,,,,,,,,,,left.png,,w,left,6168e3efc08671bd92f7fd37,2021-10-27_11h10.43.946,arrow_simon_punish,2021.1.2,Win32,60.0240096,,,,,,,,,,,,,,p,0,1.518,2.392150054,1,1,4,2,18,2,1,,,,,,,,,,,,,,
,,,,,,,,,,,left.png,,w,left,6168e3efc08671bd92f7fd37,2021-10-27_11h10.43.946,arrow_simon_punish,2021.1.2,Win32,60.0240096,,,,,,,,,,,,,,p,0,1.554,2.375163929,1,1,4,3,19,2,1,,,,,,,,,,,,,,
,,,,,,,,,,,right.png,,p,left,6168e3efc08671bd92f7fd37,2021-10-27_11h10.43.946,arrow_simon_punish,2021.1.2,Win32,60.0240096,,,,,,,,,,,,,,p,1,1.559,2.458274669,0,1,5,0,20,0,1,,,,,,,,,,,,,,
,,,,,,,,,,,left.png,,w,left,6168e3efc08671bd92f7fd37,2021-10-27_11h10.43.946,arrow_simon_punish,2021.1.2,Win32,60.0240096,,,,,,,,,,,,,,p,0,1.521,2.215627085,1,1,5,1,21,2,1,,,,,,,,,,,,,,
,,,,,,,,,,,right.png,,p,left,6168e3efc08671bd92f7fd37,2021-10-27_11h10.43.946,arrow_simon_punish,2021.1.2,Win32,60.0240096,,,,,,,,,,,,,,p,1,1.489,2.352992653,0,1,5,2,22,0,1,,,,,,,,,,,,,,
,,,,,,,,,,,left.png,,w,left,6168e3efc08671bd92f7fd37,2021-10-27_11h10.43.946,arrow_simon_punish,2021.1.2,Win32,60.0240096,,,,,,,,,,,,,,w,1,1.519,2.056487184,0,1,5,3,23,2,1,,,,,,,,,,,,,,
,,,,,,,,,,,left.png,,w,right,6168e3efc08671bd92f7fd37,2021-10-27_11h10.43.946,arrow_simon_punish,2021.1.2,Win32,60.0240096,,,,,,,,,,,,,,w,1,1.591,1.554119397,0,1,6,0,24,3,1,,,,,,,,,,,,,,
,,,,,,,,,,,right.png,,p,right,6168e3efc08671bd92f7fd37,2021-10-27_11h10.43.946,arrow_simon_punish,2021.1.2,Win32,60.0240096,,,,,,,,,,,,,,w,0,1.538,2.426412845,1,1,6,1,25,1,1,,,,,,,,,,,,,,
,,,,,,,,,,,left.png,,w,right,6168e3efc08671bd92f7fd37,2021-10-27_11h10.43.946,arrow_simon_punish,2021.1.2,Win32,60.0240096,,,,,,,,,,,,,,w,1,1.503,2.418344935,0,1,6,2,26,3,1,,,,,,,,,,,,,,
,,,,,,,,,,,left.png,,w,right,6168e3efc08671bd92f7fd37,2021-10-27_11h10.43.946,arrow_simon_punish,2021.1.2,Win32,60.0240096,,,,,,,,,,,,,,w,1,1.49,1.913901219,0,1,6,3,27,3,1,,,,,,,,,,,,,,
,,,,,,,,,,,left.png,,w,right,6168e3efc08671bd92f7fd37,2021-10-27_11h10.43.946,arrow_simon_punish,2021.1.2,Win32,60.0240096,,,,,,,,,,,,,,w,1,1.587,1.688278415,0,1,7,0,28,3,1,,,,,,,,,,,,,,
,,,,,,,,,,,right.png,,p,left,6168e3efc08671bd92f7fd37,2021-10-27_11h10.43.946,arrow_simon_punish,2021.1.2,Win32,60.0240096,,,,,,,,,,,,,,p,1,1.54,1.694940737,0,1,7,1,29,0,1,,,,,,,,,,,,,,
,,,,,,,,,,,right.png,,p,left,6168e3efc08671bd92f7fd37,2021-10-27_11h10.43.946,arrow_simon_punish,2021.1.2,Win32,60.0240096,,,,,,,,,,,,,,p,1,1.506,1.893941093,0,1,7,2,30,0,1,,,,,,,,,,,,,,
,,,,,,,,,,,right.png,,p,right,6168e3efc08671bd92f7fd37,2021-10-27_11h10.43.946,arrow_simon_punish,2021.1.2,Win32,60.0240096,,,,,,,,,,,,,,p,1,1.572,1.768475679,0,1,7,3,31,1,1,,,,,,,,,,,,,,
,,,,,,,,,,,left.png,,w,left,6168e3efc08671bd92f7fd37,2021-10-27_11h10.43.946,arrow_simon_punish,2021.1.2,Win32,60.0240096,,,,,,,,,,,,,,w,1,1.561,1.597058424,0,1,8,0,32,2,1,,,,,,,,,,,,,,
,,,,,,,,,,,left.png,,w,left,6168e3efc08671bd92f7fd37,2021-10-27_11h10.43.946,arrow_simon_punish,2021.1.2,Win32,60.0240096,,,,,,,,,,,,,,w,1,1.5,1.833398851,0,1,8,1,33,2,1,,,,,,,,,,,,,,
,,,,,,,,,,,left.png,,w,right,6168e3efc08671bd92f7fd37,2021-10-27_11h10.43.946,arrow_simon_punish,2021.1.2,Win32,60.0240096,,,,,,,,,,,,,,p,0,1.586,2.361007477,1,1,8,2,34,3,1,,,,,,,,,,,,,,
,,,,,,,,,,,left.png,,w,left,6168e3efc08671bd92f7fd37,2021-10-27_11h10.43.946,arrow_simon_punish,2021.1.2,Win32,60.0240096,,,,,,,,,,,,,,w,1,1.537,1.935724359,0,1,8,3,35,2,1,,,,,,,,,,,,,,
,,,,,,,,,,,right.png,,p,right,6168e3efc08671bd92f7fd37,2021-10-27_11h10.43.946,arrow_simon_punish,2021.1.2,Win32,60.0240096,,,,,,,,,,,,,,p,1,1.518,1.621570572,0,1,9,0,36,1,1,,,,,,,,,,,,,,
,,,,,,,,,,,left.png,,w,right,6168e3efc08671bd92f7fd37,2021-10-27_11h10.43.946,arrow_simon_punish,2021.1.2,Win32,60.0240096,,,,,,,,,,,,,,p,0,1.636,2.356989633,1,1,9,1,37,3,1,,,,,,,,,,,,,,
,,,,,,,,,,,right.png,,p,right,6168e3efc08671bd92f7fd37,2021-10-27_11h10.43.946,arrow_simon_punish,2021.1.2,Win32,60.0240096,,,,,,,,,,,,,,w,0,1.536,2.425655968,1,1,9,2,38,1,1,,,,,,,,,,,,,,
,,,,,,,,,,,right.png,,p,right,6168e3efc08671bd92f7fd37,2021-10-27_11h10.43.946,arrow_simon_punish,2021.1.2,Win32,60.0240096,,,,,,,,,,,,,,p,1,1.424,1.523888961,0,1,9,3,39,1,1,,,,,,,,,,,,,,
,,,,,,,,,,,left.png,,w,right,6168e3efc08671bd92f7fd37,2021-10-27_11h10.43.946,arrow_simon_punish,2021.1.2,Win32,60.0240096,,,,,,,,,,,,,,w,1,1.521,1.935807636,0,1,10,0,40,3,1,,,,,,,,,,,,,,
,,,,,,,,,,,left.png,,w,right,6168e3efc08671bd92f7fd37,2021-10-27_11h10.43.946,arrow_simon_punish,2021.1.2,Win32,60.0240096,,,,,,,,,,,,,,p,0,1.492,2.147716584,1,1,10,1,41,3,1,,,,,,,,,,,,,,
,,,,,,,,,,,right.png,,p,left,6168e3efc08671bd92f7fd37,2021-10-27_11h10.43.946,arrow_simon_punish,2021.1.2,Win32,60.0240096,,,,,,,,,,,,,,p,1,1.606,1.537241289,1,1,10,2,42,0,1,,,,,,,,,,,,,,
,,,,,,,,,,,right.png,,p,left,6168e3efc08671bd92f7fd37,2021-10-27_11h10.43.946,arrow_simon_punish,2021.1.2,Win32,60.0240096,,,,,,,,,,,,,,p,1,1.51,1.952718017,0,1,10,3,43,0,1,,,,,,,,,,,,,,
,,,,,,,,,,,left.png,,w,left,6168e3efc08671bd92f7fd37,2021-10-27_11h10.43.946,arrow_simon_punish,2021.1.2,Win32,60.0240096,,,,,,,,,,,,,,w,1,1.59,2.179750371,0,1,11,0,44,2,1,,,,,,,,,,,,,,
,,,,,,,,,,,right.png,,p,left,6168e3efc08671bd92f7fd37,2021-10-27_11h10.43.946,arrow_simon_punish,2021.1.2,Win32,60.0240096,,,,,,,,,,,,,,p,1,1.499,1.803230766,0,1,11,1,45,0,1,,,,,,,,,,,,,,
,,,,,,,,,,,left.png,,w,left,6168e3efc08671bd92f7fd37,2021-10-27_11h10.43.946,arrow_simon_punish,2021.1.2,Win32,60.0240096,,,,,,,,,,,,,,w,1,1.524,1.622511269,0,1,11,2,46,2,1,,,,,,,,,,,,,,
,,,,,,,,,,,left.png,,w,left,6168e3efc08671bd92f7fd37,2021-10-27_11h10.43.946,arrow_simon_punish,2021.1.2,Win32,60.0240096,,,,,,,,,,,,,,w,1,1.609,1.632348218,1,1,11,3,47,2,1,,,,,,,,,,,,,,
,,,,,,,,,,,left.png,,w,right,6168e3efc08671bd92f7fd37,2021-10-27_11h10.43.946,arrow_simon_punish,2021.1.2,Win32,60.0240096,,,,,,,,,,,,,,w,1,1.561,1.715327287,0,1,12,0,48,3,1,,,,,,,,,,,,,,
,,,,,,,,,,,right.png,,p,right,6168e3efc08671bd92f7fd37,2021-10-27_11h10.43.946,arrow_simon_punish,2021.1.2,Win32,60.0240096,,,,,,,,,,,,,,p,1,1.538,1.516037149,0,1,12,1,49,1,1,,,,,,,,,,,,,,
,,,,,,,,,,,right.png,,p,left,6168e3efc08671bd92f7fd37,2021-10-27_11h10.43.946,arrow_simon_punish,2021.1.2,Win32,60.0240096,,,,,,,,,,,,,,w,0,1.458,2.204179307,1,1,12,2,50,0,1,,,,,,,,,,,,,,
,,,,,,,,,,,right.png,,p,right,6168e3efc08671bd92f7fd37,2021-10-27_11h10.43.946,arrow_simon_punish,2021.1.2,Win32,60.0240096,,,,,,,,,,,,,,p,1,1.55,1.722845288,0,1,12,3,51,1,1,,,,,,,,,,,,,,
,,,,,,,,,,,right.png,,p,right,6168e3efc08671bd92f7fd37,2021-10-27_11h10.43.946,arrow_simon_punish,2021.1.2,Win32,60.0240096,,,,,,,,,,,,,,p,1,1.342,1.533261478,1,1,13,0,52,1,1,,,,,,,,,,,,,,
,,,,,,,,,,,right.png,,p,right,6168e3efc08671bd92f7fd37,2021-10-27_11h10.43.946,arrow_simon_punish,2021.1.2,Win32,60.0240096,,,,,,,,,,,,,,p,1,1.6,1.71192231,0,1,13,1,53,1,1,,,,,,,,,,,,,,
,,,,,,,,,,,left.png,,w,left,6168e3efc08671bd92f7fd37,2021-10-27_11h10.43.946,arrow_simon_punish,2021.1.2,Win32,60.0240096,,,,,,,,,,,,,,w,1,1.553,2.284520654,0,1,13,2,54,2,1,,,,,,,,,,,,,,
,,,,,,,,,,,right.png,,p,left,6168e3efc08671bd92f7fd37,2021-10-27_11h10.43.946,arrow_simon_punish,2021.1.2,Win32,60.0240096,,,,,,,,,,,,,,p,1,1.594,2.193005735,0,1,13,3,55,0,1,,,,,,,,,,,,,,
,,,,,,,,,,,right.png,,p,right,6168e3efc08671bd92f7fd37,2021-10-27_11h10.43.946,arrow_simon_punish,2021.1.2,Win32,60.0240096,,,,,,,,,,,,,,p,1,1.554,1.964695003,0,1,14,0,56,1,1,,,,,,,,,,,,,,
,,,,,,,,,,,left.png,,w,left,6168e3efc08671bd92f7fd37,2021-10-27_11h10.43.946,arrow_simon_punish,2021.1.2,Win32,60.0240096,,,,,,,,,,,,,,w,1,1.423,1.983504677,0,1,14,1,57,2,1,,,,,,,,,,,,,,
,,,,,,,,,,,right.png,,p,right,6168e3efc08671bd92f7fd37,2021-10-27_11h10.43.946,arrow_simon_punish,2021.1.2,Win32,60.0240096,,,,,,,,,,,,,,p,1,1.656,2.3799268,1,1,14,2,58,1,1,,,,,,,,,,,,,,
,,,,,,,,,,,left.png,,w,right,6168e3efc08671bd92f7fd37,2021-10-27_11h10.43.946,arrow_simon_punish,2021.1.2,Win32,60.0240096,,,,,,,,,,,,,,w,1,1.564,1.631923003,0,1,14,3,59,3,1,,,,,,,,,,,,,,
,,,,,,,,,,,,,,,6168e3efc08671bd92f7fd37,2021-10-27_11h10.43.946,arrow_simon_punish,2021.1.2,Win32,60.0240096,,,,,,,,,,,,,,,,,,,,,,,,,space,65.342,6,2,0,4,0,1,1,,,,,
,,,,,,,,,,,right.png,,p,left,6168e3efc08671bd92f7fd37,2021-10-27_11h10.43.946,arrow_simon_punish,2021.1.2,Win32,60.0240096,,,,,,,,,,,,,,w,0,1.503,2.484764636,1,5,0,0,0,0,1,,,,,,,,,,,,,,
,,,,,,,,,,,left.png,,w,left,6168e3efc08671bd92f7fd37,2021-10-27_11h10.43.946,arrow_simon_punish,2021.1.2,Win32,60.0240096,,,,,,,,,,,,,,w,1,1.626,2.039707663,1,5,0,1,1,2,1,,,,,,,,,,,,,,
,,,,,,,,,,,left.png,,w,right,6168e3efc08671bd92f7fd37,2021-10-27_11h10.43.946,arrow_simon_punish,2021.1.2,Win32,60.0240096,,,,,,,,,,,,,,p,0,1.556,2.315887294,1,5,0,2,2,3,1,,,,,,,,,,,,,,
,,,,,,,,,,,left.png,,w,right,6168e3efc08671bd92f7fd37,2021-10-27_11h10.43.946,arrow_simon_punish,2021.1.2,Win32,60.0240096,,,,,,,,,,,,,,p,0,1.541,1.555035521,1,5,0,3,3,3,1,,,,,,,,,,,,,,
,,,,,,,,,,,right.png,,p,right,6168e3efc08671bd92f7fd37,2021-10-27_11h10.43.946,arrow_simon_punish,2021.1.2,Win32,60.0240096,,,,,,,,,,,,,,p,1,1.574,2.058175445,0,5,1,0,4,1,1,,,,,,,,,,,,,,
,,,,,,,,,,,right.png,,p,left,6168e3efc08671bd92f7fd37,2021-10-27_11h10.43.946,arrow_simon_punish,2021.1.2,Win32,60.0240096,,,,,,,,,,,,,,p,1,1.593,2.472618776,0,5,1,1,5,0,1,,,,,,,,,,,,,,
,,,,,,,,,,,right.png,,p,right,6168e3efc08671bd92f7fd37,2021-10-27_11h10.43.946,arrow_simon_punish,2021.1.2,Win32,60.0240096,,,,,,,,,,,,,,w,0,1.544,2.321060397,1,5,1,2,6,1,1,,,,,,,,,,,,,,
,,,,,,,,,,,right.png,,p,left,6168e3efc08671bd92f7fd37,2021-10-27_11h10.43.946,arrow_simon_punish,2021.1.2,Win32,60.0240096,,,,,,,,,,,,,,w,0,1.536,2.353885334,1,5,1,3,7,0,1,,,,,,,,,,,,,,
,,,,,,,,,,,left.png,,w,right,6168e3efc08671bd92f7fd37,2021-10-27_11h10.43.946,arrow_simon_punish,2021.1.2,Win32,60.0240096,,,,,,,,,,,,,,w,1,1.61,2.109785757,1,5,2,0,8,3,1,,,,,,,,,,,,,,
,,,,,,,,,,,right.png,,p,left,6168e3efc08671bd92f7fd37,2021-10-27_11h10.43.946,arrow_simon_punish,2021.1.2,Win32,60.0240096,,,,,,,,,,,,,,p,1,1.554,2.435150714,0,5,2,1,9,0,1,,,,,,,,,,,,,,
,,,,,,,,,,,left.png,,w,left,6168e3efc08671bd92f7fd37,2021-10-27_11h10.43.946,arrow_simon_punish,2021.1.2,Win32,60.0240096,,,,,,,,,,,,,,w,1,1.423,2.012934615,0,5,2,2,10,2,1,,,,,,,,,,,,,,
,,,,,,,,,,,left.png,,w,left,6168e3efc08671bd92f7fd37,2021-10-27_11h10.43.946,arrow_simon_punish,2021.1.2,Win32,60.0240096,,,,,,,,,,,,,,w,1,1.439,2.21051301,0,5,2,3,11,2,1,,,,,,,,,,,,,,
,,,,,,,,,,,left.png,,w,right,6168e3efc08671bd92f7fd37,2021-10-27_11h10.43.946,arrow_simon_punish,2021.1.2,Win32,60.0240096,,,,,,,,,,,,,,w,1,1.519,1.931640839,0,5,3,0,12,3,1,,,,,,,,,,,,,,
,,,,,,,,,,,right.png,,p,left,6168e3efc08671bd92f7fd37,2021-10-27_11h10.43.946,arrow_simon_punish,2021.1.2,Win32,60.0240096,,,,,,,,,,,,,,p,1,1.619,1.602877742,1,5,3,1,13,0,1,,,,,,,,,,,,,,
,,,,,,,,,,,left.png,,w,right,6168e3efc08671bd92f7fd37,2021-10-27_11h10.43.946,arrow_simon_punish,2021.1.2,Win32,60.0240096,,,,,,,,,,,,,,w,1,1.591,2.03979204,0,5,3,2,14,3,1,,,,,,,,,,,,,,
,,,,,,,,,,,right.png,,p,right,6168e3efc08671bd92f7fd37,2021-10-27_11h10.43.946,arrow_simon_punish,2021.1.2,Win32,60.0240096,,,,,,,,,,,,,,p,1,1.457,1.620984706,0,5,3,3,15,1,1,,,,,,,,,,,,,,
,,,,,,,,,,,left.png,,w,left,6168e3efc08671bd92f7fd37,2021-10-27_11h10.43.946,arrow_simon_punish,2021.1.2,Win32,60.0240096,,,,,,,,,,,,,,w,1,1.439,2.009459547,0,5,4,0,16,2,1,,,,,,,,,,,,,,
,,,,,,,,,,,right.png,,p,left,6168e3efc08671bd92f7fd37,2021-10-27_11h10.43.946,arrow_simon_punish,2021.1.2,Win32,60.0240096,,,,,,,,,,,,,,p,1,1.418,1.910461814,0,5,4,1,17,0,1,,,,,,,,,,,,,,
,,,,,,,,,,,left.png,,w,left,6168e3efc08671bd92f7fd37,2021-10-27_11h10.43.946,arrow_simon_punish,2021.1.2,Win32,60.0240096,,,,,,,,,,,,,,p,0,1.488,2.315742716,1,5,4,2,18,2,1,,,,,,,,,,,,,,
,,,,,,,,,,,right.png,,p,left,6168e3efc08671bd92f7fd37,2021-10-27_11h10.43.946,arrow_simon_punish,2021.1.2,Win32,60.0240096,,,,,,,,,,,,,,p,1,1.507,1.511922073,0,5,4,3,19,0,1,,,,,,,,,,,,,,
,,,,,,,,,,,right.png,,p,left,6168e3efc08671bd92f7fd37,2021-10-27_11h10.43.946,arrow_simon_punish,2021.1.2,Win32,60.0240096,,,,,,,,,,,,,,p,1,1.341,1.864175585,1,5,5,0,20,0,1,,,,,,,,,,,,,,
,,,,,,,,,,,left.png,,w,right,6168e3efc08671bd92f7fd37,2021-10-27_11h10.43.946,arrow_simon_punish,2021.1.2,Win32,60.0240096,,,,,,,,,,,,,,w,1,1.473,2.112483355,0,5,5,1,21,3,1,,,,,,,,,,,,,,
,,,,,,,,,,,right.png,,p,left,6168e3efc08671bd92f7fd37,2021-10-27_11h10.43.946,arrow_simon_punish,2021.1.2,Win32,60.0240096,,,,,,,,,,,,,,p,1,1.469,1.500505131,0,5,5,2,22,0,1,,,,,,,,,,,,,,
,,,,,,,,,,,left.png,,w,right,6168e3efc08671bd92f7fd37,2021-10-27_11h10.43.946,arrow_simon_punish,2021.1.2,Win32,60.0240096,,,,,,,,,,,,,,w,1,1.419,1.984306375,0,5,5,3,23,3,1,,,,,,,,,,,,,,
,,,,,,,,,,,right.png,,p,left,6168e3efc08671bd92f7fd37,2021-10-27_11h10.43.946,arrow_simon_punish,2021.1.2,Win32,60.0240096,,,,,,,,,,,,,,p,1,1.47,1.948800377,0,5,6,0,24,0,1,,,,,,,,,,,,,,
,,,,,,,,,,,right.png,,p,right,6168e3efc08671bd92f7fd37,2021-10-27_11h10.43.946,arrow_simon_punish,2021.1.2,Win32,60.0240096,,,,,,,,,,,,,,p,1,1.473,1.932598651,0,5,6,1,25,1,1,,,,,,,,,,,,,,
,,,,,,,,,,,left.png,,w,right,6168e3efc08671bd92f7fd37,2021-10-27_11h10.43.946,arrow_simon_punish,2021.1.2,Win32,60.0240096,,,,,,,,,,,,,,p,0,1.474,2.454367941,1,5,6,2,26,3,1,,,,,,,,,,,,,,
,,,,,,,,,,,right.png,,p,right,6168e3efc08671bd92f7fd37,2021-10-27_11h10.43.946,arrow_simon_punish,2021.1.2,Win32,60.0240096,,,,,,,,,,,,,,p,1,1.565,1.920245443,0,5,6,3,27,1,1,,,,,,,,,,,,,,
,,,,,,,,,,,right.png,,p,right,6168e3efc08671bd92f7fd37,2021-10-27_11h10.43.946,arrow_simon_punish,2021.1.2,Win32,60.0240096,,,,,,,,,,,,,,p,1,1.506,1.616413328,0,5,7,0,28,1,1,,,,,,,,,,,,,,
,,,,,,,,,,,right.png,,p,left,6168e3efc08671bd92f7fd37,2021-10-27_11h10.43.946,arrow_simon_punish,2021.1.2,Win32,60.0240096,,,,,,,,,,,,,,w,0,1.479,2.439672127,1,5,7,1,29,0,1,,,,,,,,,,,,,,
,,,,,,,,,,,left.png,,w,left,6168e3efc08671bd92f7fd37,2021-10-27_11h10.43.946,arrow_simon_punish,2021.1.2,Win32,60.0240096,,,,,,,,,,,,,,w,1,1.405,2.050751437,0,5,7,2,30,2,1,,,,,,,,,,,,,,
,,,,,,,,,,,right.png,,p,right,6168e3efc08671bd92f7fd37,2021-10-27_11h10.43.946,arrow_simon_punish,2021.1.2,Win32,60.0240096,,,,,,,,,,,,,,p,1,1.57,2.083690429,0,5,7,3,31,1,1,,,,,,,,,,,,,,
,,,,,,,,,,,right.png,,p,left,6168e3efc08671bd92f7fd37,2021-10-27_11h10.43.946,arrow_simon_punish,2021.1.2,Win32,60.0240096,,,,,,,,,,,,,,p,1,1.488,1.941205905,0,5,8,0,32,0,1,,,,,,,,,,,,,,
,,,,,,,,,,,left.png,,w,right,6168e3efc08671bd92f7fd37,2021-10-27_11h10.43.946,arrow_simon_punish,2021.1.2,Win32,60.0240096,,,,,,,,,,,,,,w,1,1.472,2.380828267,0,5,8,1,33,3,1,,,,,,,,,,,,,,
,,,,,,,,,,,left.png,,w,left,6168e3efc08671bd92f7fd37,2021-10-27_11h10.43.946,arrow_simon_punish,2021.1.2,Win32,60.0240096,,,,,,,,,,,,,,w,1,1.506,2.302368106,0,5,8,2,34,2,1,,,,,,,,,,,,,,
,,,,,,,,,,,left.png,,w,left,6168e3efc08671bd92f7fd37,2021-10-27_11h10.43.946,arrow_simon_punish,2021.1.2,Win32,60.0240096,,,,,,,,,,,,,,p,0,1.486,2.230515971,1,5,8,3,35,2,1,,,,,,,,,,,,,,
,,,,,,,,,,,right.png,,p,right,6168e3efc08671bd92f7fd37,2021-10-27_11h10.43.946,arrow_simon_punish,2021.1.2,Win32,60.0240096,,,,,,,,,,,,,,p,1,1.81,1.565545021,1,5,9,0,36,1,1,,,,,,,,,,,,,,
,,,,,,,,,,,left.png,,w,right,6168e3efc08671bd92f7fd37,2021-10-27_11h10.43.946,arrow_simon_punish,2021.1.2,Win32,60.0240096,,,,,,,,,,,,,,w,1,1.456,2.36938006,0,5,9,1,37,3,1,,,,,,,,,,,,,,
,,,,,,,,,,,left.png,,w,left,6168e3efc08671bd92f7fd37,2021-10-27_11h10.43.946,arrow_simon_punish,2021.1.2,Win32,60.0240096,,,,,,,,,,,,,,p,0,1.391,2.30692782,1,5,9,2,38,2,1,,,,,,,,,,,,,,
,,,,,,,,,,,left.png,,w,left,6168e3efc08671bd92f7fd37,2021-10-27_11h10.43.946,arrow_simon_punish,2021.1.2,Win32,60.0240096,,,,,,,,,,,,,,w,1,1.492,1.517101608,0,5,9,3,39,2,1,,,,,,,,,,,,,,
,,,,,,,,,,,right.png,,p,left,6168e3efc08671bd92f7fd37,2021-10-27_11h10.43.946,arrow_simon_punish,2021.1.2,Win32,60.0240096,,,,,,,,,,,,,,p,1,1.523,1.603049949,0,5,10,0,40,0,1,,,,,,,,,,,,,,
,,,,,,,,,,,right.png,,p,left,6168e3efc08671bd92f7fd37,2021-10-27_11h10.43.946,arrow_simon_punish,2021.1.2,Win32,60.0240096,,,,,,,,,,,,,,p,1,1.54,1.521822395,0,5,10,1,41,0,1,,,,,,,,,,,,,,
,,,,,,,,,,,right.png,,p,right,6168e3efc08671bd92f7fd37,2021-10-27_11h10.43.946,arrow_simon_punish,2021.1.2,Win32,60.0240096,,,,,,,,,,,,,,p,1,1.489,1.676654997,0,5,10,2,42,1,1,,,,,,,,,,,,,,
,,,,,,,,,,,right.png,,p,right,6168e3efc08671bd92f7fd37,2021-10-27_11h10.43.946,arrow_simon_punish,2021.1.2,Win32,60.0240096,,,,,,,,,,,,,,p,1,1.488,2.057873165,0,5,10,3,43,1,1,,,,,,,,,,,,,,
,,,,,,,,,,,right.png,,p,right,6168e3efc08671bd92f7fd37,2021-10-27_11h10.43.946,arrow_simon_punish,2021.1.2,Win32,60.0240096,,,,,,,,,,,,,,p,1,1.558,1.570037374,0,5,11,0,44,1,1,,,,,,,,,,,,,,
,,,,,,,,,,,right.png,,p,right,6168e3efc08671bd92f7fd37,2021-10-27_11h10.43.946,arrow_simon_punish,2021.1.2,Win32,60.0240096,,,,,,,,,,,,,,p,1,1.388,1.766413933,1,5,11,1,45,1,1,,,,,,,,,,,,,,
,,,,,,,,,,,left.png,,w,right,6168e3efc08671bd92f7fd37,2021-10-27_11h10.43.946,arrow_simon_punish,2021.1.2,Win32,60.0240096,,,,,,,,,,,,,,w,1,1.593,1.698437109,0,5,11,2,46,3,1,,,,,,,,,,,,,,
,,,,,,,,,,,left.png,,w,left,6168e3efc08671bd92f7fd37,2021-10-27_11h10.43.946,arrow_simon_punish,2021.1.2,Win32,60.0240096,,,,,,,,,,,,,,w,1,1.359,1.863670799,1,5,11,3,47,2,1,,,,,,,,,,,,,,
,,,,,,,,,,,left.png,,w,left,6168e3efc08671bd92f7fd37,2021-10-27_11h10.43.946,arrow_simon_punish,2021.1.2,Win32,60.0240096,,,,,,,,,,,,,,w,1,1.439,2.483985417,0,5,12,0,48,2,1,,,,,,,,,,,,,,
,,,,,,,,,,,right.png,,p,right,6168e3efc08671bd92f7fd37,2021-10-27_11h10.43.946,arrow_simon_punish,2021.1.2,Win32,60.0240096,,,,,,,,,,,,,,p,1,1.504,1.635563011,0,5,12,1,49,1,1,,,,,,,,,,,,,,
,,,,,,,,,,,left.png,,w,right,6168e3efc08671bd92f7fd37,2021-10-27_11h10.43.946,arrow_simon_punish,2021.1.2,Win32,60.0240096,,,,,,,,,,,,,,p,0,1.385,2.116065384,1,5,12,2,50,3,1,,,,,,,,,,,,,,
,,,,,,,,,,,right.png,,p,left,6168e3efc08671bd92f7fd37,2021-10-27_11h10.43.946,arrow_simon_punish,2021.1.2,Win32,60.0240096,,,,,,,,,,,,,,p,1,1.494,2.112967542,0,5,12,3,51,0,1,,,,,,,,,,,,,,
,,,,,,,,,,,left.png,,w,right,6168e3efc08671bd92f7fd37,2021-10-27_11h10.43.946,arrow_simon_punish,2021.1.2,Win32,60.0240096,,,,,,,,,,,,,,w,1,1.643,2.16568245,1,5,13,0,52,3,1,,,,,,,,,,,,,,
,,,,,,,,,,,left.png,,w,left,6168e3efc08671bd92f7fd37,2021-10-27_11h10.43.946,arrow_simon_punish,2021.1.2,Win32,60.0240096,,,,,,,,,,,,,,w,1,1.555,1.874425423,0,5,13,1,53,2,1,,,,,,,,,,,,,,
,,,,,,,,,,,right.png,,p,right,6168e3efc08671bd92f7fd37,2021-10-27_11h10.43.946,arrow_simon_punish,2021.1.2,Win32,60.0240096,,,,,,,,,,,,,,w,0,1.576,2.467638226,1,5,13,2,54,1,1,,,,,,,,,,,,,,
,,,,,,,,,,,left.png,,w,right,6168e3efc08671bd92f7fd37,2021-10-27_11h10.43.946,arrow_simon_punish,2021.1.2,Win32,60.0240096,,,,,,,,,,,,,,w,1,1.477,1.628378732,0,5,13,3,55,3,1,,,,,,,,,,,,,,
,,,,,,,,,,,left.png,,w,right,6168e3efc08671bd92f7fd37,2021-10-27_11h10.43.946,arrow_simon_punish,2021.1.2,Win32,60.0240096,,,,,,,,,,,,,,w,1,1.4,1.778786916,0,5,14,0,56,3,1,,,,,,,,,,,,,,
,,,,,,,,,,,left.png,,w,left,6168e3efc08671bd92f7fd37,2021-10-27_11h10.43.946,arrow_simon_punish,2021.1.2,Win32,60.0240096,,,,,,,,,,,,,,w,1,1.606,1.680915772,1,5,14,1,57,2,1,,,,,,,,,,,,,,
,,,,,,,,,,,right.png,,p,right,6168e3efc08671bd92f7fd37,2021-10-27_11h10.43.946,arrow_simon_punish,2021.1.2,Win32,60.0240096,,,,,,,,,,,,,,p,1,1.57,1.615290275,0,5,14,2,58,1,1,,,,,,,,,,,,,,
,,,,,,,,,,,left.png,,w,left,6168e3efc08671bd92f7fd37,2021-10-27_11h10.43.946,arrow_simon_punish,2021.1.2,Win32,60.0240096,,,,,,,,,,,,,,p,0,1.495,2.464060314,1,5,14,3,59,2,1,,,,,,,,,,,,,,
,,,,,,,,,,,,,,,6168e3efc08671bd92f7fd37,2021-10-27_11h10.43.946,arrow_simon_punish,2021.1.2,Win32,60.0240096,,,,,,,,,,,,,,,,,,,,,,,,,space,4.401,7,2,1,5,1,1,5,,,,,
,,,,,,,,,,,left.png,,w,right,6168e3efc08671bd92f7fd37,2021-10-27_11h10.43.946,arrow_simon_punish,2021.1.2,Win32,60.0240096,,,,,,,,,,,,,,w,1,1.47,1.901642082,0,1,0,0,0,3,1,,,,,,,,,,,,,,
,,,,,,,,,,,left.png,,w,right,6168e3efc08671bd92f7fd37,2021-10-27_11h10.43.946,arrow_simon_punish,2021.1.2,Win32,60.0240096,,,,,,,,,,,,,,p,0,1.439,1.961631007,1,1,0,1,1,3,1,,,,,,,,,,,,,,
,,,,,,,,,,,right.png,,p,right,6168e3efc08671bd92f7fd37,2021-10-27_11h10.43.946,arrow_simon_punish,2021.1.2,Win32,60.0240096,,,,,,,,,,,,,,p,1,1.538,1.754034746,0,1,0,2,2,1,1,,,,,,,,,,,,,,
,,,,,,,,,,,right.png,,p,left,6168e3efc08671bd92f7fd37,2021-10-27_11h10.43.946,arrow_simon_punish,2021.1.2,Win32,60.0240096,,,,,,,,,,,,,,p,1,1.506,2.023822022,0,1,0,3,3,0,1,,,,,,,,,,,,,,
,,,,,,,,,,,left.png,,w,right,6168e3efc08671bd92f7fd37,2021-10-27_11h10.43.946,arrow_simon_punish,2021.1.2,Win32,60.0240096,,,,,,,,,,,,,,p,0,1.557,2.264012002,1,1,1,0,4,3,1,,,,,,,,,,,,,,
,,,,,,,,,,,right.png,,p,right,6168e3efc08671bd92f7fd37,2021-10-27_11h10.43.946,arrow_simon_punish,2021.1.2,Win32,60.0240096,,,,,,,,,,,,,,p,1,1.755,1.740258358,1,1,1,1,5,1,1,,,,,,,,,,,,,,
,,,,,,,,,,,left.png,,w,left,6168e3efc08671bd92f7fd37,2021-10-27_11h10.43.946,arrow_simon_punish,2021.1.2,Win32,60.0240096,,,,,,,,,,,,,,w,1,1.477,2.037845486,0,1,1,2,6,2,1,,,,,,,,,,,,,,
,,,,,,,,,,,left.png,,w,left,6168e3efc08671bd92f7fd37,2021-10-27_11h10.43.946,arrow_simon_punish,2021.1.2,Win32,60.0240096,,,,,,,,,,,,,,w,1,1.48,1.723493788,0,1,1,3,7,2,1,,,,,,,,,,,,,,
,,,,,,,,,,,left.png,,w,right,6168e3efc08671bd92f7fd37,2021-10-27_11h10.43.946,arrow_simon_punish,2021.1.2,Win32,60.0240096,,,,,,,,,,,,,,p,0,1.455,2.135335274,1,1,2,0,8,3,1,,,,,,,,,,,,,,
,,,,,,,,,,,left.png,,w,right,6168e3efc08671bd92f7fd37,2021-10-27_11h10.43.946,arrow_simon_punish,2021.1.2,Win32,60.0240096,,,,,,,,,,,,,,w,1,1.516,1.514523589,0,1,2,1,9,3,1,,,,,,,,,,,,,,
,,,,,,,,,,,left.png,,w,left,6168e3efc08671bd92f7fd37,2021-10-27_11h10.43.946,arrow_simon_punish,2021.1.2,Win32,60.0240096,,,,,,,,,,,,,,w,1,1.545,2.208401212,0,1,2,2,10,2,1,,,,,,,,,,,,,,
,,,,,,,,,,,left.png,,w,right,6168e3efc08671bd92f7fd37,2021-10-27_11h10.43.946,arrow_simon_punish,2021.1.2,Win32,60.0240096,,,,,,,,,,,,,,w,1,1.551,2.018109794,0,1,2,3,11,3,1,,,,,,,,,,,,,,
,,,,,,,,,,,right.png,,p,right,6168e3efc08671bd92f7fd37,2021-10-27_11h10.43.946,arrow_simon_punish,2021.1.2,Win32,60.0240096,,,,,,,,,,,,,,p,1,1.617,1.803128383,1,1,3,0,12,1,1,,,,,,,,,,,,,,
,,,,,,,,,,,left.png,,w,right,6168e3efc08671bd92f7fd37,2021-10-27_11h10.43.946,arrow_simon_punish,2021.1.2,Win32,60.0240096,,,,,,,,,,,,,,p,0,1.536,2.253539348,1,1,3,1,13,3,1,,,,,,,,,,,,,,
,,,,,,,,,,,right.png,,p,right,6168e3efc08671bd92f7fd37,2021-10-27_11h10.43.946,arrow_simon_punish,2021.1.2,Win32,60.0240096,,,,,,,,,,,,,,p,1,1.506,1.632670511,0,1,3,2,14,1,1,,,,,,,,,,,,,,
,,,,,,,,,,,left.png,,w,left,6168e3efc08671bd92f7fd37,2021-10-27_11h10.43.946,arrow_simon_punish,2021.1.2,Win32,60.0240096,,,,,,,,,,,,,,w,1,1.485,2.19433556,0,1,3,3,15,2,1,,,,,,,,,,,,,,
,,,,,,,,,,,right.png,,p,right,6168e3efc08671bd92f7fd37,2021-10-27_11h10.43.946,arrow_simon_punish,2021.1.2,Win32,60.0240096,,,,,,,,,,,,,,p,1,1.474,2.165965265,0,1,4,0,16,1,1,,,,,,,,,,,,,,
,,,,,,,,,,,right.png,,p,right,6168e3efc08671bd92f7fd37,2021-10-27_11h10.43.946,arrow_simon_punish,2021.1.2,Win32,60.0240096,,,,,,,,,,,,,,p,1,1.572,1.932252622,0,1,4,1,17,1,1,,,,,,,,,,,,,,
,,,,,,,,,,,left.png,,w,right,6168e3efc08671bd92f7fd37,2021-10-27_11h10.43.946,arrow_simon_punish,2021.1.2,Win32,60.0240096,,,,,,,,,,,,,,w,1,1.52,1.563683001,0,1,4,2,18,3,1,,,,,,,,,,,,,,
,,,,,,,,,,,left.png,,w,left,6168e3efc08671bd92f7fd37,2021-10-27_11h10.43.946,arrow_simon_punish,2021.1.2,Win32,60.0240096,,,,,,,,,,,,,,w,1,1.586,1.683737297,0,1,4,3,19,2,1,,,,,,,,,,,,,,
,,,,,,,,,,,right.png,,p,left,6168e3efc08671bd92f7fd37,2021-10-27_11h10.43.946,arrow_simon_punish,2021.1.2,Win32,60.0240096,,,,,,,,,,,,,,p,1,1.501,2.178864569,0,1,5,0,20,0,1,,,,,,,,,,,,,,
,,,,,,,,,,,left.png,,w,left,6168e3efc08671bd92f7fd37,2021-10-27_11h10.43.946,arrow_simon_punish,2021.1.2,Win32,60.0240096,,,,,,,,,,,,,,w,1,1.573,1.580444839,0,1,5,1,21,2,1,,,,,,,,,,,,,,
,,,,,,,,,,,left.png,,w,left,6168e3efc08671bd92f7fd37,2021-10-27_11h10.43.946,arrow_simon_punish,2021.1.2,Win32,60.0240096,,,,,,,,,,,,,,w,1,1.438,2.162446844,0,1,5,2,22,2,1,,,,,,,,,,,,,,
,,,,,,,,,,,right.png,,p,right,6168e3efc08671bd92f7fd37,2021-10-27_11h10.43.946,arrow_simon_punish,2021.1.2,Win32,60.0240096,,,,,,,,,,,,,,p,1,1.521,2.467933905,0,1,5,3,23,1,1,,,,,,,,,,,,,,
,,,,,,,,,,,left.png,,w,left,6168e3efc08671bd92f7fd37,2021-10-27_11h10.43.946,arrow_simon_punish,2021.1.2,Win32,60.0240096,,,,,,,,,,,,,,w,1,1.557,2.181641958,0,1,6,0,24,2,1,,,,,,,,,,,,,,
,,,,,,,,,,,right.png,,p,left,6168e3efc08671bd92f7fd37,2021-10-27_11h10.43.946,arrow_simon_punish,2021.1.2,Win32,60.0240096,,,,,,,,,,,,,,p,1,1.607,1.705101423,1,1,6,1,25,0,1,,,,,,,,,,,,,,
,,,,,,,,,,,right.png,,p,right,6168e3efc08671bd92f7fd37,2021-10-27_11h10.43.946,arrow_simon_punish,2021.1.2,Win32,60.0240096,,,,,,,,,,,,,,p,1,1.509,2.349980857,0,1,6,2,26,1,1,,,,,,,,,,,,,,
,,,,,,,,,,,right.png,,p,right,6168e3efc08671bd92f7fd37,2021-10-27_11h10.43.946,arrow_simon_punish,2021.1.2,Win32,60.0240096,,,,,,,,,,,,,,p,1,1.675,2.110082673,1,1,6,3,27,1,1,,,,,,,,,,,,,,
,,,,,,,,,,,right.png,,p,right,6168e3efc08671bd92f7fd37,2021-10-27_11h10.43.946,arrow_simon_punish,2021.1.2,Win32,60.0240096,,,,,,,,,,,,,,p,1,1.61,1.641670081,1,1,7,0,28,1,1,,,,,,,,,,,,,,
,,,,,,,,,,,left.png,,w,left,6168e3efc08671bd92f7fd37,2021-10-27_11h10.43.946,arrow_simon_punish,2021.1.2,Win32,60.0240096,,,,,,,,,,,,,,w,1,1.573,1.949472397,0,1,7,1,29,2,1,,,,,,,,,,,,,,
,,,,,,,,,,,left.png,,w,right,6168e3efc08671bd92f7fd37,2021-10-27_11h10.43.946,arrow_simon_punish,2021.1.2,Win32,60.0240096,,,,,,,,,,,,,,p,0,1.485,2.259276893,1,1,7,2,30,3,1,,,,,,,,,,,,,,
,,,,,,,,,,,right.png,,p,left,6168e3efc08671bd92f7fd37,2021-10-27_11h10.43.946,arrow_simon_punish,2021.1.2,Win32,60.0240096,,,,,,,,,,,,,,p,1,1.618,1.680944928,1,1,7,3,31,0,1,,,,,,,,,,,,,,
,,,,,,,,,,,right.png,,p,left,6168e3efc08671bd92f7fd37,2021-10-27_11h10.43.946,arrow_simon_punish,2021.1.2,Win32,60.0240096,,,,,,,,,,,,,,p,1,1.522,1.574537087,0,1,8,0,32,0,1,,,,,,,,,,,,,,
,,,,,,,,,,,left.png,,w,left,6168e3efc08671bd92f7fd37,2021-10-27_11h10.43.946,arrow_simon_punish,2021.1.2,Win32,60.0240096,,,,,,,,,,,,,,w,1,1.577,1.572049677,0,1,8,1,33,2,1,,,,,,,,,,,,,,
,,,,,,,,,,,right.png,,p,right,6168e3efc08671bd92f7fd37,2021-10-27_11h10.43.946,arrow_simon_punish,2021.1.2,Win32,60.0240096,,,,,,,,,,,,,,p,1,1.428,2.176179048,0,1,8,2,34,1,1,,,,,,,,,,,,,,
,,,,,,,,,,,left.png,,w,left,6168e3efc08671bd92f7fd37,2021-10-27_11h10.43.946,arrow_simon_punish,2021.1.2,Win32,60.0240096,,,,,,,,,,,,,,w,1,1.509,2.300762331,0,1,8,3,35,2,1,,,,,,,,,,,,,,
,,,,,,,,,,,right.png,,p,left,6168e3efc08671bd92f7fd37,2021-10-27_11h10.43.946,arrow_simon_punish,2021.1.2,Win32,60.0240096,,,,,,,,,,,,,,p,1,1.522,2.160487304,0,1,9,0,36,0,1,,,,,,,,,,,,,,
,,,,,,,,,,,left.png,,w,right,6168e3efc08671bd92f7fd37,2021-10-27_11h10.43.946,arrow_simon_punish,2021.1.2,Win32,60.0240096,,,,,,,,,,,,,,p,0,1.523,2.443938442,1,1,9,1,37,3,1,,,,,,,,,,,,,,
,,,,,,,,,,,right.png,,p,left,6168e3efc08671bd92f7fd37,2021-10-27_11h10.43.946,arrow_simon_punish,2021.1.2,Win32,60.0240096,,,,,,,,,,,,,,p,1,1.503,1.653380666,0,1,9,2,38,0,1,,,,,,,,,,,,,,
,,,,,,,,,,,right.png,,p,left,6168e3efc08671bd92f7fd37,2021-10-27_11h10.43.946,arrow_simon_punish,2021.1.2,Win32,60.0240096,,,,,,,,,,,,,,p,1,1.352,1.763849811,1,1,9,3,39,0,1,,,,,,,,,,,,,,
,,,,,,,,,,,right.png,,p,left,6168e3efc08671bd92f7fd37,2021-10-27_11h10.43.946,arrow_simon_punish,2021.1.2,Win32,60.0240096,,,,,,,,,,,,,,p,1,1.81,1.874077236,1,1,10,0,40,0,1,,,,,,,,,,,,,,
,,,,,,,,,,,right.png,,p,left,6168e3efc08671bd92f7fd37,2021-10-27_11h10.43.946,arrow_simon_punish,2021.1.2,Win32,60.0240096,,,,,,,,,,,,,,p,1,1.452,2.315928165,0,1,10,1,41,0,1,,,,,,,,,,,,,,
,,,,,,,,,,,right.png,,p,right,6168e3efc08671bd92f7fd37,2021-10-27_11h10.43.946,arrow_simon_punish,2021.1.2,Win32,60.0240096,,,,,,,,,,,,,,p,1,1.526,2.005675342,0,1,10,2,42,1,1,,,,,,,,,,,,,,
,,,,,,,,,,,right.png,,p,left,6168e3efc08671bd92f7fd37,2021-10-27_11h10.43.946,arrow_simon_punish,2021.1.2,Win32,60.0240096,,,,,,,,,,,,,,w,0,1.459,2.318418312,1,1,10,3,43,0,1,,,,,,,,,,,,,,
,,,,,,,,,,,left.png,,w,left,6168e3efc08671bd92f7fd37,2021-10-27_11h10.43.946,arrow_simon_punish,2021.1.2,Win32,60.0240096,,,,,,,,,,,,,,w,1,1.608,1.773859541,1,1,11,0,44,2,1,,,,,,,,,,,,,,
,,,,,,,,,,,left.png,,w,left,6168e3efc08671bd92f7fd37,2021-10-27_11h10.43.946,arrow_simon_punish,2021.1.2,Win32,60.0240096,,,,,,,,,,,,,,w,1,1.506,2.388915642,0,1,11,1,45,2,1,,,,,,,,,,,,,,
,,,,,,,,,,,right.png,,p,right,6168e3efc08671bd92f7fd37,2021-10-27_11h10.43.946,arrow_simon_punish,2021.1.2,Win32,60.0240096,,,,,,,,,,,,,,p,1,1.61,2.403099524,1,1,11,2,46,1,1,,,,,,,,,,,,,,
,,,,,,,,,,,left.png,,w,right,6168e3efc08671bd92f7fd37,2021-10-27_11h10.43.946,arrow_simon_punish,2021.1.2,Win32,60.0240096,,,,,,,,,,,,,,p,0,1.426,2.288194802,1,1,11,3,47,3,1,,,,,,,,,,,,,,
,,,,,,,,,,,right.png,,p,left,6168e3efc08671bd92f7fd37,2021-10-27_11h10.43.946,arrow_simon_punish,2021.1.2,Win32,60.0240096,,,,,,,,,,,,,,p,1,1.506,2.289774162,0,1,12,0,48,0,1,,,,,,,,,,,,,,
,,,,,,,,,,,left.png,,w,right,6168e3efc08671bd92f7fd37,2021-10-27_11h10.43.946,arrow_simon_punish,2021.1.2,Win32,60.0240096,,,,,,,,,,,,,,w,1,1.375,1.527484129,1,1,12,1,49,3,1,,,,,,,,,,,,,,
,,,,,,,,,,,left.png,,w,left,6168e3efc08671bd92f7fd37,2021-10-27_11h10.43.946,arrow_simon_punish,2021.1.2,Win32,60.0240096,,,,,,,,,,,,,,w,1,1.504,1.754033605,0,1,12,2,50,2,1,,,,,,,,,,,,,,
,,,,,,,,,,,right.png,,p,left,6168e3efc08671bd92f7fd37,2021-10-27_11h10.43.946,arrow_simon_punish,2021.1.2,Win32,60.0240096,,,,,,,,,,,,,,w,0,1.502,2.352108463,1,1,12,3,51,0,1,,,,,,,,,,,,,,
,,,,,,,,,,,left.png,,w,left,6168e3efc08671bd92f7fd37,2021-10-27_11h10.43.946,arrow_simon_punish,2021.1.2,Win32,60.0240096,,,,,,,,,,,,,,w,1,1.488,2.001348773,0,1,13,0,52,2,1,,,,,,,,,,,,,,
,,,,,,,,,,,right.png,,p,left,6168e3efc08671bd92f7fd37,2021-10-27_11h10.43.946,arrow_simon_punish,2021.1.2,Win32,60.0240096,,,,,,,,,,,,,,p,1,1.507,2.06712169,0,1,13,1,53,0,1,,,,,,,,,,,,,,
,,,,,,,,,,,left.png,,w,right,6168e3efc08671bd92f7fd37,2021-10-27_11h10.43.946,arrow_simon_punish,2021.1.2,Win32,60.0240096,,,,,,,,,,,,,,w,1,1.561,2.140317424,0,1,13,2,54,3,1,,,,,,,,,,,,,,
,,,,,,,,,,,right.png,,p,right,6168e3efc08671bd92f7fd37,2021-10-27_11h10.43.946,arrow_simon_punish,2021.1.2,Win32,60.0240096,,,,,,,,,,,,,,p,1,1.553,1.572549486,0,1,13,3,55,1,1,,,,,,,,,,,,,,
,,,,,,,,,,,left.png,,w,right,6168e3efc08671bd92f7fd37,2021-10-27_11h10.43.946,arrow_simon_punish,2021.1.2,Win32,60.0240096,,,,,,,,,,,,,,w,1,1.491,1.519852042,0,1,14,0,56,3,1,,,,,,,,,,,,,,
,,,,,,,,,,,right.png,,p,left,6168e3efc08671bd92f7fd37,2021-10-27_11h10.43.946,arrow_simon_punish,2021.1.2,Win32,60.0240096,,,,,,,,,,,,,,p,1,1.544,1.810516372,0,1,14,1,57,0,1,,,,,,,,,,,,,,
,,,,,,,,,,,right.png,,p,right,6168e3efc08671bd92f7fd37,2021-10-27_11h10.43.946,arrow_simon_punish,2021.1.2,Win32,60.0240096,,,,,,,,,,,,,,p,1,1.551,1.798242195,0,1,14,2,58,1,1,,,,,,,,,,,,,,
,,,,,,,,,,,left.png,,w,right,6168e3efc08671bd92f7fd37,2021-10-27_11h10.43.946,arrow_simon_punish,2021.1.2,Win32,60.0240096,,,,,,,,,,,,,,w,1,1.537,1.8564734,0,1,14,3,59,3,1,,,,,,,,,,,,,,
,,,,,,,,,,,,,,,6168e3efc08671bd92f7fd37,2021-10-27_11h10.43.946,arrow_simon_punish,2021.1.2,Win32,60.0240096,,,,,,,,,,,,,,,,,,,,,,,,,space,8.637,8,3,0,6,0,1,1,,,,,
,,,,,,,,,,,left.png,,w,left,6168e3efc08671bd92f7fd37,2021-10-27_11h10.43.946,arrow_simon_punish,2021.1.2,Win32,60.0240096,,,,,,,,,,,,,,p,0,1.556,2.283524529,1,5,0,0,0,2,1,,,,,,,,,,,,,,
,,,,,,,,,,,left.png,,w,left,6168e3efc08671bd92f7fd37,2021-10-27_11h10.43.946,arrow_simon_punish,2021.1.2,Win32,60.0240096,,,,,,,,,,,,,,w,1,1.47,1.908411593,0,5,0,1,1,2,1,,,,,,,,,,,,,,
,,,,,,,,,,,right.png,,p,left,6168e3efc08671bd92f7fd37,2021-10-27_11h10.43.946,arrow_simon_punish,2021.1.2,Win32,60.0240096,,,,,,,,,,,,,,p,1,1.49,2.47340944,0,5,0,2,2,0,1,,,,,,,,,,,,,,
,,,,,,,,,,,right.png,,p,left,6168e3efc08671bd92f7fd37,2021-10-27_11h10.43.946,arrow_simon_punish,2021.1.2,Win32,60.0240096,,,,,,,,,,,,,,p,1,1.477,2.400038007,0,5,0,3,3,0,1,,,,,,,,,,,,,,
,,,,,,,,,,,right.png,,p,left,6168e3efc08671bd92f7fd37,2021-10-27_11h10.43.946,arrow_simon_punish,2021.1.2,Win32,60.0240096,,,,,,,,,,,,,,p,1,1.471,1.843080668,0,5,1,0,4,0,1,,,,,,,,,,,,,,
,,,,,,,,,,,left.png,,w,left,6168e3efc08671bd92f7fd37,2021-10-27_11h10.43.946,arrow_simon_punish,2021.1.2,Win32,60.0240096,,,,,,,,,,,,,,w,1,1.435,1.507763003,0,5,1,1,5,2,1,,,,,,,,,,,,,,
,,,,,,,,,,,right.png,,p,right,6168e3efc08671bd92f7fd37,2021-10-27_11h10.43.946,arrow_simon_punish,2021.1.2,Win32,60.0240096,,,,,,,,,,,,,,p,1,1.557,2.425339572,0,5,1,2,6,1,1,,,,,,,,,,,,,,
,,,,,,,,,,,left.png,,w,right,6168e3efc08671bd92f7fd37,2021-10-27_11h10.43.946,arrow_simon_punish,2021.1.2,Win32,60.0240096,,,,,,,,,,,,,,w,1,1.523,2.335075462,0,5,1,3,7,3,1,,,,,,,,,,,,,,
,,,,,,,,,,,right.png,,p,left,6168e3efc08671bd92f7fd37,2021-10-27_11h10.43.946,arrow_simon_punish,2021.1.2,Win32,60.0240096,,,,,,,,,,,,,,p,1,1.517,1.977077014,0,5,2,0,8,0,1,,,,,,,,,,,,,,
,,,,,,,,,,,right.png,,p,right,6168e3efc08671bd92f7fd37,2021-10-27_11h10.43.946,arrow_simon_punish,2021.1.2,Win32,60.0240096,,,,,,,,,,,,,,p,1,1.538,2.143010202,0,5,2,1,9,1,1,,,,,,,,,,,,,,
,,,,,,,,,,,right.png,,p,right,6168e3efc08671bd92f7fd37,2021-10-27_11h10.43.946,arrow_simon_punish,2021.1.2,Win32,60.0240096,,,,,,,,,,,,,,p,1,1.613,1.783874592,1,5,2,2,10,1,1,,,,,,,,,,,,,,
,,,,,,,,,,,left.png,,w,left,6168e3efc08671bd92f7fd37,2021-10-27_11h10.43.946,arrow_simon_punish,2021.1.2,Win32,60.0240096,,,,,,,,,,,,,,p,0,1.512,2.353181016,1,5,2,3,11,2,1,,,,,,,,,,,,,,
,,,,,,,,,,,right.png,,p,right,6168e3efc08671bd92f7fd37,2021-10-27_11h10.43.946,arrow_simon_punish,2021.1.2,Win32,60.0240096,,,,,,,,,,,,,,p,1,1.554,2.236886036,0,5,3,0,12,1,1,,,,,,,,,,,,,,
,,,,,,,,,,,right.png,,p,right,6168e3efc08671bd92f7fd37,2021-10-27_11h10.43.946,arrow_simon_punish,2021.1.2,Win32,60.0240096,,,,,,,,,,,,,,p,1,1.563,2.283818755,0,5,3,1,13,1,1,,,,,,,,,,,,,,
