instruct_resp_simon.keys,instruct_resp_simon.corr,instruct_resp_simon.rt,trial_resp_simon.keys,trial_resp_simon.corr,trial_resp_simon.rt,trials_train_simon.thisRepN,trials_train_simon.thisTrialN,trials_train_simon.thisN,trials_train_simon.thisIndex,trials_train_simon.ran,target_file,target_pos,target_resp,target_side,participant,date,expName,psychopyVersion,OS,frameRate,instruct_resp_timing.keys,instruct_resp_timing.corr,instruct_resp_timing.rt,trial_resp_timing.keys,trial_resp_timing.rt,trials_train_timing.thisRepN,trials_train_timing.thisTrialN,trials_train_timing.thisN,trials_train_timing.thisIndex,trials_train_timing.ran,instruct_resp.keys,instruct_resp.corr,instruct_resp.rt,trial_resp.keys,trial_resp.corr,trial_resp.rt,target_onset,err,pun,trials.thisRepN,trials.thisTrialN,trials.thisN,trials.thisIndex,trials.ran,block_note_resp.keys,block_note_resp.rt,block_num,blocks.thisRepN,blocks.thisTrialN,blocks.thisN,blocks.thisIndex,blocks.ran,punish,complete_resp.keys,complete_resp.rt,raffle_trial,raffle_err,raffle_rew
space,0,86.0201,w,1,2.5876,0,0,0,2,1,left.png,,w,left,616b412ca506c4160a608a4a,2021-10-21_07h59.25.283,arrow_simon_punish,2021.1.2,Win32,61.04260774,,,,,,,,,,,,,,,,,,,,,,,,,,,,,,,,,,,,,,
,,,p,1,1.3522,0,1,1,1,1,right.png,,p,right,616b412ca506c4160a608a4a,2021-10-21_07h59.25.283,arrow_simon_punish,2021.1.2,Win32,61.04260774,,,,,,,,,,,,,,,,,,,,,,,,,,,,,,,,,,,,,,
,,,w,1,1.6073,0,2,2,3,1,left.png,,w,right,616b412ca506c4160a608a4a,2021-10-21_07h59.25.283,arrow_simon_punish,2021.1.2,Win32,61.04260774,,,,,,,,,,,,,,,,,,,,,,,,,,,,,,,,,,,,,,
,,,p,1,1.2849,0,3,3,0,1,right.png,,p,left,616b412ca506c4160a608a4a,2021-10-21_07h59.25.283,arrow_simon_punish,2021.1.2,Win32,61.04260774,,,,,,,,,,,,,,,,,,,,,,,,,,,,,,,,,,,,,,
,,,w,1,1.1013,1,0,4,2,1,left.png,,w,left,616b412ca506c4160a608a4a,2021-10-21_07h59.25.283,arrow_simon_punish,2021.1.2,Win32,61.04260774,,,,,,,,,,,,,,,,,,,,,,,,,,,,,,,,,,,,,,
,,,p,1,0.9675,1,1,5,0,1,right.png,,p,left,616b412ca506c4160a608a4a,2021-10-21_07h59.25.283,arrow_simon_punish,2021.1.2,Win32,61.04260774,,,,,,,,,,,,,,,,,,,,,,,,,,,,,,,,,,,,,,
,,,w,1,0.9656,1,2,6,3,1,left.png,,w,right,616b412ca506c4160a608a4a,2021-10-21_07h59.25.283,arrow_simon_punish,2021.1.2,Win32,61.04260774,,,,,,,,,,,,,,,,,,,,,,,,,,,,,,,,,,,,,,
,,,p,1,0.8837,1,3,7,1,1,right.png,,p,right,616b412ca506c4160a608a4a,2021-10-21_07h59.25.283,arrow_simon_punish,2021.1.2,Win32,61.04260774,,,,,,,,,,,,,,,,,,,,,,,,,,,,,,,,,,,,,,
,,,p,1,1.0375,2,0,8,1,1,right.png,,p,right,616b412ca506c4160a608a4a,2021-10-21_07h59.25.283,arrow_simon_punish,2021.1.2,Win32,61.04260774,,,,,,,,,,,,,,,,,,,,,,,,,,,,,,,,,,,,,,
,,,w,0,1.1374,2,1,9,0,1,right.png,,p,left,616b412ca506c4160a608a4a,2021-10-21_07h59.25.283,arrow_simon_punish,2021.1.2,Win32,61.04260774,,,,,,,,,,,,,,,,,,,,,,,,,,,,,,,,,,,,,,
,,,w,1,1.3621,2,2,10,3,1,left.png,,w,right,616b412ca506c4160a608a4a,2021-10-21_07h59.25.283,arrow_simon_punish,2021.1.2,Win32,61.04260774,,,,,,,,,,,,,,,,,,,,,,,,,,,,,,,,,,,,,,
,,,w,1,0.8095,2,3,11,2,1,left.png,,w,left,616b412ca506c4160a608a4a,2021-10-21_07h59.25.283,arrow_simon_punish,2021.1.2,Win32,61.04260774,,,,,,,,,,,,,,,,,,,,,,,,,,,,,,,,,,,,,,
,,,p,1,1.0708,3,0,12,1,1,right.png,,p,right,616b412ca506c4160a608a4a,2021-10-21_07h59.25.283,arrow_simon_punish,2021.1.2,Win32,61.04260774,,,,,,,,,,,,,,,,,,,,,,,,,,,,,,,,,,,,,,
,,,w,1,1.4491,3,1,13,3,1,left.png,,w,right,616b412ca506c4160a608a4a,2021-10-21_07h59.25.283,arrow_simon_punish,2021.1.2,Win32,61.04260774,,,,,,,,,,,,,,,,,,,,,,,,,,,,,,,,,,,,,,
,,,w,1,0.7892,3,2,14,2,1,left.png,,w,left,616b412ca506c4160a608a4a,2021-10-21_07h59.25.283,arrow_simon_punish,2021.1.2,Win32,61.04260774,,,,,,,,,,,,,,,,,,,,,,,,,,,,,,,,,,,,,,
,,,p,1,0.6985,3,3,15,0,1,right.png,,p,left,616b412ca506c4160a608a4a,2021-10-21_07h59.25.283,arrow_simon_punish,2021.1.2,Win32,61.04260774,,,,,,,,,,,,,,,,,,,,,,,,,,,,,,,,,,,,,,
,,,w,0,0.7014,4,0,16,1,1,right.png,,p,right,616b412ca506c4160a608a4a,2021-10-21_07h59.25.283,arrow_simon_punish,2021.1.2,Win32,61.04260774,,,,,,,,,,,,,,,,,,,,,,,,,,,,,,,,,,,,,,
,,,w,1,0.5013,4,1,17,2,1,left.png,,w,left,616b412ca506c4160a608a4a,2021-10-21_07h59.25.283,arrow_simon_punish,2021.1.2,Win32,61.04260774,,,,,,,,,,,,,,,,,,,,,,,,,,,,,,,,,,,,,,
,,,p,1,1.4885,4,2,18,0,1,right.png,,p,left,616b412ca506c4160a608a4a,2021-10-21_07h59.25.283,arrow_simon_punish,2021.1.2,Win32,61.04260774,,,,,,,,,,,,,,,,,,,,,,,,,,,,,,,,,,,,,,
,,,w,1,0.9457,4,3,19,3,1,left.png,,w,right,616b412ca506c4160a608a4a,2021-10-21_07h59.25.283,arrow_simon_punish,2021.1.2,Win32,61.04260774,,,,,,,,,,,,,,,,,,,,,,,,,,,,,,,,,,,,,,
,,,p,1,0.762,5,0,20,0,1,right.png,,p,left,616b412ca506c4160a608a4a,2021-10-21_07h59.25.283,arrow_simon_punish,2021.1.2,Win32,61.04260774,,,,,,,,,,,,,,,,,,,,,,,,,,,,,,,,,,,,,,
,,,p,1,0.8489,5,1,21,1,1,right.png,,p,right,616b412ca506c4160a608a4a,2021-10-21_07h59.25.283,arrow_simon_punish,2021.1.2,Win32,61.04260774,,,,,,,,,,,,,,,,,,,,,,,,,,,,,,,,,,,,,,
,,,w,1,0.6137,5,2,22,3,1,left.png,,w,right,616b412ca506c4160a608a4a,2021-10-21_07h59.25.283,arrow_simon_punish,2021.1.2,Win32,61.04260774,,,,,,,,,,,,,,,,,,,,,,,,,,,,,,,,,,,,,,
,,,w,1,0.6737,5,3,23,2,1,left.png,,w,left,616b412ca506c4160a608a4a,2021-10-21_07h59.25.283,arrow_simon_punish,2021.1.2,Win32,61.04260774,,,,,,,,,,,,,,,,,,,,,,,,,,,,,,,,,,,,,,
,,,w,1,1.3893,6,0,24,3,1,left.png,,w,right,616b412ca506c4160a608a4a,2021-10-21_07h59.25.283,arrow_simon_punish,2021.1.2,Win32,61.04260774,,,,,,,,,,,,,,,,,,,,,,,,,,,,,,,,,,,,,,
,,,p,1,0.7465,6,1,25,1,1,right.png,,p,right,616b412ca506c4160a608a4a,2021-10-21_07h59.25.283,arrow_simon_punish,2021.1.2,Win32,61.04260774,,,,,,,,,,,,,,,,,,,,,,,,,,,,,,,,,,,,,,
,,,w,1,0.4661,6,2,26,2,1,left.png,,w,left,616b412ca506c4160a608a4a,2021-10-21_07h59.25.283,arrow_simon_punish,2021.1.2,Win32,61.04260774,,,,,,,,,,,,,,,,,,,,,,,,,,,,,,,,,,,,,,
,,,p,1,1.0141,6,3,27,0,1,right.png,,p,left,616b412ca506c4160a608a4a,2021-10-21_07h59.25.283,arrow_simon_punish,2021.1.2,Win32,61.04260774,,,,,,,,,,,,,,,,,,,,,,,,,,,,,,,,,,,,,,
,,,p,1,0.6276,7,0,28,0,1,right.png,,p,left,616b412ca506c4160a608a4a,2021-10-21_07h59.25.283,arrow_simon_punish,2021.1.2,Win32,61.04260774,,,,,,,,,,,,,,,,,,,,,,,,,,,,,,,,,,,,,,
,,,w,1,0.5284,7,1,29,3,1,left.png,,w,right,616b412ca506c4160a608a4a,2021-10-21_07h59.25.283,arrow_simon_punish,2021.1.2,Win32,61.04260774,,,,,,,,,,,,,,,,,,,,,,,,,,,,,,,,,,,,,,
,,,p,1,1.3366,7,2,30,1,1,right.png,,p,right,616b412ca506c4160a608a4a,2021-10-21_07h59.25.283,arrow_simon_punish,2021.1.2,Win32,61.04260774,,,,,,,,,,,,,,,,,,,,,,,,,,,,,,,,,,,,,,
,,,w,1,0.5679,7,3,31,2,1,left.png,,w,left,616b412ca506c4160a608a4a,2021-10-21_07h59.25.283,arrow_simon_punish,2021.1.2,Win32,61.04260774,,,,,,,,,,,,,,,,,,,,,,,,,,,,,,,,,,,,,,
,,,p,1,1.2166,8,0,32,0,1,right.png,,p,left,616b412ca506c4160a608a4a,2021-10-21_07h59.25.283,arrow_simon_punish,2021.1.2,Win32,61.04260774,,,,,,,,,,,,,,,,,,,,,,,,,,,,,,,,,,,,,,
,,,w,1,0.7734,8,1,33,2,1,left.png,,w,left,616b412ca506c4160a608a4a,2021-10-21_07h59.25.283,arrow_simon_punish,2021.1.2,Win32,61.04260774,,,,,,,,,,,,,,,,,,,,,,,,,,,,,,,,,,,,,,
,,,p,0,0.436,8,2,34,3,1,left.png,,w,right,616b412ca506c4160a608a4a,2021-10-21_07h59.25.283,arrow_simon_punish,2021.1.2,Win32,61.04260774,,,,,,,,,,,,,,,,,,,,,,,,,,,,,,,,,,,,,,
,,,p,1,0.8322,8,3,35,1,1,right.png,,p,right,616b412ca506c4160a608a4a,2021-10-21_07h59.25.283,arrow_simon_punish,2021.1.2,Win32,61.04260774,,,,,,,,,,,,,,,,,,,,,,,,,,,,,,,,,,,,,,
,,,p,1,1.3883,9,0,36,0,1,right.png,,p,left,616b412ca506c4160a608a4a,2021-10-21_07h59.25.283,arrow_simon_punish,2021.1.2,Win32,61.04260774,,,,,,,,,,,,,,,,,,,,,,,,,,,,,,,,,,,,,,
,,,p,1,0.7837,9,1,37,1,1,right.png,,p,right,616b412ca506c4160a608a4a,2021-10-21_07h59.25.283,arrow_simon_punish,2021.1.2,Win32,61.04260774,,,,,,,,,,,,,,,,,,,,,,,,,,,,,,,,,,,,,,
,,,w,1,0.9617,9,2,38,2,1,left.png,,w,left,616b412ca506c4160a608a4a,2021-10-21_07h59.25.283,arrow_simon_punish,2021.1.2,Win32,61.04260774,,,,,,,,,,,,,,,,,,,,,,,,,,,,,,,,,,,,,,
,,,w,1,1.1289,9,3,39,3,1,left.png,,w,right,616b412ca506c4160a608a4a,2021-10-21_07h59.25.283,arrow_simon_punish,2021.1.2,Win32,61.04260774,,,,,,,,,,,,,,,,,,,,,,,,,,,,,,,,,,,,,,
,,,,,,,,,,,,,,,616b412ca506c4160a608a4a,2021-10-21_07h59.25.283,arrow_simon_punish,2021.1.2,Win32,61.04260774,space,0,32.7614,p,2.7546,0,0,0,0,1,,,,,,,,,,,,,,,,,,,,,,,,,,,,
,,,,,,,,,,,,,,,616b412ca506c4160a608a4a,2021-10-21_07h59.25.283,arrow_simon_punish,2021.1.2,Win32,61.04260774,,,,p,2.5273,1,0,1,0,1,,,,,,,,,,,,,,,,,,,,,,,,,,,,
,,,,,,,,,,,,,,,616b412ca506c4160a608a4a,2021-10-21_07h59.25.283,arrow_simon_punish,2021.1.2,Win32,61.04260774,,,,p,2.5257,2,0,2,0,1,,,,,,,,,,,,,,,,,,,,,,,,,,,,
,,,,,,,,,,,,,,,616b412ca506c4160a608a4a,2021-10-21_07h59.25.283,arrow_simon_punish,2021.1.2,Win32,61.04260774,,,,p,2.3954,3,0,3,0,1,,,,,,,,,,,,,,,,,,,,,,,,,,,,
,,,,,,,,,,,,,,,616b412ca506c4160a608a4a,2021-10-21_07h59.25.283,arrow_simon_punish,2021.1.2,Win32,61.04260774,,,,p,2.4484,4,0,4,0,1,,,,,,,,,,,,,,,,,,,,,,,,,,,,
,,,,,,,,,,,,,,,616b412ca506c4160a608a4a,2021-10-21_07h59.25.283,arrow_simon_punish,2021.1.2,Win32,61.04260774,,,,p,2.4662,5,0,5,0,1,,,,,,,,,,,,,,,,,,,,,,,,,,,,
,,,,,,,,,,,,,,,616b412ca506c4160a608a4a,2021-10-21_07h59.25.283,arrow_simon_punish,2021.1.2,Win32,61.04260774,,,,p,2.3634,6,0,6,0,1,,,,,,,,,,,,,,,,,,,,,,,,,,,,
,,,,,,,,,,,,,,,616b412ca506c4160a608a4a,2021-10-21_07h59.25.283,arrow_simon_punish,2021.1.2,Win32,61.04260774,,,,p,2.5845,7,0,7,0,1,,,,,,,,,,,,,,,,,,,,,,,,,,,,
,,,,,,,,,,,,,,,616b412ca506c4160a608a4a,2021-10-21_07h59.25.283,arrow_simon_punish,2021.1.2,Win32,61.04260774,,,,p,2.5249,8,0,8,0,1,,,,,,,,,,,,,,,,,,,,,,,,,,,,
,,,,,,,,,,,,,,,616b412ca506c4160a608a4a,2021-10-21_07h59.25.283,arrow_simon_punish,2021.1.2,Win32,61.04260774,,,,p,2.6439,9,0,9,0,1,,,,,,,,,,,,,,,,,,,,,,,,,,,,
,,,,,,,,,,,,,,,616b412ca506c4160a608a4a,2021-10-21_07h59.25.283,arrow_simon_punish,2021.1.2,Win32,61.04260774,,,,p,2.692,10,0,10,0,1,,,,,,,,,,,,,,,,,,,,,,,,,,,,
,,,,,,,,,,,,,,,616b412ca506c4160a608a4a,2021-10-21_07h59.25.283,arrow_simon_punish,2021.1.2,Win32,61.04260774,,,,p,2.5408,11,0,11,0,1,,,,,,,,,,,,,,,,,,,,,,,,,,,,
,,,,,,,,,,,,,,,616b412ca506c4160a608a4a,2021-10-21_07h59.25.283,arrow_simon_punish,2021.1.2,Win32,61.04260774,,,,p,2.6266,12,0,12,0,1,,,,,,,,,,,,,,,,,,,,,,,,,,,,
,,,,,,,,,,,,,,,616b412ca506c4160a608a4a,2021-10-21_07h59.25.283,arrow_simon_punish,2021.1.2,Win32,61.04260774,,,,p,2.4292,13,0,13,0,1,,,,,,,,,,,,,,,,,,,,,,,,,,,,
,,,,,,,,,,,,,,,616b412ca506c4160a608a4a,2021-10-21_07h59.25.283,arrow_simon_punish,2021.1.2,Win32,61.04260774,,,,p,2.4064,14,0,14,0,1,,,,,,,,,,,,,,,,,,,,,,,,,,,,
,,,,,,,,,,,,,,,616b412ca506c4160a608a4a,2021-10-21_07h59.25.283,arrow_simon_punish,2021.1.2,Win32,61.04260774,,,,p,2.4027,15,0,15,0,1,,,,,,,,,,,,,,,,,,,,,,,,,,,,
,,,,,,,,,,,,,,,616b412ca506c4160a608a4a,2021-10-21_07h59.25.283,arrow_simon_punish,2021.1.2,Win32,61.04260774,,,,p,2.238,16,0,16,0,1,,,,,,,,,,,,,,,,,,,,,,,,,,,,
,,,,,,,,,,,,,,,616b412ca506c4160a608a4a,2021-10-21_07h59.25.283,arrow_simon_punish,2021.1.2,Win32,61.04260774,,,,p,2.4232,17,0,17,0,1,,,,,,,,,,,,,,,,,,,,,,,,,,,,
,,,,,,,,,,,,,,,616b412ca506c4160a608a4a,2021-10-21_07h59.25.283,arrow_simon_punish,2021.1.2,Win32,61.04260774,,,,p,2.5868,18,0,18,0,1,,,,,,,,,,,,,,,,,,,,,,,,,,,,
,,,,,,,,,,,,,,,616b412ca506c4160a608a4a,2021-10-21_07h59.25.283,arrow_simon_punish,2021.1.2,Win32,61.04260774,,,,p,2.6227,19,0,19,0,1,,,,,,,,,,,,,,,,,,,,,,,,,,,,
,,,,,,,,,,,,,,,616b412ca506c4160a608a4a,2021-10-21_07h59.25.283,arrow_simon_punish,2021.1.2,Win32,61.04260774,,,,w,2.4484,20,0,20,0,1,,,,,,,,,,,,,,,,,,,,,,,,,,,,
,,,,,,,,,,,,,,,616b412ca506c4160a608a4a,2021-10-21_07h59.25.283,arrow_simon_punish,2021.1.2,Win32,61.04260774,,,,w,2.4352,21,0,21,0,1,,,,,,,,,,,,,,,,,,,,,,,,,,,,
,,,,,,,,,,,,,,,616b412ca506c4160a608a4a,2021-10-21_07h59.25.283,arrow_simon_punish,2021.1.2,Win32,61.04260774,,,,p,2.486,22,0,22,0,1,,,,,,,,,,,,,,,,,,,,,,,,,,,,
,,,,,,,,,,,,,,,616b412ca506c4160a608a4a,2021-10-21_07h59.25.283,arrow_simon_punish,2021.1.2,Win32,61.04260774,,,,w,2.5086,23,0,23,0,1,,,,,,,,,,,,,,,,,,,,,,,,,,,,
,,,,,,,,,,,,,,,616b412ca506c4160a608a4a,2021-10-21_07h59.25.283,arrow_simon_punish,2021.1.2,Win32,61.04260774,,,,p,2.515,24,0,24,0,1,,,,,,,,,,,,,,,,,,,,,,,,,,,,
,,,,,,,,,,,,,,,616b412ca506c4160a608a4a,2021-10-21_07h59.25.283,arrow_simon_punish,2021.1.2,Win32,61.04260774,,,,w,2.4742,25,0,25,0,1,,,,,,,,,,,,,,,,,,,,,,,,,,,,
,,,,,,,,,,,,,,,616b412ca506c4160a608a4a,2021-10-21_07h59.25.283,arrow_simon_punish,2021.1.2,Win32,61.04260774,,,,p,2.3956,26,0,26,0,1,,,,,,,,,,,,,,,,,,,,,,,,,,,,
,,,,,,,,,,,,,,,616b412ca506c4160a608a4a,2021-10-21_07h59.25.283,arrow_simon_punish,2021.1.2,Win32,61.04260774,,,,w,2.5916,27,0,27,0,1,,,,,,,,,,,,,,,,,,,,,,,,,,,,
,,,,,,,,,,,,,,,616b412ca506c4160a608a4a,2021-10-21_07h59.25.283,arrow_simon_punish,2021.1.2,Win32,61.04260774,,,,p,2.6039,28,0,28,0,1,,,,,,,,,,,,,,,,,,,,,,,,,,,,
,,,,,,,,,,,,,,,616b412ca506c4160a608a4a,2021-10-21_07h59.25.283,arrow_simon_punish,2021.1.2,Win32,61.04260774,,,,p,2.5422,29,0,29,0,1,,,,,,,,,,,,,,,,,,,,,,,,,,,,
,,,,,,,,,,,,,,,616b412ca506c4160a608a4a,2021-10-21_07h59.25.283,arrow_simon_punish,2021.1.2,Win32,61.04260774,,,,p,2.8847,30,0,30,0,1,,,,,,,,,,,,,,,,,,,,,,,,,,,,
,,,,,,,,,,,,,,,616b412ca506c4160a608a4a,2021-10-21_07h59.25.283,arrow_simon_punish,2021.1.2,Win32,61.04260774,,,,p,2.619,31,0,31,0,1,,,,,,,,,,,,,,,,,,,,,,,,,,,,
,,,,,,,,,,,,,,,616b412ca506c4160a608a4a,2021-10-21_07h59.25.283,arrow_simon_punish,2021.1.2,Win32,61.04260774,,,,p,2.2221,32,0,32,0,1,,,,,,,,,,,,,,,,,,,,,,,,,,,,
,,,,,,,,,,,,,,,616b412ca506c4160a608a4a,2021-10-21_07h59.25.283,arrow_simon_punish,2021.1.2,Win32,61.04260774,,,,p,2.6409,33,0,33,0,1,,,,,,,,,,,,,,,,,,,,,,,,,,,,
,,,,,,,,,,,,,,,616b412ca506c4160a608a4a,2021-10-21_07h59.25.283,arrow_simon_punish,2021.1.2,Win32,61.04260774,,,,w,2.4738,34,0,34,0,1,,,,,,,,,,,,,,,,,,,,,,,,,,,,
,,,,,,,,,,,,,,,616b412ca506c4160a608a4a,2021-10-21_07h59.25.283,arrow_simon_punish,2021.1.2,Win32,61.04260774,,,,w,2.5551,35,0,35,0,1,,,,,,,,,,,,,,,,,,,,,,,,,,,,
,,,,,,,,,,,,,,,616b412ca506c4160a608a4a,2021-10-21_07h59.25.283,arrow_simon_punish,2021.1.2,Win32,61.04260774,,,,p,2.5444,36,0,36,0,1,,,,,,,,,,,,,,,,,,,,,,,,,,,,
,,,,,,,,,,,,,,,616b412ca506c4160a608a4a,2021-10-21_07h59.25.283,arrow_simon_punish,2021.1.2,Win32,61.04260774,,,,w,2.5492,37,0,37,0,1,,,,,,,,,,,,,,,,,,,,,,,,,,,,
,,,,,,,,,,,,,,,616b412ca506c4160a608a4a,2021-10-21_07h59.25.283,arrow_simon_punish,2021.1.2,Win32,61.04260774,,,,p,2.628,38,0,38,0,1,,,,,,,,,,,,,,,,,,,,,,,,,,,,
,,,,,,,,,,,,,,,616b412ca506c4160a608a4a,2021-10-21_07h59.25.283,arrow_simon_punish,2021.1.2,Win32,61.04260774,,,,p,2.5099,39,0,39,0,1,,,,,,,,,,,,,,,,,,,,,,,,,,,,
,,,,,,,,,,,,,,,616b412ca506c4160a608a4a,2021-10-21_07h59.25.283,arrow_simon_punish,2021.1.2,Win32,61.04260774,,,,p,2.4926,40,0,40,0,1,,,,,,,,,,,,,,,,,,,,,,,,,,,,
,,,,,,,,,,,,,,,616b412ca506c4160a608a4a,2021-10-21_07h59.25.283,arrow_simon_punish,2021.1.2,Win32,61.04260774,,,,p,2.6203,41,0,41,0,1,,,,,,,,,,,,,,,,,,,,,,,,,,,,
,,,,,,,,,,,,,,,616b412ca506c4160a608a4a,2021-10-21_07h59.25.283,arrow_simon_punish,2021.1.2,Win32,61.04260774,,,,p,2.5198,42,0,42,0,1,,,,,,,,,,,,,,,,,,,,,,,,,,,,
,,,,,,,,,,,,,,,616b412ca506c4160a608a4a,2021-10-21_07h59.25.283,arrow_simon_punish,2021.1.2,Win32,61.04260774,,,,p,2.9258,43,0,43,0,1,,,,,,,,,,,,,,,,,,,,,,,,,,,,
,,,,,,,,,,,,,,,616b412ca506c4160a608a4a,2021-10-21_07h59.25.283,arrow_simon_punish,2021.1.2,Win32,61.04260774,,,,w,2.7361,44,0,44,0,1,,,,,,,,,,,,,,,,,,,,,,,,,,,,
,,,,,,,,,,,,,,,616b412ca506c4160a608a4a,2021-10-21_07h59.25.283,arrow_simon_punish,2021.1.2,Win32,61.04260774,,,,p,2.5468,45,0,45,0,1,,,,,,,,,,,,,,,,,,,,,,,,,,,,
,,,,,,,,,,,,,,,616b412ca506c4160a608a4a,2021-10-21_07h59.25.283,arrow_simon_punish,2021.1.2,Win32,61.04260774,,,,p,2.5363,46,0,46,0,1,,,,,,,,,,,,,,,,,,,,,,,,,,,,
,,,,,,,,,,,,,,,616b412ca506c4160a608a4a,2021-10-21_07h59.25.283,arrow_simon_punish,2021.1.2,Win32,61.04260774,,,,p,2.5248,47,0,47,0,1,,,,,,,,,,,,,,,,,,,,,,,,,,,,
,,,,,,,,,,,,,,,616b412ca506c4160a608a4a,2021-10-21_07h59.25.283,arrow_simon_punish,2021.1.2,Win32,61.04260774,,,,p,2.628,48,0,48,0,1,,,,,,,,,,,,,,,,,,,,,,,,,,,,
,,,,,,,,,,,,,,,616b412ca506c4160a608a4a,2021-10-21_07h59.25.283,arrow_simon_punish,2021.1.2,Win32,61.04260774,,,,w,2.551,49,0,49,0,1,,,,,,,,,,,,,,,,,,,,,,,,,,,,
,,,,,,,,,,,,,,,616b412ca506c4160a608a4a,2021-10-21_07h59.25.283,arrow_simon_punish,2021.1.2,Win32,61.04260774,,,,p,2.4443,50,0,50,0,1,,,,,,,,,,,,,,,,,,,,,,,,,,,,
,,,,,,,,,,,,,,,616b412ca506c4160a608a4a,2021-10-21_07h59.25.283,arrow_simon_punish,2021.1.2,Win32,61.04260774,,,,w,2.6065,51,0,51,0,1,,,,,,,,,,,,,,,,,,,,,,,,,,,,
,,,,,,,,,,,,,,,616b412ca506c4160a608a4a,2021-10-21_07h59.25.283,arrow_simon_punish,2021.1.2,Win32,61.04260774,,,,p,2.5699,52,0,52,0,1,,,,,,,,,,,,,,,,,,,,,,,,,,,,
,,,,,,,,,,,,,,,616b412ca506c4160a608a4a,2021-10-21_07h59.25.283,arrow_simon_punish,2021.1.2,Win32,61.04260774,,,,p,2.534,53,0,53,0,1,,,,,,,,,,,,,,,,,,,,,,,,,,,,
,,,,,,,,,,,,,,,616b412ca506c4160a608a4a,2021-10-21_07h59.25.283,arrow_simon_punish,2021.1.2,Win32,61.04260774,,,,p,2.7246,54,0,54,0,1,,,,,,,,,,,,,,,,,,,,,,,,,,,,
,,,,,,,,,,,,,,,616b412ca506c4160a608a4a,2021-10-21_07h59.25.283,arrow_simon_punish,2021.1.2,Win32,61.04260774,,,,p,2.4894,55,0,55,0,1,,,,,,,,,,,,,,,,,,,,,,,,,,,,
,,,,,,,,,,,,,,,616b412ca506c4160a608a4a,2021-10-21_07h59.25.283,arrow_simon_punish,2021.1.2,Win32,61.04260774,,,,p,2.5852,56,0,56,0,1,,,,,,,,,,,,,,,,,,,,,,,,,,,,
,,,,,,,,,,,,,,,616b412ca506c4160a608a4a,2021-10-21_07h59.25.283,arrow_simon_punish,2021.1.2,Win32,61.04260774,,,,p,2.5588,57,0,57,0,1,,,,,,,,,,,,,,,,,,,,,,,,,,,,
,,,,,,,,,,,,,,,616b412ca506c4160a608a4a,2021-10-21_07h59.25.283,arrow_simon_punish,2021.1.2,Win32,61.04260774,,,,p,2.643,58,0,58,0,1,,,,,,,,,,,,,,,,,,,,,,,,,,,,
,,,,,,,,,,,,,,,616b412ca506c4160a608a4a,2021-10-21_07h59.25.283,arrow_simon_punish,2021.1.2,Win32,61.04260774,,,,w,2.613,59,0,59,0,1,,,,,,,,,,,,,,,,,,,,,,,,,,,,
,,,,,,,,,,,left.png,,w,left,616b412ca506c4160a608a4a,2021-10-21_07h59.25.283,arrow_simon_punish,2021.1.2,Win32,61.04260774,,,,,,,,,,,space,0,65.3843,w,1,0.6272,1.725585589,1,1,0,0,0,2,1,,,,,,,,,,,,,,
,,,,,,,,,,,right.png,,p,left,616b412ca506c4160a608a4a,2021-10-21_07h59.25.283,arrow_simon_punish,2021.1.2,Win32,61.04260774,,,,,,,,,,,,,,w,0,1.1938,2.386934397,1,1,0,1,1,0,1,,,,,,,,,,,,,,
,,,,,,,,,,,right.png,,p,left,616b412ca506c4160a608a4a,2021-10-21_07h59.25.283,arrow_simon_punish,2021.1.2,Win32,61.04260774,,,,,,,,,,,,,,p,1,1.1461,2.170031924,1,1,0,2,2,0,1,,,,,,,,,,,,,,
,,,,,,,,,,,right.png,,p,right,616b412ca506c4160a608a4a,2021-10-21_07h59.25.283,arrow_simon_punish,2021.1.2,Win32,61.04260774,,,,,,,,,,,,,,p,1,1.2527,2.387792641,1,1,0,3,3,1,1,,,,,,,,,,,,,,
,,,,,,,,,,,right.png,,p,right,616b412ca506c4160a608a4a,2021-10-21_07h59.25.283,arrow_simon_punish,2021.1.2,Win32,61.04260774,,,,,,,,,,,,,,p,1,1.3707,1.69169082,1,1,1,0,4,1,1,,,,,,,,,,,,,,
,,,,,,,,,,,right.png,,p,right,616b412ca506c4160a608a4a,2021-10-21_07h59.25.283,arrow_simon_punish,2021.1.2,Win32,61.04260774,,,,,,,,,,,,,,p,1,1.5791,2.200814404,0,1,1,1,5,1,1,,,,,,,,,,,,,,
,,,,,,,,,,,left.png,,w,right,616b412ca506c4160a608a4a,2021-10-21_07h59.25.283,arrow_simon_punish,2021.1.2,Win32,61.04260774,,,,,,,,,,,,,,w,1,1.3638,2.425647552,1,1,1,2,6,3,1,,,,,,,,,,,,,,
,,,,,,,,,,,left.png,,w,right,616b412ca506c4160a608a4a,2021-10-21_07h59.25.283,arrow_simon_punish,2021.1.2,Win32,61.04260774,,,,,,,,,,,,,,w,1,1.319,1.955911716,1,1,1,3,7,3,1,,,,,,,,,,,,,,
,,,,,,,,,,,right.png,,p,right,616b412ca506c4160a608a4a,2021-10-21_07h59.25.283,arrow_simon_punish,2021.1.2,Win32,61.04260774,,,,,,,,,,,,,,p,1,1.7842,1.988963636,1,1,2,0,8,1,1,,,,,,,,,,,,,,
,,,,,,,,,,,right.png,,p,right,616b412ca506c4160a608a4a,2021-10-21_07h59.25.283,arrow_simon_punish,2021.1.2,Win32,61.04260774,,,,,,,,,,,,,,p,1,1.5686,2.315047946,0,1,2,1,9,1,1,,,,,,,,,,,,,,
,,,,,,,,,,,right.png,,p,left,616b412ca506c4160a608a4a,2021-10-21_07h59.25.283,arrow_simon_punish,2021.1.2,Win32,61.04260774,,,,,,,,,,,,,,p,1,1.3199,2.343367201,1,1,2,2,10,0,1,,,,,,,,,,,,,,
,,,,,,,,,,,right.png,,p,right,616b412ca506c4160a608a4a,2021-10-21_07h59.25.283,arrow_simon_punish,2021.1.2,Win32,61.04260774,,,,,,,,,,,,,,p,1,1.4668,2.323952802,0,1,2,3,11,1,1,,,,,,,,,,,,,,
,,,,,,,,,,,right.png,,p,left,616b412ca506c4160a608a4a,2021-10-21_07h59.25.283,arrow_simon_punish,2021.1.2,Win32,61.04260774,,,,,,,,,,,,,,p,1,1.6245,2.20064935,1,1,3,0,12,0,1,,,,,,,,,,,,,,
,,,,,,,,,,,right.png,,p,left,616b412ca506c4160a608a4a,2021-10-21_07h59.25.283,arrow_simon_punish,2021.1.2,Win32,61.04260774,,,,,,,,,,,,,,p,1,1.3267,2.126210024,1,1,3,1,13,0,1,,,,,,,,,,,,,,
,,,,,,,,,,,left.png,,w,left,616b412ca506c4160a608a4a,2021-10-21_07h59.25.283,arrow_simon_punish,2021.1.2,Win32,61.04260774,,,,,,,,,,,,,,w,1,1.4984,1.976290714,0,1,3,2,14,2,1,,,,,,,,,,,,,,
,,,,,,,,,,,right.png,,p,right,616b412ca506c4160a608a4a,2021-10-21_07h59.25.283,arrow_simon_punish,2021.1.2,Win32,61.04260774,,,,,,,,,,,,,,p,1,0.5262,1.647758205,1,1,3,3,15,1,1,,,,,,,,,,,,,,
,,,,,,,,,,,right.png,,p,left,616b412ca506c4160a608a4a,2021-10-21_07h59.25.283,arrow_simon_punish,2021.1.2,Win32,61.04260774,,,,,,,,,,,,,,p,1,1.5459,1.945157703,0,1,4,0,16,0,1,,,,,,,,,,,,,,
,,,,,,,,,,,right.png,,p,right,616b412ca506c4160a608a4a,2021-10-21_07h59.25.283,arrow_simon_punish,2021.1.2,Win32,61.04260774,,,,,,,,,,,,,,p,1,1.8757,1.520545036,1,1,4,1,17,1,1,,,,,,,,,,,,,,
,,,,,,,,,,,right.png,,p,left,616b412ca506c4160a608a4a,2021-10-21_07h59.25.283,arrow_simon_punish,2021.1.2,Win32,61.04260774,,,,,,,,,,,,,,p,1,1.5438,1.53566462,0,1,4,2,18,0,1,,,,,,,,,,,,,,
,,,,,,,,,,,left.png,,w,left,616b412ca506c4160a608a4a,2021-10-21_07h59.25.283,arrow_simon_punish,2021.1.2,Win32,61.04260774,,,,,,,,,,,,,,w,1,1.7218,2.299849308,1,1,4,3,19,2,1,,,,,,,,,,,,,,
,,,,,,,,,,,right.png,,p,right,616b412ca506c4160a608a4a,2021-10-21_07h59.25.283,arrow_simon_punish,2021.1.2,Win32,61.04260774,,,,,,,,,,,,,,p,1,1.4519,1.935120815,0,1,5,0,20,1,1,,,,,,,,,,,,,,
,,,,,,,,,,,left.png,,w,left,616b412ca506c4160a608a4a,2021-10-21_07h59.25.283,arrow_simon_punish,2021.1.2,Win32,61.04260774,,,,,,,,,,,,,,w,1,1.3854,2.261878439,1,1,5,1,21,2,1,,,,,,,,,,,,,,
,,,,,,,,,,,left.png,,w,right,616b412ca506c4160a608a4a,2021-10-21_07h59.25.283,arrow_simon_punish,2021.1.2,Win32,61.04260774,,,,,,,,,,,,,,w,1,1.3215,1.662454084,1,1,5,2,22,3,1,,,,,,,,,,,,,,
,,,,,,,,,,,left.png,,w,right,616b412ca506c4160a608a4a,2021-10-21_07h59.25.283,arrow_simon_punish,2021.1.2,Win32,61.04260774,,,,,,,,,,,,,,w,1,1.5081,1.559455738,0,1,5,3,23,3,1,,,,,,,,,,,,,,
,,,,,,,,,,,left.png,,w,right,616b412ca506c4160a608a4a,2021-10-21_07h59.25.283,arrow_simon_punish,2021.1.2,Win32,61.04260774,,,,,,,,,,,,,,w,1,1.7686,2.401799254,1,1,6,0,24,3,1,,,,,,,,,,,,,,
,,,,,,,,,,,right.png,,p,left,616b412ca506c4160a608a4a,2021-10-21_07h59.25.283,arrow_simon_punish,2021.1.2,Win32,61.04260774,,,,,,,,,,,,,,p,1,1.3761,2.076828685,1,1,6,1,25,0,1,,,,,,,,,,,,,,
,,,,,,,,,,,left.png,,w,right,616b412ca506c4160a608a4a,2021-10-21_07h59.25.283,arrow_simon_punish,2021.1.2,Win32,61.04260774,,,,,,,,,,,,,,w,1,1.6724,1.509502283,1,1,6,2,26,3,1,,,,,,,,,,,,,,
,,,,,,,,,,,left.png,,w,right,616b412ca506c4160a608a4a,2021-10-21_07h59.25.283,arrow_simon_punish,2021.1.2,Win32,61.04260774,,,,,,,,,,,,,,w,1,1.4452,2.1092925,0,1,6,3,27,3,1,,,,,,,,,,,,,,
,,,,,,,,,,,left.png,,w,right,616b412ca506c4160a608a4a,2021-10-21_07h59.25.283,arrow_simon_punish,2021.1.2,Win32,61.04260774,,,,,,,,,,,,,,w,1,1.2834,1.769728614,1,1,7,0,28,3,1,,,,,,,,,,,,,,
,,,,,,,,,,,right.png,,p,left,616b412ca506c4160a608a4a,2021-10-21_07h59.25.283,arrow_simon_punish,2021.1.2,Win32,61.04260774,,,,,,,,,,,,,,p,1,1.4972,2.072608052,0,1,7,1,29,0,1,,,,,,,,,,,,,,
,,,,,,,,,,,left.png,,w,right,616b412ca506c4160a608a4a,2021-10-21_07h59.25.283,arrow_simon_punish,2021.1.2,Win32,61.04260774,,,,,,,,,,,,,,w,1,1.4211,2.099798643,0,1,7,2,30,3,1,,,,,,,,,,,,,,
,,,,,,,,,,,right.png,,p,left,616b412ca506c4160a608a4a,2021-10-21_07h59.25.283,arrow_simon_punish,2021.1.2,Win32,61.04260774,,,,,,,,,,,,,,p,1,1.396,2.090644361,1,1,7,3,31,0,1,,,,,,,,,,,,,,
,,,,,,,,,,,right.png,,p,right,616b412ca506c4160a608a4a,2021-10-21_07h59.25.283,arrow_simon_punish,2021.1.2,Win32,61.04260774,,,,,,,,,,,,,,p,1,1.7069,2.00512481,1,1,8,0,32,1,1,,,,,,,,,,,,,,
,,,,,,,,,,,right.png,,p,right,616b412ca506c4160a608a4a,2021-10-21_07h59.25.283,arrow_simon_punish,2021.1.2,Win32,61.04260774,,,,,,,,,,,,,,p,1,1.3908,1.722428795,1,1,8,1,33,1,1,,,,,,,,,,,,,,
,,,,,,,,,,,right.png,,p,left,616b412ca506c4160a608a4a,2021-10-21_07h59.25.283,arrow_simon_punish,2021.1.2,Win32,61.04260774,,,,,,,,,,,,,,p,1,1.4067,1.933646761,0,1,8,2,34,0,1,,,,,,,,,,,,,,
,,,,,,,,,,,left.png,,w,left,616b412ca506c4160a608a4a,2021-10-21_07h59.25.283,arrow_simon_punish,2021.1.2,Win32,61.04260774,,,,,,,,,,,,,,w,1,1.5986,1.60124042,0,1,8,3,35,2,1,,,,,,,,,,,,,,
,,,,,,,,,,,left.png,,w,right,616b412ca506c4160a608a4a,2021-10-21_07h59.25.283,arrow_simon_punish,2021.1.2,Win32,61.04260774,,,,,,,,,,,,,,w,1,1.3822,1.764832189,1,1,9,0,36,3,1,,,,,,,,,,,,,,
,,,,,,,,,,,right.png,,p,left,616b412ca506c4160a608a4a,2021-10-21_07h59.25.283,arrow_simon_punish,2021.1.2,Win32,61.04260774,,,,,,,,,,,,,,p,1,1.4136,1.992541485,0,1,9,1,37,0,1,,,,,,,,,,,,,,
,,,,,,,,,,,right.png,,p,left,616b412ca506c4160a608a4a,2021-10-21_07h59.25.283,arrow_simon_punish,2021.1.2,Win32,61.04260774,,,,,,,,,,,,,,p,1,1.5013,1.798714044,0,1,9,2,38,0,1,,,,,,,,,,,,,,
,,,,,,,,,,,left.png,,w,right,616b412ca506c4160a608a4a,2021-10-21_07h59.25.283,arrow_simon_punish,2021.1.2,Win32,61.04260774,,,,,,,,,,,,,,w,1,1.4988,1.66897286,0,1,9,3,39,3,1,,,,,,,,,,,,,,
,,,,,,,,,,,left.png,,w,left,616b412ca506c4160a608a4a,2021-10-21_07h59.25.283,arrow_simon_punish,2021.1.2,Win32,61.04260774,,,,,,,,,,,,,,w,1,1.4936,2.043421158,0,1,10,0,40,2,1,,,,,,,,,,,,,,
,,,,,,,,,,,left.png,,w,right,616b412ca506c4160a608a4a,2021-10-21_07h59.25.283,arrow_simon_punish,2021.1.2,Win32,61.04260774,,,,,,,,,,,,,,w,1,1.5927,2.430835625,0,1,10,1,41,3,1,,,,,,,,,,,,,,
,,,,,,,,,,,left.png,,w,left,616b412ca506c4160a608a4a,2021-10-21_07h59.25.283,arrow_simon_punish,2021.1.2,Win32,61.04260774,,,,,,,,,,,,,,w,1,1.4181,1.764699454,0,1,10,2,42,2,1,,,,,,,,,,,,,,
,,,,,,,,,,,left.png,,w,right,616b412ca506c4160a608a4a,2021-10-21_07h59.25.283,arrow_simon_punish,2021.1.2,Win32,61.04260774,,,,,,,,,,,,,,w,1,1.3681,1.734889332,1,1,10,3,43,3,1,,,,,,,,,,,,,,
,,,,,,,,,,,right.png,,p,right,616b412ca506c4160a608a4a,2021-10-21_07h59.25.283,arrow_simon_punish,2021.1.2,Win32,61.04260774,,,,,,,,,,,,,,p,1,1.5601,1.914223526,0,1,11,0,44,1,1,,,,,,,,,,,,,,
,,,,,,,,,,,right.png,,p,left,616b412ca506c4160a608a4a,2021-10-21_07h59.25.283,arrow_simon_punish,2021.1.2,Win32,61.04260774,,,,,,,,,,,,,,p,1,1.5538,2.058028719,0,1,11,1,45,0,1,,,,,,,,,,,,,,
,,,,,,,,,,,right.png,,p,right,616b412ca506c4160a608a4a,2021-10-21_07h59.25.283,arrow_simon_punish,2021.1.2,Win32,61.04260774,,,,,,,,,,,,,,p,1,1.4187,2.169669773,0,1,11,2,46,1,1,,,,,,,,,,,,,,
,,,,,,,,,,,left.png,,w,left,616b412ca506c4160a608a4a,2021-10-21_07h59.25.283,arrow_simon_punish,2021.1.2,Win32,61.04260774,,,,,,,,,,,,,,w,1,1.3862,2.183426521,1,1,11,3,47,2,1,,,,,,,,,,,,,,
,,,,,,,,,,,right.png,,p,right,616b412ca506c4160a608a4a,2021-10-21_07h59.25.283,arrow_simon_punish,2021.1.2,Win32,61.04260774,,,,,,,,,,,,,,p,1,1.5145,2.138799773,0,1,12,0,48,1,1,,,,,,,,,,,,,,
,,,,,,,,,,,left.png,,w,right,616b412ca506c4160a608a4a,2021-10-21_07h59.25.283,arrow_simon_punish,2021.1.2,Win32,61.04260774,,,,,,,,,,,,,,w,1,1.3973,1.904843779,1,1,12,1,49,3,1,,,,,,,,,,,,,,
,,,,,,,,,,,left.png,,w,left,616b412ca506c4160a608a4a,2021-10-21_07h59.25.283,arrow_simon_punish,2021.1.2,Win32,61.04260774,,,,,,,,,,,,,,w,1,1.4535,1.529937947,0,1,12,2,50,2,1,,,,,,,,,,,,,,
,,,,,,,,,,,left.png,,w,left,616b412ca506c4160a608a4a,2021-10-21_07h59.25.283,arrow_simon_punish,2021.1.2,Win32,61.04260774,,,,,,,,,,,,,,w,1,1.6107,1.580944184,1,1,12,3,51,2,1,,,,,,,,,,,,,,
,,,,,,,,,,,right.png,,p,right,616b412ca506c4160a608a4a,2021-10-21_07h59.25.283,arrow_simon_punish,2021.1.2,Win32,61.04260774,,,,,,,,,,,,,,p,1,1.5216,2.188222039,0,1,13,0,52,1,1,,,,,,,,,,,,,,
,,,,,,,,,,,left.png,,w,left,616b412ca506c4160a608a4a,2021-10-21_07h59.25.283,arrow_simon_punish,2021.1.2,Win32,61.04260774,,,,,,,,,,,,,,w,1,1.4127,1.873733453,0,1,13,1,53,2,1,,,,,,,,,,,,,,
,,,,,,,,,,,right.png,,p,left,616b412ca506c4160a608a4a,2021-10-21_07h59.25.283,arrow_simon_punish,2021.1.2,Win32,61.04260774,,,,,,,,,,,,,,p,1,1.4851,2.109571268,0,1,13,2,54,0,1,,,,,,,,,,,,,,
,,,,,,,,,,,left.png,,w,left,616b412ca506c4160a608a4a,2021-10-21_07h59.25.283,arrow_simon_punish,2021.1.2,Win32,61.04260774,,,,,,,,,,,,,,w,1,1.4958,2.273017578,0,1,13,3,55,2,1,,,,,,,,,,,,,,
,,,,,,,,,,,left.png,,w,left,616b412ca506c4160a608a4a,2021-10-21_07h59.25.283,arrow_simon_punish,2021.1.2,Win32,61.04260774,,,,,,,,,,,,,,w,1,1.2281,1.836298406,1,1,14,0,56,2,1,,,,,,,,,,,,,,
,,,,,,,,,,,left.png,,w,left,616b412ca506c4160a608a4a,2021-10-21_07h59.25.283,arrow_simon_punish,2021.1.2,Win32,61.04260774,,,,,,,,,,,,,,w,1,1.4499,1.655151578,0,1,14,1,57,2,1,,,,,,,,,,,,,,
,,,,,,,,,,,left.png,,w,right,616b412ca506c4160a608a4a,2021-10-21_07h59.25.283,arrow_simon_punish,2021.1.2,Win32,61.04260774,,,,,,,,,,,,,,w,1,1.4709,2.18903977,0,1,14,2,58,3,1,,,,,,,,,,,,,,
,,,,,,,,,,,left.png,,w,left,616b412ca506c4160a608a4a,2021-10-21_07h59.25.283,arrow_simon_punish,2021.1.2,Win32,61.04260774,,,,,,,,,,,,,,w,1,1.5326,2.23219643,0,1,14,3,59,2,1,,,,,,,,,,,,,,
,,,,,,,,,,,,,,,616b412ca506c4160a608a4a,2021-10-21_07h59.25.283,arrow_simon_punish,2021.1.2,Win32,61.04260774,,,,,,,,,,,,,,,,,,,,,,,,,space,33.7174,2,0,0,0,0,1,1,,,,,
,,,,,,,,,,,left.png,,w,left,616b412ca506c4160a608a4a,2021-10-21_07h59.25.283,arrow_simon_punish,2021.1.2,Win32,61.04260774,,,,,,,,,,,,,,w,1,1.8165,1.77919354,1,5,0,0,0,2,1,,,,,,,,,,,,,,
,,,,,,,,,,,right.png,,p,left,616b412ca506c4160a608a4a,2021-10-21_07h59.25.283,arrow_simon_punish,2021.1.2,Win32,61.04260774,,,,,,,,,,,,,,p,1,1.3912,2.144782157,1,5,0,1,1,0,1,,,,,,,,,,,,,,
,,,,,,,,,,,left.png,,w,right,616b412ca506c4160a608a4a,2021-10-21_07h59.25.283,arrow_simon_punish,2021.1.2,Win32,61.04260774,,,,,,,,,,,,,,w,1,1.4074,1.835754302,0,5,0,2,2,3,1,,,,,,,,,,,,,,
,,,,,,,,,,,left.png,,w,left,616b412ca506c4160a608a4a,2021-10-21_07h59.25.283,arrow_simon_punish,2021.1.2,Win32,61.04260774,,,,,,,,,,,,,,w,1,1.4463,1.936837946,0,5,0,3,3,2,1,,,,,,,,,,,,,,
,,,,,,,,,,,right.png,,p,left,616b412ca506c4160a608a4a,2021-10-21_07h59.25.283,arrow_simon_punish,2021.1.2,Win32,61.04260774,,,,,,,,,,,,,,p,1,1.3727,1.681902498,1,5,1,0,4,0,1,,,,,,,,,,,,,,
,,,,,,,,,,,right.png,,p,right,616b412ca506c4160a608a4a,2021-10-21_07h59.25.283,arrow_simon_punish,2021.1.2,Win32,61.04260774,,,,,,,,,,,,,,p,1,1.5735,2.310700303,0,5,1,1,5,1,1,,,,,,,,,,,,,,
,,,,,,,,,,,left.png,,w,right,616b412ca506c4160a608a4a,2021-10-21_07h59.25.283,arrow_simon_punish,2021.1.2,Win32,61.04260774,,,,,,,,,,,,,,w,1,1.6297,1.724879339,1,5,1,2,6,3,1,,,,,,,,,,,,,,
,,,,,,,,,,,right.png,,p,right,616b412ca506c4160a608a4a,2021-10-21_07h59.25.283,arrow_simon_punish,2021.1.2,Win32,61.04260774,,,,,,,,,,,,,,p,1,1.5723,1.773492929,0,5,1,3,7,1,1,,,,,,,,,,,,,,
,,,,,,,,,,,left.png,,w,left,616b412ca506c4160a608a4a,2021-10-21_07h59.25.283,arrow_simon_punish,2021.1.2,Win32,61.04260774,,,,,,,,,,,,,,w,1,1.5016,2.047049304,0,5,2,0,8,2,1,,,,,,,,,,,,,,
,,,,,,,,,,,right.png,,p,left,616b412ca506c4160a608a4a,2021-10-21_07h59.25.283,arrow_simon_punish,2021.1.2,Win32,61.04260774,,,,,,,,,,,,,,p,1,1.7209,2.301898957,1,5,2,1,9,0,1,,,,,,,,,,,,,,
,,,,,,,,,,,left.png,,w,left,616b412ca506c4160a608a4a,2021-10-21_07h59.25.283,arrow_simon_punish,2021.1.2,Win32,61.04260774,,,,,,,,,,,,,,w,1,1.6356,2.346616777,1,5,2,2,10,2,1,,,,,,,,,,,,,,
,,,,,,,,,,,left.png,,w,right,616b412ca506c4160a608a4a,2021-10-21_07h59.25.283,arrow_simon_punish,2021.1.2,Win32,61.04260774,,,,,,,,,,,,,,w,1,1.4576,1.615979471,0,5,2,3,11,3,1,,,,,,,,,,,,,,
,,,,,,,,,,,left.png,,w,right,616b412ca506c4160a608a4a,2021-10-21_07h59.25.283,arrow_simon_punish,2021.1.2,Win32,61.04260774,,,,,,,,,,,,,,w,1,1.4616,1.643498979,0,5,3,0,12,3,1,,,,,,,,,,,,,,
,,,,,,,,,,,left.png,,w,right,616b412ca506c4160a608a4a,2021-10-21_07h59.25.283,arrow_simon_punish,2021.1.2,Win32,61.04260774,,,,,,,,,,,,,,w,1,1.6117,2.390465823,1,5,3,1,13,3,1,,,,,,,,,,,,,,
,,,,,,,,,,,right.png,,p,left,616b412ca506c4160a608a4a,2021-10-21_07h59.25.283,arrow_simon_punish,2021.1.2,Win32,61.04260774,,,,,,,,,,,,,,p,1,2.5144,1.686159638,1,5,3,2,14,0,1,,,,,,,,,,,,,,
,,,,,,,,,,,left.png,,w,left,616b412ca506c4160a608a4a,2021-10-21_07h59.25.283,arrow_simon_punish,2021.1.2,Win32,61.04260774,,,,,,,,,,,,,,w,1,1.3017,1.668283451,1,5,3,3,15,2,1,,,,,,,,,,,,,,
,,,,,,,,,,,left.png,,w,right,616b412ca506c4160a608a4a,2021-10-21_07h59.25.283,arrow_simon_punish,2021.1.2,Win32,61.04260774,,,,,,,,,,,,,,w,1,1.6966,1.98245213,1,5,4,0,16,3,1,,,,,,,,,,,,,,
,,,,,,,,,,,right.png,,p,right,616b412ca506c4160a608a4a,2021-10-21_07h59.25.283,arrow_simon_punish,2021.1.2,Win32,61.04260774,,,,,,,,,,,,,,p,1,1.6686,2.020551776,1,5,4,1,17,1,1,,,,,,,,,,,,,,
,,,,,,,,,,,left.png,,w,right,616b412ca506c4160a608a4a,2021-10-21_07h59.25.283,arrow_simon_punish,2021.1.2,Win32,61.04260774,,,,,,,,,,,,,,w,1,1.8175,2.345134429,1,5,4,2,18,3,1,,,,,,,,,,,,,,
,,,,,,,,,,,right.png,,p,right,616b412ca506c4160a608a4a,2021-10-21_07h59.25.283,arrow_simon_punish,2021.1.2,Win32,61.04260774,,,,,,,,,,,,,,p,1,1.7035,2.126098168,1,5,4,3,19,1,1,,,,,,,,,,,,,,
,,,,,,,,,,,right.png,,p,left,616b412ca506c4160a608a4a,2021-10-21_07h59.25.283,arrow_simon_punish,2021.1.2,Win32,61.04260774,,,,,,,,,,,,,,p,1,1.4824,1.699667575,0,5,5,0,20,0,1,,,,,,,,,,,,,,
,,,,,,,,,,,right.png,,p,left,616b412ca506c4160a608a4a,2021-10-21_07h59.25.283,arrow_simon_punish,2021.1.2,Win32,61.04260774,,,,,,,,,,,,,,p,1,1.5352,1.543666494,0,5,5,1,21,0,1,,,,,,,,,,,,,,
,,,,,,,,,,,right.png,,p,left,616b412ca506c4160a608a4a,2021-10-21_07h59.25.283,arrow_simon_punish,2021.1.2,Win32,61.04260774,,,,,,,,,,,,,,p,1,1.6338,2.222441419,1,5,5,2,22,0,1,,,,,,,,,,,,,,
,,,,,,,,,,,right.png,,p,right,616b412ca506c4160a608a4a,2021-10-21_07h59.25.283,arrow_simon_punish,2021.1.2,Win32,61.04260774,,,,,,,,,,,,,,p,1,1.5122,1.966345342,0,5,5,3,23,1,1,,,,,,,,,,,,,,
,,,,,,,,,,,right.png,,p,left,616b412ca506c4160a608a4a,2021-10-21_07h59.25.283,arrow_simon_punish,2021.1.2,Win32,61.04260774,,,,,,,,,,,,,,p,1,1.403,1.697066348,0,5,6,0,24,0,1,,,,,,,,,,,,,,
,,,,,,,,,,,left.png,,w,right,616b412ca506c4160a608a4a,2021-10-21_07h59.25.283,arrow_simon_punish,2021.1.2,Win32,61.04260774,,,,,,,,,,,,,,w,1,2.2746,2.463532767,1,5,6,1,25,3,1,,,,,,,,,,,,,,
,,,,,,,,,,,left.png,,w,right,616b412ca506c4160a608a4a,2021-10-21_07h59.25.283,arrow_simon_punish,2021.1.2,Win32,61.04260774,,,,,,,,,,,,,,w,1,1.5904,2.441869195,0,5,6,2,26,3,1,,,,,,,,,,,,,,
,,,,,,,,,,,left.png,,w,right,616b412ca506c4160a608a4a,2021-10-21_07h59.25.283,arrow_simon_punish,2021.1.2,Win32,61.04260774,,,,,,,,,,,,,,w,1,1.479,2.40922163,0,5,6,3,27,3,1,,,,,,,,,,,,,,
,,,,,,,,,,,right.png,,p,right,616b412ca506c4160a608a4a,2021-10-21_07h59.25.283,arrow_simon_punish,2021.1.2,Win32,61.04260774,,,,,,,,,,,,,,p,1,1.403,1.910661661,0,5,7,0,28,1,1,,,,,,,,,,,,,,
,,,,,,,,,,,right.png,,p,left,616b412ca506c4160a608a4a,2021-10-21_07h59.25.283,arrow_simon_punish,2021.1.2,Win32,61.04260774,,,,,,,,,,,,,,p,1,1.3629,1.751443444,1,5,7,1,29,0,1,,,,,,,,,,,,,,
,,,,,,,,,,,right.png,,p,right,616b412ca506c4160a608a4a,2021-10-21_07h59.25.283,arrow_simon_punish,2021.1.2,Win32,61.04260774,,,,,,,,,,,,,,p,1,1.4595,1.630319935,0,5,7,2,30,1,1,,,,,,,,,,,,,,
,,,,,,,,,,,left.png,,w,left,616b412ca506c4160a608a4a,2021-10-21_07h59.25.283,arrow_simon_punish,2021.1.2,Win32,61.04260774,,,,,,,,,,,,,,w,1,1.7214,1.580502558,1,5,7,3,31,2,1,,,,,,,,,,,,,,
,,,,,,,,,,,left.png,,w,right,616b412ca506c4160a608a4a,2021-10-21_07h59.25.283,arrow_simon_punish,2021.1.2,Win32,61.04260774,,,,,,,,,,,,,,w,1,1.4437,1.657008722,0,5,8,0,32,3,1,,,,,,,,,,,,,,
,,,,,,,,,,,left.png,,w,left,616b412ca506c4160a608a4a,2021-10-21_07h59.25.283,arrow_simon_punish,2021.1.2,Win32,61.04260774,,,,,,,,,,,,,,w,1,1.5378,2.140717569,0,5,8,1,33,2,1,,,,,,,,,,,,,,
,,,,,,,,,,,right.png,,p,left,616b412ca506c4160a608a4a,2021-10-21_07h59.25.283,arrow_simon_punish,2021.1.2,Win32,61.04260774,,,,,,,,,,,,,,p,1,1.4674,2.430649662,0,5,8,2,34,0,1,,,,,,,,,,,,,,
,,,,,,,,,,,left.png,,w,right,616b412ca506c4160a608a4a,2021-10-21_07h59.25.283,arrow_simon_punish,2021.1.2,Win32,61.04260774,,,,,,,,,,,,,,w,1,1.3763,2.065221698,1,5,8,3,35,3,1,,,,,,,,,,,,,,
,,,,,,,,,,,left.png,,w,right,616b412ca506c4160a608a4a,2021-10-21_07h59.25.283,arrow_simon_punish,2021.1.2,Win32,61.04260774,,,,,,,,,,,,,,w,1,1.5058,2.320410531,0,5,9,0,36,3,1,,,,,,,,,,,,,,
,,,,,,,,,,,left.png,,w,left,616b412ca506c4160a608a4a,2021-10-21_07h59.25.283,arrow_simon_punish,2021.1.2,Win32,61.04260774,,,,,,,,,,,,,,w,1,1.4445,1.871796112,0,5,9,1,37,2,1,,,,,,,,,,,,,,
,,,,,,,,,,,left.png,,w,left,616b412ca506c4160a608a4a,2021-10-21_07h59.25.283,arrow_simon_punish,2021.1.2,Win32,61.04260774,,,,,,,,,,,,,,w,1,1.3707,2.171377551,1,5,9,2,38,2,1,,,,,,,,,,,,,,
,,,,,,,,,,,left.png,,w,left,616b412ca506c4160a608a4a,2021-10-21_07h59.25.283,arrow_simon_punish,2021.1.2,Win32,61.04260774,,,,,,,,,,,,,,w,1,1.4199,1.846032399,0,5,9,3,39,2,1,,,,,,,,,,,,,,
,,,,,,,,,,,right.png,,p,right,616b412ca506c4160a608a4a,2021-10-21_07h59.25.283,arrow_simon_punish,2021.1.2,Win32,61.04260774,,,,,,,,,,,,,,p,1,1.4827,1.96804957,0,5,10,0,40,1,1,,,,,,,,,,,,,,
,,,,,,,,,,,right.png,,p,left,616b412ca506c4160a608a4a,2021-10-21_07h59.25.283,arrow_simon_punish,2021.1.2,Win32,61.04260774,,,,,,,,,,,,,,p,1,1.5278,2.351743817,0,5,10,1,41,0,1,,,,,,,,,,,,,,
,,,,,,,,,,,right.png,,p,right,616b412ca506c4160a608a4a,2021-10-21_07h59.25.283,arrow_simon_punish,2021.1.2,Win32,61.04260774,,,,,,,,,,,,,,p,1,1.5533,1.513982593,0,5,10,2,42,1,1,,,,,,,,,,,,,,
,,,,,,,,,,,right.png,,p,left,616b412ca506c4160a608a4a,2021-10-21_07h59.25.283,arrow_simon_punish,2021.1.2,Win32,61.04260774,,,,,,,,,,,,,,p,1,1.6425,1.642896819,1,5,10,3,43,0,1,,,,,,,,,,,,,,
,,,,,,,,,,,right.png,,p,left,616b412ca506c4160a608a4a,2021-10-21_07h59.25.283,arrow_simon_punish,2021.1.2,Win32,61.04260774,,,,,,,,,,,,,,p,1,1.8325,2.00191065,1,5,11,0,44,0,1,,,,,,,,,,,,,,
,,,,,,,,,,,left.png,,w,left,616b412ca506c4160a608a4a,2021-10-21_07h59.25.283,arrow_simon_punish,2021.1.2,Win32,61.04260774,,,,,,,,,,,,,,w,1,1.5523,2.248125307,0,5,11,1,45,2,1,,,,,,,,,,,,,,
,,,,,,,,,,,left.png,,w,left,616b412ca506c4160a608a4a,2021-10-21_07h59.25.283,arrow_simon_punish,2021.1.2,Win32,61.04260774,,,,,,,,,,,,,,w,1,1.5689,1.640956862,0,5,11,2,46,2,1,,,,,,,,,,,,,,
,,,,,,,,,,,left.png,,w,left,616b412ca506c4160a608a4a,2021-10-21_07h59.25.283,arrow_simon_punish,2021.1.2,Win32,61.04260774,,,,,,,,,,,,,,w,1,1.6252,2.433177311,1,5,11,3,47,2,1,,,,,,,,,,,,,,
,,,,,,,,,,,left.png,,w,left,616b412ca506c4160a608a4a,2021-10-21_07h59.25.283,arrow_simon_punish,2021.1.2,Win32,61.04260774,,,,,,,,,,,,,,w,1,1.4793,1.886202248,0,5,12,0,48,2,1,,,,,,,,,,,,,,
,,,,,,,,,,,left.png,,w,left,616b412ca506c4160a608a4a,2021-10-21_07h59.25.283,arrow_simon_punish,2021.1.2,Win32,61.04260774,,,,,,,,,,,,,,w,1,1.4994,2.016595455,0,5,12,1,49,2,1,,,,,,,,,,,,,,
,,,,,,,,,,,left.png,,w,right,616b412ca506c4160a608a4a,2021-10-21_07h59.25.283,arrow_simon_punish,2021.1.2,Win32,61.04260774,,,,,,,,,,,,,,w,1,1.5925,1.918251426,0,5,12,2,50,3,1,,,,,,,,,,,,,,
,,,,,,,,,,,right.png,,p,right,616b412ca506c4160a608a4a,2021-10-21_07h59.25.283,arrow_simon_punish,2021.1.2,Win32,61.04260774,,,,,,,,,,,,,,p,1,1.6397,2.4111761,1,5,12,3,51,1,1,,,,,,,,,,,,,,
,,,,,,,,,,,right.png,,p,left,616b412ca506c4160a608a4a,2021-10-21_07h59.25.283,arrow_simon_punish,2021.1.2,Win32,61.04260774,,,,,,,,,,,,,,p,1,1.6375,1.927364853,1,5,13,0,52,0,1,,,,,,,,,,,,,,
,,,,,,,,,,,right.png,,p,right,616b412ca506c4160a608a4a,2021-10-21_07h59.25.283,arrow_simon_punish,2021.1.2,Win32,61.04260774,,,,,,,,,,,,,,p,1,1.4034,1.676812211,0,5,13,1,53,1,1,,,,,,,,,,,,,,
,,,,,,,,,,,right.png,,p,left,616b412ca506c4160a608a4a,2021-10-21_07h59.25.283,arrow_simon_punish,2021.1.2,Win32,61.04260774,,,,,,,,,,,,,,p,1,1.4908,2.200962772,0,5,13,2,54,0,1,,,,,,,,,,,,,,
,,,,,,,,,,,right.png,,p,right,616b412ca506c4160a608a4a,2021-10-21_07h59.25.283,arrow_simon_punish,2021.1.2,Win32,61.04260774,,,,,,,,,,,,,,p,1,1.5905,1.911989318,0,5,13,3,55,1,1,,,,,,,,,,,,,,
,,,,,,,,,,,right.png,,p,right,616b412ca506c4160a608a4a,2021-10-21_07h59.25.283,arrow_simon_punish,2021.1.2,Win32,61.04260774,,,,,,,,,,,,,,p,1,1.5271,1.781096091,0,5,14,0,56,1,1,,,,,,,,,,,,,,
,,,,,,,,,,,right.png,,p,right,616b412ca506c4160a608a4a,2021-10-21_07h59.25.283,arrow_simon_punish,2021.1.2,Win32,61.04260774,,,,,,,,,,,,,,p,1,1.4015,1.591329355,0,5,14,1,57,1,1,,,,,,,,,,,,,,
,,,,,,,,,,,right.png,,p,right,616b412ca506c4160a608a4a,2021-10-21_07h59.25.283,arrow_simon_punish,2021.1.2,Win32,61.04260774,,,,,,,,,,,,,,p,1,1.4088,2.106633667,0,5,14,2,58,1,1,,,,,,,,,,,,,,
,,,,,,,,,,,left.png,,w,right,616b412ca506c4160a608a4a,2021-10-21_07h59.25.283,arrow_simon_punish,2021.1.2,Win32,61.04260774,,,,,,,,,,,,,,w,1,1.4089,1.614308314,0,5,14,3,59,3,1,,,,,,,,,,,,,,
,,,,,,,,,,,,,,,616b412ca506c4160a608a4a,2021-10-21_07h59.25.283,arrow_simon_punish,2021.1.2,Win32,61.04260774,,,,,,,,,,,,,,,,,,,,,,,,,space,136.8371,3,0,1,1,1,1,5,,,,,
,,,,,,,,,,,left.png,,w,right,616b412ca506c4160a608a4a,2021-10-21_07h59.25.283,arrow_simon_punish,2021.1.2,Win32,61.04260774,,,,,,,,,,,,,,w,1,1.5214,2.46255138,0,1,0,0,0,3,1,,,,,,,,,,,,,,
,,,,,,,,,,,left.png,,w,right,616b412ca506c4160a608a4a,2021-10-21_07h59.25.283,arrow_simon_punish,2021.1.2,Win32,61.04260774,,,,,,,,,,,,,,w,1,1.3312,1.676696648,1,1,0,1,1,3,1,,,,,,,,,,,,,,
,,,,,,,,,,,left.png,,w,right,616b412ca506c4160a608a4a,2021-10-21_07h59.25.283,arrow_simon_punish,2021.1.2,Win32,61.04260774,,,,,,,,,,,,,,w,1,1.368,1.65265045,1,1,0,2,2,3,1,,,,,,,,,,,,,,
,,,,,,,,,,,left.png,,w,right,616b412ca506c4160a608a4a,2021-10-21_07h59.25.283,arrow_simon_punish,2021.1.2,Win32,61.04260774,,,,,,,,,,,,,,w,1,1.3597,1.737875691,1,1,0,3,3,3,1,,,,,,,,,,,,,,
,,,,,,,,,,,left.png,,w,right,616b412ca506c4160a608a4a,2021-10-21_07h59.25.283,arrow_simon_punish,2021.1.2,Win32,61.04260774,,,,,,,,,,,,,,w,1,1.5288,2.410771938,0,1,1,0,4,3,1,,,,,,,,,,,,,,
,,,,,,,,,,,right.png,,p,left,616b412ca506c4160a608a4a,2021-10-21_07h59.25.283,arrow_simon_punish,2021.1.2,Win32,61.04260774,,,,,,,,,,,,,,p,1,1.4117,1.652607939,0,1,1,1,5,0,1,,,,,,,,,,,,,,
,,,,,,,,,,,left.png,,w,left,616b412ca506c4160a608a4a,2021-10-21_07h59.25.283,arrow_simon_punish,2021.1.2,Win32,61.04260774,,,,,,,,,,,,,,w,1,1.346,2.497885852,1,1,1,2,6,2,1,,,,,,,,,,,,,,
,,,,,,,,,,,left.png,,w,right,616b412ca506c4160a608a4a,2021-10-21_07h59.25.283,arrow_simon_punish,2021.1.2,Win32,61.04260774,,,,,,,,,,,,,,w,1,1.5885,1.73584194,0,1,1,3,7,3,1,,,,,,,,,,,,,,
,,,,,,,,,,,right.png,,p,right,616b412ca506c4160a608a4a,2021-10-21_07h59.25.283,arrow_simon_punish,2021.1.2,Win32,61.04260774,,,,,,,,,,,,,,p,1,1.4609,1.980828971,0,1,2,0,8,1,1,,,,,,,,,,,,,,
,,,,,,,,,,,left.png,,w,right,616b412ca506c4160a608a4a,2021-10-21_07h59.25.283,arrow_simon_punish,2021.1.2,Win32,61.04260774,,,,,,,,,,,,,,w,1,1.4184,1.855415844,0,1,2,1,9,3,1,,,,,,,,,,,,,,
,,,,,,,,,,,right.png,,p,left,616b412ca506c4160a608a4a,2021-10-21_07h59.25.283,arrow_simon_punish,2021.1.2,Win32,61.04260774,,,,,,,,,,,,,,p,1,1.5205,2.431617305,0,1,2,2,10,0,1,,,,,,,,,,,,,,
,,,,,,,,,,,left.png,,w,left,616b412ca506c4160a608a4a,2021-10-21_07h59.25.283,arrow_simon_punish,2021.1.2,Win32,61.04260774,,,,,,,,,,,,,,w,1,1.3951,1.702944772,1,1,2,3,11,2,1,,,,,,,,,,,,,,
,,,,,,,,,,,left.png,,w,right,616b412ca506c4160a608a4a,2021-10-21_07h59.25.283,arrow_simon_punish,2021.1.2,Win32,61.04260774,,,,,,,,,,,,,,w,1,1.6106,2.199450022,1,1,3,0,12,3,1,,,,,,,,,,,,,,
,,,,,,,,,,,left.png,,w,left,616b412ca506c4160a608a4a,2021-10-21_07h59.25.283,arrow_simon_punish,2021.1.2,Win32,61.04260774,,,,,,,,,,,,,,w,1,1.4663,1.887581982,0,1,3,1,13,2,1,,,,,,,,,,,,,,
,,,,,,,,,,,right.png,,p,left,616b412ca506c4160a608a4a,2021-10-21_07h59.25.283,arrow_simon_punish,2021.1.2,Win32,61.04260774,,,,,,,,,,,,,,p,1,1.3834,1.977016794,1,1,3,2,14,0,1,,,,,,,,,,,,,,
,,,,,,,,,,,right.png,,p,left,616b412ca506c4160a608a4a,2021-10-21_07h59.25.283,arrow_simon_punish,2021.1.2,Win32,61.04260774,,,,,,,,,,,,,,p,1,1.3202,2.052873892,1,1,3,3,15,0,1,,,,,,,,,,,,,,
,,,,,,,,,,,left.png,,w,right,616b412ca506c4160a608a4a,2021-10-21_07h59.25.283,arrow_simon_punish,2021.1.2,Win32,61.04260774,,,,,,,,,,,,,,w,1,1.2838,1.781253048,1,1,4,0,16,3,1,,,,,,,,,,,,,,
,,,,,,,,,,,left.png,,w,left,616b412ca506c4160a608a4a,2021-10-21_07h59.25.283,arrow_simon_punish,2021.1.2,Win32,61.04260774,,,,,,,,,,,,,,w,1,1.4327,2.07817935,0,1,4,1,17,2,1,,,,,,,,,,,,,,
,,,,,,,,,,,right.png,,p,right,616b412ca506c4160a608a4a,2021-10-21_07h59.25.283,arrow_simon_punish,2021.1.2,Win32,61.04260774,,,,,,,,,,,,,,p,1,1.5273,2.201348655,0,1,4,2,18,1,1,,,,,,,,,,,,,,
,,,,,,,,,,,right.png,,p,right,616b412ca506c4160a608a4a,2021-10-21_07h59.25.283,arrow_simon_punish,2021.1.2,Win32,61.04260774,,,,,,,,,,,,,,p,1,1.5136,2.351008885,0,1,4,3,19,1,1,,,,,,,,,,,,,,
,,,,,,,,,,,right.png,,p,right,616b412ca506c4160a608a4a,2021-10-21_07h59.25.283,arrow_simon_punish,2021.1.2,Win32,61.04260774,,,,,,,,,,,,,,p,1,1.8856,1.619589799,1,1,5,0,20,1,1,,,,,,,,,,,,,,
,,,,,,,,,,,right.png,,p,right,616b412ca506c4160a608a4a,2021-10-21_07h59.25.283,arrow_simon_punish,2021.1.2,Win32,61.04260774,,,,,,,,,,,,,,p,1,1.3524,2.027969926,1,1,5,1,21,1,1,,,,,,,,,,,,,,
,,,,,,,,,,,right.png,,p,left,616b412ca506c4160a608a4a,2021-10-21_07h59.25.283,arrow_simon_punish,2021.1.2,Win32,61.04260774,,,,,,,,,,,,,,p,1,1.4421,1.632268929,0,1,5,2,22,0,1,,,,,,,,,,,,,,
,,,,,,,,,,,right.png,,p,left,616b412ca506c4160a608a4a,2021-10-21_07h59.25.283,arrow_simon_punish,2021.1.2,Win32,61.04260774,,,,,,,,,,,,,,p,1,1.544,2.324321457,0,1,5,3,23,0,1,,,,,,,,,,,,,,
,,,,,,,,,,,right.png,,p,left,616b412ca506c4160a608a4a,2021-10-21_07h59.25.283,arrow_simon_punish,2021.1.2,Win32,61.04260774,,,,,,,,,,,,,,p,1,1.6978,2.351740637,1,1,6,0,24,0,1,,,,,,,,,,,,,,
,,,,,,,,,,,right.png,,p,right,616b412ca506c4160a608a4a,2021-10-21_07h59.25.283,arrow_simon_punish,2021.1.2,Win32,61.04260774,,,,,,,,,,,,,,p,1,1.3578,1.860764574,1,1,6,1,25,1,1,,,,,,,,,,,,,,
,,,,,,,,,,,left.png,,w,left,616b412ca506c4160a608a4a,2021-10-21_07h59.25.283,arrow_simon_punish,2021.1.2,Win32,61.04260774,,,,,,,,,,,,,,w,1,1.4557,1.50783609,0,1,6,2,26,2,1,,,,,,,,,,,,,,
,,,,,,,,,,,left.png,,w,right,616b412ca506c4160a608a4a,2021-10-21_07h59.25.283,arrow_simon_punish,2021.1.2,Win32,61.04260774,,,,,,,,,,,,,,w,1,1.4449,1.814000439,0,1,6,3,27,3,1,,,,,,,,,,,,,,
,,,,,,,,,,,left.png,,w,right,616b412ca506c4160a608a4a,2021-10-21_07h59.25.283,arrow_simon_punish,2021.1.2,Win32,61.04260774,,,,,,,,,,,,,,w,1,1.3624,2.020969157,1,1,7,0,28,3,1,,,,,,,,,,,,,,
,,,,,,,,,,,left.png,,w,left,616b412ca506c4160a608a4a,2021-10-21_07h59.25.283,arrow_simon_punish,2021.1.2,Win32,61.04260774,,,,,,,,,,,,,,w,1,1.5345,2.487190856,0,1,7,1,29,2,1,,,,,,,,,,,,,,
,,,,,,,,,,,right.png,,p,right,616b412ca506c4160a608a4a,2021-10-21_07h59.25.283,arrow_simon_punish,2021.1.2,Win32,61.04260774,,,,,,,,,,,,,,p,1,1.5909,2.447877498,0,1,7,2,30,1,1,,,,,,,,,,,,,,
,,,,,,,,,,,right.png,,p,left,616b412ca506c4160a608a4a,2021-10-21_07h59.25.283,arrow_simon_punish,2021.1.2,Win32,61.04260774,,,,,,,,,,,,,,p,1,1.5987,2.464074464,0,1,7,3,31,0,1,,,,,,,,,,,,,,
,,,,,,,,,,,left.png,,w,left,616b412ca506c4160a608a4a,2021-10-21_07h59.25.283,arrow_simon_punish,2021.1.2,Win32,61.04260774,,,,,,,,,,,,,,w,1,1.455,2.442538144,0,1,8,0,32,2,1,,,,,,,,,,,,,,
,,,,,,,,,,,right.png,,p,left,616b412ca506c4160a608a4a,2021-10-21_07h59.25.283,arrow_simon_punish,2021.1.2,Win32,61.04260774,,,,,,,,,,,,,,p,1,1.3721,1.683360507,1,1,8,1,33,0,1,,,,,,,,,,,,,,
,,,,,,,,,,,left.png,,w,right,616b412ca506c4160a608a4a,2021-10-21_07h59.25.283,arrow_simon_punish,2021.1.2,Win32,61.04260774,,,,,,,,,,,,,,w,1,1.3641,2.055237305,1,1,8,2,34,3,1,,,,,,,,,,,,,,
,,,,,,,,,,,left.png,,w,left,616b412ca506c4160a608a4a,2021-10-21_07h59.25.283,arrow_simon_punish,2021.1.2,Win32,61.04260774,,,,,,,,,,,,,,w,1,1.343,1.937153152,1,1,8,3,35,2,1,,,,,,,,,,,,,,
,,,,,,,,,,,left.png,,w,left,616b412ca506c4160a608a4a,2021-10-21_07h59.25.283,arrow_simon_punish,2021.1.2,Win32,61.04260774,,,,,,,,,,,,,,w,1,1.4799,1.832276426,0,1,9,0,36,2,1,,,,,,,,,,,,,,
,,,,,,,,,,,right.png,,p,right,616b412ca506c4160a608a4a,2021-10-21_07h59.25.283,arrow_simon_punish,2021.1.2,Win32,61.04260774,,,,,,,,,,,,,,p,1,1.6932,2.28235696,1,1,9,1,37,1,1,,,,,,,,,,,,,,
,,,,,,,,,,,right.png,,p,left,616b412ca506c4160a608a4a,2021-10-21_07h59.25.283,arrow_simon_punish,2021.1.2,Win32,61.04260774,,,,,,,,,,,,,,p,1,1.5051,1.603522442,0,1,9,2,38,0,1,,,,,,,,,,,,,,
,,,,,,,,,,,right.png,,p,right,616b412ca506c4160a608a4a,2021-10-21_07h59.25.283,arrow_simon_punish,2021.1.2,Win32,61.04260774,,,,,,,,,,,,,,p,1,1.4844,1.771005636,0,1,9,3,39,1,1,,,,,,,,,,,,,,
,,,,,,,,,,,right.png,,p,right,616b412ca506c4160a608a4a,2021-10-21_07h59.25.283,arrow_simon_punish,2021.1.2,Win32,61.04260774,,,,,,,,,,,,,,p,1,1.824,1.904522648,1,1,10,0,40,1,1,,,,,,,,,,,,,,
,,,,,,,,,,,right.png,,p,right,616b412ca506c4160a608a4a,2021-10-21_07h59.25.283,arrow_simon_punish,2021.1.2,Win32,61.04260774,,,,,,,,,,,,,,p,1,1.6223,2.469375811,1,1,10,1,41,1,1,,,,,,,,,,,,,,
,,,,,,,,,,,left.png,,w,right,616b412ca506c4160a608a4a,2021-10-21_07h59.25.283,arrow_simon_punish,2021.1.2,Win32,61.04260774,,,,,,,,,,,,,,w,1,1.5017,2.45583029,0,1,10,2,42,3,1,,,,,,,,,,,,,,
,,,,,,,,,,,right.png,,p,right,616b412ca506c4160a608a4a,2021-10-21_07h59.25.283,arrow_simon_punish,2021.1.2,Win32,61.04260774,,,,,,,,,,,,,,p,1,1.4962,1.596188146,0,1,10,3,43,1,1,,,,,,,,,,,,,,
,,,,,,,,,,,right.png,,p,right,616b412ca506c4160a608a4a,2021-10-21_07h59.25.283,arrow_simon_punish,2021.1.2,Win32,61.04260774,,,,,,,,,,,,,,p,1,1.4204,1.568685419,0,1,11,0,44,1,1,,,,,,,,,,,,,,
,,,,,,,,,,,right.png,,p,right,616b412ca506c4160a608a4a,2021-10-21_07h59.25.283,arrow_simon_punish,2021.1.2,Win32,61.04260774,,,,,,,,,,,,,,p,1,1.5309,2.075330824,0,1,11,1,45,1,1,,,,,,,,,,,,,,
,,,,,,,,,,,right.png,,p,left,616b412ca506c4160a608a4a,2021-10-21_07h59.25.283,arrow_simon_punish,2021.1.2,Win32,61.04260774,,,,,,,,,,,,,,p,1,1.6693,2.210369275,1,1,11,2,46,0,1,,,,,,,,,,,,,,
,,,,,,,,,,,right.png,,p,left,616b412ca506c4160a608a4a,2021-10-21_07h59.25.283,arrow_simon_punish,2021.1.2,Win32,61.04260774,,,,,,,,,,,,,,p,1,1.6259,1.891271324,1,1,11,3,47,0,1,,,,,,,,,,,,,,
,,,,,,,,,,,left.png,,w,left,616b412ca506c4160a608a4a,2021-10-21_07h59.25.283,arrow_simon_punish,2021.1.2,Win32,61.04260774,,,,,,,,,,,,,,w,1,1.5685,1.915752345,0,1,12,0,48,2,1,,,,,,,,,,,,,,
,,,,,,,,,,,left.png,,w,left,616b412ca506c4160a608a4a,2021-10-21_07h59.25.283,arrow_simon_punish,2021.1.2,Win32,61.04260774,,,,,,,,,,,,,,w,1,1.5128,2.431490092,0,1,12,1,49,2,1,,,,,,,,,,,,,,
,,,,,,,,,,,right.png,,p,right,616b412ca506c4160a608a4a,2021-10-21_07h59.25.283,arrow_simon_punish,2021.1.2,Win32,61.04260774,,,,,,,,,,,,,,p,1,1.5017,1.969921398,0,1,12,2,50,1,1,,,,,,,,,,,,,,
,,,,,,,,,,,right.png,,p,left,616b412ca506c4160a608a4a,2021-10-21_07h59.25.283,arrow_simon_punish,2021.1.2,Win32,61.04260774,,,,,,,,,,,,,,p,1,1.5602,2.399821628,0,1,12,3,51,0,1,,,,,,,,,,,,,,
,,,,,,,,,,,left.png,,w,left,616b412ca506c4160a608a4a,2021-10-21_07h59.25.283,arrow_simon_punish,2021.1.2,Win32,61.04260774,,,,,,,,,,,,,,w,1,1.5375,2.425150828,0,1,13,0,52,2,1,,,,,,,,,,,,,,
,,,,,,,,,,,right.png,,p,left,616b412ca506c4160a608a4a,2021-10-21_07h59.25.283,arrow_simon_punish,2021.1.2,Win32,61.04260774,,,,,,,,,,,,,,p,1,1.4596,2.17146317,0,1,13,1,53,0,1,,,,,,,,,,,,,,
,,,,,,,,,,,right.png,,p,left,616b412ca506c4160a608a4a,2021-10-21_07h59.25.283,arrow_simon_punish,2021.1.2,Win32,61.04260774,,,,,,,,,,,,,,p,1,1.3531,2.08963203,1,1,13,2,54,0,1,,,,,,,,,,,,,,
,,,,,,,,,,,left.png,,w,right,616b412ca506c4160a608a4a,2021-10-21_07h59.25.283,arrow_simon_punish,2021.1.2,Win32,61.04260774,,,,,,,,,,,,,,w,1,1.5385,2.365020109,0,1,13,3,55,3,1,,,,,,,,,,,,,,
,,,,,,,,,,,left.png,,w,left,616b412ca506c4160a608a4a,2021-10-21_07h59.25.283,arrow_simon_punish,2021.1.2,Win32,61.04260774,,,,,,,,,,,,,,w,1,1.4015,2.169586339,0,1,14,0,56,2,1,,,,,,,,,,,,,,
,,,,,,,,,,,left.png,,w,right,616b412ca506c4160a608a4a,2021-10-21_07h59.25.283,arrow_simon_punish,2021.1.2,Win32,61.04260774,,,,,,,,,,,,,,w,1,1.3894,1.865043222,1,1,14,1,57,3,1,,,,,,,,,,,,,,
,,,,,,,,,,,left.png,,w,left,616b412ca506c4160a608a4a,2021-10-21_07h59.25.283,arrow_simon_punish,2021.1.2,Win32,61.04260774,,,,,,,,,,,,,,w,1,1.6043,2.293655009,1,1,14,2,58,2,1,,,,,,,,,,,,,,
,,,,,,,,,,,left.png,,w,left,616b412ca506c4160a608a4a,2021-10-21_07h59.25.283,arrow_simon_punish,2021.1.2,Win32,61.04260774,,,,,,,,,,,,,,w,1,1.8204,1.515750736,1,1,14,3,59,2,1,,,,,,,,,,,,,,
,,,,,,,,,,,,,,,616b412ca506c4160a608a4a,2021-10-21_07h59.25.283,arrow_simon_punish,2021.1.2,Win32,61.04260774,,,,,,,,,,,,,,,,,,,,,,,,,space,40.3114,4,1,0,2,0,1,1,,,,,
,,,,,,,,,,,left.png,,w,left,616b412ca506c4160a608a4a,2021-10-21_07h59.25.283,arrow_simon_punish,2021.1.2,Win32,61.04260774,,,,,,,,,,,,,,w,1,1.5412,2.485505862,0,5,0,0,0,2,1,,,,,,,,,,,,,,
,,,,,,,,,,,left.png,,w,right,616b412ca506c4160a608a4a,2021-10-21_07h59.25.283,arrow_simon_punish,2021.1.2,Win32,61.04260774,,,,,,,,,,,,,,w,1,1.3427,1.997179847,1,5,0,1,1,3,1,,,,,,,,,,,,,,
,,,,,,,,,,,left.png,,w,left,616b412ca506c4160a608a4a,2021-10-21_07h59.25.283,arrow_simon_punish,2021.1.2,Win32,61.04260774,,,,,,,,,,,,,,w,1,1.425,1.812356736,0,5,0,2,2,2,1,,,,,,,,,,,,,,
,,,,,,,,,,,left.png,,w,right,616b412ca506c4160a608a4a,2021-10-21_07h59.25.283,arrow_simon_punish,2021.1.2,Win32,61.04260774,,,,,,,,,,,,,,w,1,1.3752,2.129557049,1,5,0,3,3,3,1,,,,,,,,,,,,,,
,,,,,,,,,,,right.png,,p,left,616b412ca506c4160a608a4a,2021-10-21_07h59.25.283,arrow_simon_punish,2021.1.2,Win32,61.04260774,,,,,,,,,,,,,,p,1,1.5207,2.13003036,0,5,1,0,4,0,1,,,,,,,,,,,,,,
,,,,,,,,,,,right.png,,p,right,616b412ca506c4160a608a4a,2021-10-21_07h59.25.283,arrow_simon_punish,2021.1.2,Win32,61.04260774,,,,,,,,,,,,,,p,1,1.5388,2.318151016,0,5,1,1,5,1,1,,,,,,,,,,,,,,
,,,,,,,,,,,left.png,,w,right,616b412ca506c4160a608a4a,2021-10-21_07h59.25.283,arrow_simon_punish,2021.1.2,Win32,61.04260774,,,,,,,,,,,,,,w,1,1.3967,2.149875367,1,5,1,2,6,3,1,,,,,,,,,,,,,,
,,,,,,,,,,,left.png,,w,right,616b412ca506c4160a608a4a,2021-10-21_07h59.25.283,arrow_simon_punish,2021.1.2,Win32,61.04260774,,,,,,,,,,,,,,w,1,1.3731,1.925268792,1,5,1,3,7,3,1,,,,,,,,,,,,,,
,,,,,,,,,,,left.png,,w,left,616b412ca506c4160a608a4a,2021-10-21_07h59.25.283,arrow_simon_punish,2021.1.2,Win32,61.04260774,,,,,,,,,,,,,,w,1,1.3342,1.742866571,1,5,2,0,8,2,1,,,,,,,,,,,,,,
,,,,,,,,,,,left.png,,w,left,616b412ca506c4160a608a4a,2021-10-21_07h59.25.283,arrow_simon_punish,2021.1.2,Win32,61.04260774,,,,,,,,,,,,,,w,1,1.4486,1.60619255,0,5,2,1,9,2,1,,,,,,,,,,,,,,
,,,,,,,,,,,left.png,,w,left,616b412ca506c4160a608a4a,2021-10-21_07h59.25.283,arrow_simon_punish,2021.1.2,Win32,61.04260774,,,,,,,,,,,,,,w,1,1.6709,2.451935538,1,5,2,2,10,2,1,,,,,,,,,,,,,,
,,,,,,,,,,,right.png,,p,left,616b412ca506c4160a608a4a,2021-10-21_07h59.25.283,arrow_simon_punish,2021.1.2,Win32,61.04260774,,,,,,,,,,,,,,w,0,0.6834,1.978695651,1,5,2,3,11,0,1,,,,,,,,,,,,,,
,,,,,,,,,,,right.png,,p,left,616b412ca506c4160a608a4a,2021-10-21_07h59.25.283,arrow_simon_punish,2021.1.2,Win32,61.04260774,,,,,,,,,,,,,,p,1,1.6487,1.554435758,1,5,3,0,12,0,1,,,,,,,,,,,,,,
,,,,,,,,,,,left.png,,w,left,616b412ca506c4160a608a4a,2021-10-21_07h59.25.283,arrow_simon_punish,2021.1.2,Win32,61.04260774,,,,,,,,,,,,,,w,1,1.4699,1.59186673,0,5,3,1,13,2,1,,,,,,,,,,,,,,
,,,,,,,,,,,left.png,,w,right,616b412ca506c4160a608a4a,2021-10-21_07h59.25.283,arrow_simon_punish,2021.1.2,Win32,61.04260774,,,,,,,,,,,,,,w,1,1.6349,1.665380011,1,5,3,2,14,3,1,,,,,,,,,,,,,,
,,,,,,,,,,,left.png,,w,left,616b412ca506c4160a608a4a,2021-10-21_07h59.25.283,arrow_simon_punish,2021.1.2,Win32,61.04260774,,,,,,,,,,,,,,w,1,1.3206,1.974076549,1,5,3,3,15,2,1,,,,,,,,,,,,,,
,,,,,,,,,,,right.png,,p,left,616b412ca506c4160a608a4a,2021-10-21_07h59.25.283,arrow_simon_punish,2021.1.2,Win32,61.04260774,,,,,,,,,,,,,,p,1,1.6034,2.348990512,1,5,4,0,16,0,1,,,,,,,,,,,,,,
,,,,,,,,,,,left.png,,w,left,616b412ca506c4160a608a4a,2021-10-21_07h59.25.283,arrow_simon_punish,2021.1.2,Win32,61.04260774,,,,,,,,,,,,,,w,1,1.401,2.096245637,0,5,4,1,17,2,1,,,,,,,,,,,,,,
,,,,,,,,,,,left.png,,w,right,616b412ca506c4160a608a4a,2021-10-21_07h59.25.283,arrow_simon_punish,2021.1.2,Win32,61.04260774,,,,,,,,,,,,,,w,1,1.459,1.534012891,0,5,4,2,18,3,1,,,,,,,,,,,,,,
,,,,,,,,,,,right.png,,p,right,616b412ca506c4160a608a4a,2021-10-21_07h59.25.283,arrow_simon_punish,2021.1.2,Win32,61.04260774,,,,,,,,,,,,,,p,1,1.6726,2.145419828,1,5,4,3,19,1,1,,,,,,,,,,,,,,
,,,,,,,,,,,right.png,,p,left,616b412ca506c4160a608a4a,2021-10-21_07h59.25.283,arrow_simon_punish,2021.1.2,Win32,61.04260774,,,,,,,,,,,,,,p,1,1.7014,2.482342996,1,5,5,0,20,0,1,,,,,,,,,,,,,,
,,,,,,,,,,,left.png,,w,left,616b412ca506c4160a608a4a,2021-10-21_07h59.25.283,arrow_simon_punish,2021.1.2,Win32,61.04260774,,,,,,,,,,,,,,w,1,1.6411,2.177353621,1,5,5,1,21,2,1,,,,,,,,,,,,,,
,,,,,,,,,,,right.png,,p,left,616b412ca506c4160a608a4a,2021-10-21_07h59.25.283,arrow_simon_punish,2021.1.2,Win32,61.04260774,,,,,,,,,,,,,,p,1,1.6065,2.107098051,1,5,5,2,22,0,1,,,,,,,,,,,,,,
,,,,,,,,,,,right.png,,p,left,616b412ca506c4160a608a4a,2021-10-21_07h59.25.283,arrow_simon_punish,2021.1.2,Win32,61.04260774,,,,,,,,,,,,,,p,1,1.7097,2.180096634,1,5,5,3,23,0,1,,,,,,,,,,,,,,
,,,,,,,,,,,left.png,,w,left,616b412ca506c4160a608a4a,2021-10-21_07h59.25.283,arrow_simon_punish,2021.1.2,Win32,61.04260774,,,,,,,,,,,,,,w,1,1.7365,2.464337927,1,5,6,0,24,2,1,,,,,,,,,,,,,,
,,,,,,,,,,,left.png,,w,right,616b412ca506c4160a608a4a,2021-10-21_07h59.25.283,arrow_simon_punish,2021.1.2,Win32,61.04260774,,,,,,,,,,,,,,w,1,1.7063,2.260515489,1,5,6,1,25,3,1,,,,,,,,,,,,,,
,,,,,,,,,,,right.png,,p,left,616b412ca506c4160a608a4a,2021-10-21_07h59.25.283,arrow_simon_punish,2021.1.2,Win32,61.04260774,,,,,,,,,,,,,,p,1,1.6694,1.937847454,1,5,6,2,26,0,1,,,,,,,,,,,,,,
,,,,,,,,,,,right.png,,p,right,616b412ca506c4160a608a4a,2021-10-21_07h59.25.283,arrow_simon_punish,2021.1.2,Win32,61.04260774,,,,,,,,,,,,,,p,1,1.7145,2.363447104,1,5,6,3,27,1,1,,,,,,,,,,,,,,
,,,,,,,,,,,right.png,,p,left,616b412ca506c4160a608a4a,2021-10-21_07h59.25.283,arrow_simon_punish,2021.1.2,Win32,61.04260774,,,,,,,,,,,,,,p,1,1.4849,2.141560512,0,5,7,0,28,0,1,,,,,,,,,,,,,,
,,,,,,,,,,,right.png,,p,left,616b412ca506c4160a608a4a,2021-10-21_07h59.25.283,arrow_simon_punish,2021.1.2,Win32,61.04260774,,,,,,,,,,,,,,p,1,1.4093,1.616915848,0,5,7,1,29,0,1,,,,,,,,,,,,,,
,,,,,,,,,,,left.png,,w,right,616b412ca506c4160a608a4a,2021-10-21_07h59.25.283,arrow_simon_punish,2021.1.2,Win32,61.04260774,,,,,,,,,,,,,,w,1,1.4021,1.585266769,0,5,7,2,30,3,1,,,,,,,,,,,,,,
,,,,,,,,,,,left.png,,w,right,616b412ca506c4160a608a4a,2021-10-21_07h59.25.283,arrow_simon_punish,2021.1.2,Win32,61.04260774,,,,,,,,,,,,,,w,1,1.4881,1.68595932,0,5,7,3,31,3,1,,,,,,,,,,,,,,
,,,,,,,,,,,right.png,,p,left,616b412ca506c4160a608a4a,2021-10-21_07h59.25.283,arrow_simon_punish,2021.1.2,Win32,61.04260774,,,,,,,,,,,,,,p,1,1.4441,2.134411169,0,5,8,0,32,0,1,,,,,,,,,,,,,,
,,,,,,,,,,,right.png,,p,right,616b412ca506c4160a608a4a,2021-10-21_07h59.25.283,arrow_simon_punish,2021.1.2,Win32,61.04260774,,,,,,,,,,,,,,p,1,1.5059,2.426656773,0,5,8,1,33,1,1,,,,,,,,,,,,,,
,,,,,,,,,,,left.png,,w,left,616b412ca506c4160a608a4a,2021-10-21_07h59.25.283,arrow_simon_punish,2021.1.2,Win32,61.04260774,,,,,,,,,,,,,,w,1,1.4058,2.055388996,0,5,8,2,34,2,1,,,,,,,,,,,,,,
,,,,,,,,,,,left.png,,w,right,616b412ca506c4160a608a4a,2021-10-21_07h59.25.283,arrow_simon_punish,2021.1.2,Win32,61.04260774,,,,,,,,,,,,,,w,1,1.4604,2.473715631,0,5,8,3,35,3,1,,,,,,,,,,,,,,
,,,,,,,,,,,right.png,,p,right,616b412ca506c4160a608a4a,2021-10-21_07h59.25.283,arrow_simon_punish,2021.1.2,Win32,61.04260774,,,,,,,,,,,,,,p,1,1.3618,1.617488493,1,5,9,0,36,1,1,,,,,,,,,,,,,,
,,,,,,,,,,,left.png,,w,left,616b412ca506c4160a608a4a,2021-10-21_07h59.25.283,arrow_simon_punish,2021.1.2,Win32,61.04260774,,,,,,,,,,,,,,w,1,1.5059,1.639577821,0,5,9,1,37,2,1,,,,,,,,,,,,,,
,,,,,,,,,,,right.png,,p,left,616b412ca506c4160a608a4a,2021-10-21_07h59.25.283,arrow_simon_punish,2021.1.2,Win32,61.04260774,,,,,,,,,,,,,,p,1,1.6537,2.165968867,1,5,9,2,38,0,1,,,,,,,,,,,,,,
,,,,,,,,,,,left.png,,w,right,616b412ca506c4160a608a4a,2021-10-21_07h59.25.283,arrow_simon_punish,2021.1.2,Win32,61.04260774,,,,,,,,,,,,,,w,1,1.4585,1.531941128,0,5,9,3,39,3,1,,,,,,,,,,,,,,
,,,,,,,,,,,left.png,,w,right,616b412ca506c4160a608a4a,2021-10-21_07h59.25.283,arrow_simon_punish,2021.1.2,Win32,61.04260774,,,,,,,,,,,,,,w,1,1.6008,2.420908272,1,5,10,0,40,3,1,,,,,,,,,,,,,,
,,,,,,,,,,,right.png,,p,right,616b412ca506c4160a608a4a,2021-10-21_07h59.25.283,arrow_simon_punish,2021.1.2,Win32,61.04260774,,,,,,,,,,,,,,p,1,1.5121,1.524638938,0,5,10,1,41,1,1,,,,,,,,,,,,,,
,,,,,,,,,,,left.png,,w,right,616b412ca506c4160a608a4a,2021-10-21_07h59.25.283,arrow_simon_punish,2021.1.2,Win32,61.04260774,,,,,,,,,,,,,,w,1,1.5322,2.373389866,0,5,10,2,42,3,1,,,,,,,,,,,,,,
,,,,,,,,,,,right.png,,p,left,616b412ca506c4160a608a4a,2021-10-21_07h59.25.283,arrow_simon_punish,2021.1.2,Win32,61.04260774,,,,,,,,,,,,,,p,1,1.6548,2.086159723,1,5,10,3,43,0,1,,,,,,,,,,,,,,
,,,,,,,,,,,right.png,,p,right,616b412ca506c4160a608a4a,2021-10-21_07h59.25.283,arrow_simon_punish,2021.1.2,Win32,61.04260774,,,,,,,,,,,,,,p,1,1.5957,2.117801921,0,5,11,0,44,1,1,,,,,,,,,,,,,,
,,,,,,,,,,,right.png,,p,right,616b412ca506c4160a608a4a,2021-10-21_07h59.25.283,arrow_simon_punish,2021.1.2,Win32,61.04260774,,,,,,,,,,,,,,p,1,1.6115,2.232010357,1,5,11,1,45,1,1,,,,,,,,,,,,,,
,,,,,,,,,,,right.png,,p,left,616b412ca506c4160a608a4a,2021-10-21_07h59.25.283,arrow_simon_punish,2021.1.2,Win32,61.04260774,,,,,,,,,,,,,,p,1,1.5454,2.153356103,0,5,11,2,46,0,1,,,,,,,,,,,,,,
,,,,,,,,,,,right.png,,p,right,616b412ca506c4160a608a4a,2021-10-21_07h59.25.283,arrow_simon_punish,2021.1.2,Win32,61.04260774,,,,,,,,,,,,,,p,1,1.477,2.006838978,0,5,11,3,47,1,1,,,,,,,,,,,,,,
,,,,,,,,,,,right.png,,p,left,616b412ca506c4160a608a4a,2021-10-21_07h59.25.283,arrow_simon_punish,2021.1.2,Win32,61.04260774,,,,,,,,,,,,,,p,1,1.4166,1.557144022,0,5,12,0,48,0,1,,,,,,,,,,,,,,
,,,,,,,,,,,left.png,,w,left,616b412ca506c4160a608a4a,2021-10-21_07h59.25.283,arrow_simon_punish,2021.1.2,Win32,61.04260774,,,,,,,,,,,,,,w,1,1.4519,1.941546203,0,5,12,1,49,2,1,,,,,,,,,,,,,,
,,,,,,,,,,,left.png,,w,left,616b412ca506c4160a608a4a,2021-10-21_07h59.25.283,arrow_simon_punish,2021.1.2,Win32,61.04260774,,,,,,,,,,,,,,w,1,1.5502,1.927521547,0,5,12,2,50,2,1,,,,,,,,,,,,,,
,,,,,,,,,,,right.png,,p,right,616b412ca506c4160a608a4a,2021-10-21_07h59.25.283,arrow_simon_punish,2021.1.2,Win32,61.04260774,,,,,,,,,,,,,,p,1,1.3029,1.588667764,1,5,12,3,51,1,1,,,,,,,,,,,,,,
,,,,,,,,,,,right.png,,p,right,616b412ca506c4160a608a4a,2021-10-21_07h59.25.283,arrow_simon_punish,2021.1.2,Win32,61.04260774,,,,,,,,,,,,,,p,1,1.5381,2.120797518,0,5,13,0,52,1,1,,,,,,,,,,,,,,
,,,,,,,,,,,right.png,,p,right,616b412ca506c4160a608a4a,2021-10-21_07h59.25.283,arrow_simon_punish,2021.1.2,Win32,61.04260774,,,,,,,,,,,,,,p,1,1.5802,1.829341046,0,5,13,1,53,1,1,,,,,,,,,,,,,,
,,,,,,,,,,,left.png,,w,left,616b412ca506c4160a608a4a,2021-10-21_07h59.25.283,arrow_simon_punish,2021.1.2,Win32,61.04260774,,,,,,,,,,,,,,w,1,1.4618,2.232152083,0,5,13,2,54,2,1,,,,,,,,,,,,,,
,,,,,,,,,,,right.png,,p,right,616b412ca506c4160a608a4a,2021-10-21_07h59.25.283,arrow_simon_punish,2021.1.2,Win32,61.04260774,,,,,,,,,,,,,,p,1,1.5622,2.23677762,0,5,13,3,55,1,1,,,,,,,,,,,,,,
,,,,,,,,,,,left.png,,w,right,616b412ca506c4160a608a4a,2021-10-21_07h59.25.283,arrow_simon_punish,2021.1.2,Win32,61.04260774,,,,,,,,,,,,,,w,1,1.6517,1.659551787,1,5,14,0,56,3,1,,,,,,,,,,,,,,
,,,,,,,,,,,left.png,,w,right,616b412ca506c4160a608a4a,2021-10-21_07h59.25.283,arrow_simon_punish,2021.1.2,Win32,61.04260774,,,,,,,,,,,,,,w,1,1.4408,1.802590678,0,5,14,1,57,3,1,,,,,,,,,,,,,,
,,,,,,,,,,,right.png,,p,right,616b412ca506c4160a608a4a,2021-10-21_07h59.25.283,arrow_simon_punish,2021.1.2,Win32,61.04260774,,,,,,,,,,,,,,p,1,1.5432,1.760232977,0,5,14,2,58,1,1,,,,,,,,,,,,,,
,,,,,,,,,,,right.png,,p,right,616b412ca506c4160a608a4a,2021-10-21_07h59.25.283,arrow_simon_punish,2021.1.2,Win32,61.04260774,,,,,,,,,,,,,,p,1,1.5927,1.801648887,0,5,14,3,59,1,1,,,,,,,,,,,,,,
,,,,,,,,,,,,,,,616b412ca506c4160a608a4a,2021-10-21_07h59.25.283,arrow_simon_punish,2021.1.2,Win32,61.04260774,,,,,,,,,,,,,,,,,,,,,,,,,space,8.5019,5,1,1,3,1,1,5,,,,,
,,,,,,,,,,,right.png,,p,left,616b412ca506c4160a608a4a,2021-10-21_07h59.25.283,arrow_simon_punish,2021.1.2,Win32,61.04260774,,,,,,,,,,,,,,p,1,1.3395,1.704790699,1,1,0,0,0,0,1,,,,,,,,,,,,,,
,,,,,,,,,,,left.png,,w,left,616b412ca506c4160a608a4a,2021-10-21_07h59.25.283,arrow_simon_punish,2021.1.2,Win32,61.04260774,,,,,,,,,,,,,,w,1,1.4774,1.820152651,0,1,0,1,1,2,1,,,,,,,,,,,,,,
,,,,,,,,,,,left.png,,w,right,616b412ca506c4160a608a4a,2021-10-21_07h59.25.283,arrow_simon_punish,2021.1.2,Win32,61.04260774,,,,,,,,,,,,,,w,1,1.4985,2.192773857,0,1,0,2,2,3,1,,,,,,,,,,,,,,
,,,,,,,,,,,right.png,,p,right,616b412ca506c4160a608a4a,2021-10-21_07h59.25.283,arrow_simon_punish,2021.1.2,Win32,61.04260774,,,,,,,,,,,,,,p,1,1.5827,1.931982356,0,1,0,3,3,1,1,,,,,,,,,,,,,,
,,,,,,,,,,,left.png,,w,right,616b412ca506c4160a608a4a,2021-10-21_07h59.25.283,arrow_simon_punish,2021.1.2,Win32,61.04260774,,,,,,,,,,,,,,w,1,1.3428,1.684815361,1,1,1,0,4,3,1,,,,,,,,,,,,,,
,,,,,,,,,,,right.png,,p,left,616b412ca506c4160a608a4a,2021-10-21_07h59.25.283,arrow_simon_punish,2021.1.2,Win32,61.04260774,,,,,,,,,,,,,,p,1,1.4316,1.663047732,0,1,1,1,5,0,1,,,,,,,,,,,,,,
,,,,,,,,,,,left.png,,w,left,616b412ca506c4160a608a4a,2021-10-21_07h59.25.283,arrow_simon_punish,2021.1.2,Win32,61.04260774,,,,,,,,,,,,,,w,1,1.5349,1.882353514,0,1,1,2,6,2,1,,,,,,,,,,,,,,
,,,,,,,,,,,right.png,,p,right,616b412ca506c4160a608a4a,2021-10-21_07h59.25.283,arrow_simon_punish,2021.1.2,Win32,61.04260774,,,,,,,,,,,,,,p,1,1.3763,1.645630217,1,1,1,3,7,1,1,,,,,,,,,,,,,,
,,,,,,,,,,,right.png,,p,right,616b412ca506c4160a608a4a,2021-10-21_07h59.25.283,arrow_simon_punish,2021.1.2,Win32,61.04260774,,,,,,,,,,,,,,p,1,1.5373,2.301268146,0,1,2,0,8,1,1,,,,,,,,,,,,,,
,,,,,,,,,,,left.png,,w,left,616b412ca506c4160a608a4a,2021-10-21_07h59.25.283,arrow_simon_punish,2021.1.2,Win32,61.04260774,,,,,,,,,,,,,,w,1,1.4189,1.60318868,0,1,2,1,9,2,1,,,,,,,,,,,,,,
,,,,,,,,,,,right.png,,p,left,616b412ca506c4160a608a4a,2021-10-21_07h59.25.283,arrow_simon_punish,2021.1.2,Win32,61.04260774,,,,,,,,,,,,,,p,1,1.5371,1.552470167,0,1,2,2,10,0,1,,,,,,,,,,,,,,
,,,,,,,,,,,left.png,,w,right,616b412ca506c4160a608a4a,2021-10-21_07h59.25.283,arrow_simon_punish,2021.1.2,Win32,61.04260774,,,,,,,,,,,,,,w,1,1.4849,2.165570468,0,1,2,3,11,3,1,,,,,,,,,,,,,,
,,,,,,,,,,,left.png,,w,right,616b412ca506c4160a608a4a,2021-10-21_07h59.25.283,arrow_simon_punish,2021.1.2,Win32,61.04260774,,,,,,,,,,,,,,w,1,1.4469,1.69107346,0,1,3,0,12,3,1,,,,,,,,,,,,,,
,,,,,,,,,,,left.png,,w,right,616b412ca506c4160a608a4a,2021-10-21_07h59.25.283,arrow_simon_punish,2021.1.2,Win32,61.04260774,,,,,,,,,,,,,,w,1,1.4216,1.966771538,0,1,3,1,13,3,1,,,,,,,,,,,,,,
,,,,,,,,,,,left.png,,w,right,616b412ca506c4160a608a4a,2021-10-21_07h59.25.283,arrow_simon_punish,2021.1.2,Win32,61.04260774,,,,,,,,,,,,,,w,1,1.5069,1.629040744,0,1,3,2,14,3,1,,,,,,,,,,,,,,
,,,,,,,,,,,left.png,,w,right,616b412ca506c4160a608a4a,2021-10-21_07h59.25.283,arrow_simon_punish,2021.1.2,Win32,61.04260774,,,,,,,,,,,,,,w,1,1.583,2.175987577,0,1,3,3,15,3,1,,,,,,,,,,,,,,
,,,,,,,,,,,left.png,,w,right,616b412ca506c4160a608a4a,2021-10-21_07h59.25.283,arrow_simon_punish,2021.1.2,Win32,61.04260774,,,,,,,,,,,,,,w,1,1.4634,2.398389853,0,1,4,0,16,3,1,,,,,,,,,,,,,,
,,,,,,,,,,,left.png,,w,right,616b412ca506c4160a608a4a,2021-10-21_07h59.25.283,arrow_simon_punish,2021.1.2,Win32,61.04260774,,,,,,,,,,,,,,w,1,1.5333,2.274872626,0,1,4,1,17,3,1,,,,,,,,,,,,,,
,,,,,,,,,,,right.png,,p,left,616b412ca506c4160a608a4a,2021-10-21_07h59.25.283,arrow_simon_punish,2021.1.2,Win32,61.04260774,,,,,,,,,,,,,,p,1,1.8237,2.052542323,1,1,4,2,18,0,1,,,,,,,,,,,,,,
,,,,,,,,,,,left.png,,w,right,616b412ca506c4160a608a4a,2021-10-21_07h59.25.283,arrow_simon_punish,2021.1.2,Win32,61.04260774,,,,,,,,,,,,,,w,1,1.4058,2.001411831,0,1,4,3,19,3,1,,,,,,,,,,,,,,
,,,,,,,,,,,right.png,,p,right,616b412ca506c4160a608a4a,2021-10-21_07h59.25.283,arrow_simon_punish,2021.1.2,Win32,61.04260774,,,,,,,,,,,,,,p,1,1.6694,2.436870152,1,1,5,0,20,1,1,,,,,,,,,,,,,,
,,,,,,,,,,,left.png,,w,left,616b412ca506c4160a608a4a,2021-10-21_07h59.25.283,arrow_simon_punish,2021.1.2,Win32,61.04260774,,,,,,,,,,,,,,w,1,1.5454,2.439611279,0,1,5,1,21,2,1,,,,,,,,,,,,,,
,,,,,,,,,,,left.png,,w,left,616b412ca506c4160a608a4a,2021-10-21_07h59.25.283,arrow_simon_punish,2021.1.2,Win32,61.04260774,,,,,,,,,,,,,,w,1,1.5184,2.445087458,0,1,5,2,22,2,1,,,,,,,,,,,,,,
,,,,,,,,,,,right.png,,p,left,616b412ca506c4160a608a4a,2021-10-21_07h59.25.283,arrow_simon_punish,2021.1.2,Win32,61.04260774,,,,,,,,,,,,,,p,1,1.4948,2.085101048,0,1,5,3,23,0,1,,,,,,,,,,,,,,
,,,,,,,,,,,left.png,,w,left,616b412ca506c4160a608a4a,2021-10-21_07h59.25.283,arrow_simon_punish,2021.1.2,Win32,61.04260774,,,,,,,,,,,,,,w,1,1.6353,2.301106356,1,1,6,0,24,2,1,,,,,,,,,,,,,,
,,,,,,,,,,,right.png,,p,right,616b412ca506c4160a608a4a,2021-10-21_07h59.25.283,arrow_simon_punish,2021.1.2,Win32,61.04260774,,,,,,,,,,,,,,p,1,1.5368,2.427023436,0,1,6,1,25,1,1,,,,,,,,,,,,,,
,,,,,,,,,,,right.png,,p,left,616b412ca506c4160a608a4a,2021-10-21_07h59.25.283,arrow_simon_punish,2021.1.2,Win32,61.04260774,,,,,,,,,,,,,,p,1,1.4662,2.152369894,0,1,6,2,26,0,1,,,,,,,,,,,,,,
,,,,,,,,,,,right.png,,p,right,616b412ca506c4160a608a4a,2021-10-21_07h59.25.283,arrow_simon_punish,2021.1.2,Win32,61.04260774,,,,,,,,,,,,,,p,1,1.5122,2.422179517,0,1,6,3,27,1,1,,,,,,,,,,,,,,
,,,,,,,,,,,right.png,,p,right,616b412ca506c4160a608a4a,2021-10-21_07h59.25.283,arrow_simon_punish,2021.1.2,Win32,61.04260774,,,,,,,,,,,,,,p,1,1.4349,2.22157943,0,1,7,0,28,1,1,,,,,,,,,,,,,,
,,,,,,,,,,,left.png,,w,left,616b412ca506c4160a608a4a,2021-10-21_07h59.25.283,arrow_simon_punish,2021.1.2,Win32,61.04260774,,,,,,,,,,,,,,w,1,1.3776,1.685895836,1,1,7,1,29,2,1,,,,,,,,,,,,,,
,,,,,,,,,,,left.png,,w,right,616b412ca506c4160a608a4a,2021-10-21_07h59.25.283,arrow_simon_punish,2021.1.2,Win32,61.04260774,,,,,,,,,,,,,,w,1,1.5139,1.855678813,0,1,7,2,30,3,1,,,,,,,,,,,,,,
,,,,,,,,,,,right.png,,p,right,616b412ca506c4160a608a4a,2021-10-21_07h59.25.283,arrow_simon_punish,2021.1.2,Win32,61.04260774,,,,,,,,,,,,,,p,1,1.637,2.42111548,1,1,7,3,31,1,1,,,,,,,,,,,,,,
,,,,,,,,,,,right.png,,p,left,616b412ca506c4160a608a4a,2021-10-21_07h59.25.283,arrow_simon_punish,2021.1.2,Win32,61.04260774,,,,,,,,,,,,,,p,1,1.5227,2.356351134,0,1,8,0,32,0,1,,,,,,,,,,,,,,
,,,,,,,,,,,right.png,,p,left,616b412ca506c4160a608a4a,2021-10-21_07h59.25.283,arrow_simon_punish,2021.1.2,Win32,61.04260774,,,,,,,,,,,,,,p,1,1.4615,1.981643279,0,1,8,1,33,0,1,,,,,,,,,,,,,,
,,,,,,,,,,,right.png,,p,right,616b412ca506c4160a608a4a,2021-10-21_07h59.25.283,arrow_simon_punish,2021.1.2,Win32,61.04260774,,,,,,,,,,,,,,p,1,1.4348,1.834097797,0,1,8,2,34,1,1,,,,,,,,,,,,,,
,,,,,,,,,,,right.png,,p,left,616b412ca506c4160a608a4a,2021-10-21_07h59.25.283,arrow_simon_punish,2021.1.2,Win32,61.04260774,,,,,,,,,,,,,,p,1,1.6249,1.932123367,1,1,8,3,35,0,1,,,,,,,,,,,,,,
,,,,,,,,,,,right.png,,p,left,616b412ca506c4160a608a4a,2021-10-21_07h59.25.283,arrow_simon_punish,2021.1.2,Win32,61.04260774,,,,,,,,,,,,,,p,1,1.7029,2.010764919,1,1,9,0,36,0,1,,,,,,,,,,,,,,
,,,,,,,,,,,left.png,,w,left,616b412ca506c4160a608a4a,2021-10-21_07h59.25.283,arrow_simon_punish,2021.1.2,Win32,61.04260774,,,,,,,,,,,,,,w,1,1.4829,1.55573173,0,1,9,1,37,2,1,,,,,,,,,,,,,,
,,,,,,,,,,,right.png,,p,right,616b412ca506c4160a608a4a,2021-10-21_07h59.25.283,arrow_simon_punish,2021.1.2,Win32,61.04260774,,,,,,,,,,,,,,p,1,1.4309,1.702398091,0,1,9,2,38,1,1,,,,,,,,,,,,,,
,,,,,,,,,,,left.png,,w,left,616b412ca506c4160a608a4a,2021-10-21_07h59.25.283,arrow_simon_punish,2021.1.2,Win32,61.04260774,,,,,,,,,,,,,,w,1,1.8303,2.436561103,1,1,9,3,39,2,1,,,,,,,,,,,,,,
,,,,,,,,,,,left.png,,w,right,616b412ca506c4160a608a4a,2021-10-21_07h59.25.283,arrow_simon_punish,2021.1.2,Win32,61.04260774,,,,,,,,,,,,,,w,1,1.4678,1.655880631,0,1,10,0,40,3,1,,,,,,,,,,,,,,
,,,,,,,,,,,right.png,,p,left,616b412ca506c4160a608a4a,2021-10-21_07h59.25.283,arrow_simon_punish,2021.1.2,Win32,61.04260774,,,,,,,,,,,,,,p,1,1.5854,1.804865076,0,1,10,1,41,0,1,,,,,,,,,,,,,,
,,,,,,,,,,,left.png,,w,left,616b412ca506c4160a608a4a,2021-10-21_07h59.25.283,arrow_simon_punish,2021.1.2,Win32,61.04260774,,,,,,,,,,,,,,w,1,1.6333,2.26921152,1,1,10,2,42,2,1,,,,,,,,,,,,,,
,,,,,,,,,,,left.png,,w,left,616b412ca506c4160a608a4a,2021-10-21_07h59.25.283,arrow_simon_punish,2021.1.2,Win32,61.04260774,,,,,,,,,,,,,,w,1,1.4388,2.311930802,0,1,10,3,43,2,1,,,,,,,,,,,,,,
,,,,,,,,,,,left.png,,w,left,616b412ca506c4160a608a4a,2021-10-21_07h59.25.283,arrow_simon_punish,2021.1.2,Win32,61.04260774,,,,,,,,,,,,,,w,1,1.4533,1.947808872,0,1,11,0,44,2,1,,,,,,,,,,,,,,
,,,,,,,,,,,right.png,,p,right,616b412ca506c4160a608a4a,2021-10-21_07h59.25.283,arrow_simon_punish,2021.1.2,Win32,61.04260774,,,,,,,,,,,,,,p,1,1.515,2.244533629,0,1,11,1,45,1,1,,,,,,,,,,,,,,
,,,,,,,,,,,right.png,,p,left,616b412ca506c4160a608a4a,2021-10-21_07h59.25.283,arrow_simon_punish,2021.1.2,Win32,61.04260774,,,,,,,,,,,,,,p,1,1.5574,1.944944509,0,1,11,2,46,0,1,,,,,,,,,,,,,,
,,,,,,,,,,,right.png,,p,right,616b412ca506c4160a608a4a,2021-10-21_07h59.25.283,arrow_simon_punish,2021.1.2,Win32,61.04260774,,,,,,,,,,,,,,p,1,1.5428,2.210456088,0,1,11,3,47,1,1,,,,,,,,,,,,,,
,,,,,,,,,,,left.png,,w,left,616b412ca506c4160a608a4a,2021-10-21_07h59.25.283,arrow_simon_punish,2021.1.2,Win32,61.04260774,,,,,,,,,,,,,,w,1,1.4414,1.993651585,0,1,12,0,48,2,1,,,,,,,,,,,,,,
,,,,,,,,,,,left.png,,w,left,616b412ca506c4160a608a4a,2021-10-21_07h59.25.283,arrow_simon_punish,2021.1.2,Win32,61.04260774,,,,,,,,,,,,,,w,1,1.3748,1.57608724,1,1,12,1,49,2,1,,,,,,,,,,,,,,
,,,,,,,,,,,left.png,,w,right,616b412ca506c4160a608a4a,2021-10-21_07h59.25.283,arrow_simon_punish,2021.1.2,Win32,61.04260774,,,,,,,,,,,,,,w,1,1.6241,2.375758987,1,1,12,2,50,3,1,,,,,,,,,,,,,,
,,,,,,,,,,,right.png,,p,left,616b412ca506c4160a608a4a,2021-10-21_07h59.25.283,arrow_simon_punish,2021.1.2,Win32,61.04260774,,,,,,,,,,,,,,p,1,1.5269,1.977577608,0,1,12,3,51,0,1,,,,,,,,,,,,,,
,,,,,,,,,,,right.png,,p,right,616b412ca506c4160a608a4a,2021-10-21_07h59.25.283,arrow_simon_punish,2021.1.2,Win32,61.04260774,,,,,,,,,,,,,,p,1,1.5207,1.763730608,0,1,13,0,52,1,1,,,,,,,,,,,,,,
,,,,,,,,,,,right.png,,p,left,616b412ca506c4160a608a4a,2021-10-21_07h59.25.283,arrow_simon_punish,2021.1.2,Win32,61.04260774,,,,,,,,,,,,,,p,1,1.5851,1.506932049,0,1,13,1,53,0,1,,,,,,,,,,,,,,
,,,,,,,,,,,left.png,,w,right,616b412ca506c4160a608a4a,2021-10-21_07h59.25.283,arrow_simon_punish,2021.1.2,Win32,61.04260774,,,,,,,,,,,,,,w,1,1.6754,2.206331028,1,1,13,2,54,3,1,,,,,,,,,,,,,,
,,,,,,,,,,,right.png,,p,left,616b412ca506c4160a608a4a,2021-10-21_07h59.25.283,arrow_simon_punish,2021.1.2,Win32,61.04260774,,,,,,,,,,,,,,p,1,1.6719,1.711334993,1,1,13,3,55,0,1,,,,,,,,,,,,,,
,,,,,,,,,,,right.png,,p,right,616b412ca506c4160a608a4a,2021-10-21_07h59.25.283,arrow_simon_punish,2021.1.2,Win32,61.04260774,,,,,,,,,,,,,,p,1,1.6919,2.438441953,1,1,14,0,56,1,1,,,,,,,,,,,,,,
,,,,,,,,,,,right.png,,p,right,616b412ca506c4160a608a4a,2021-10-21_07h59.25.283,arrow_simon_punish,2021.1.2,Win32,61.04260774,,,,,,,,,,,,,,p,1,1.5039,1.841243994,0,1,14,1,57,1,1,,,,,,,,,,,,,,
,,,,,,,,,,,left.png,,w,right,616b412ca506c4160a608a4a,2021-10-21_07h59.25.283,arrow_simon_punish,2021.1.2,Win32,61.04260774,,,,,,,,,,,,,,w,1,1.7309,2.299631289,1,1,14,2,58,3,1,,,,,,,,,,,,,,
,,,,,,,,,,,left.png,,w,left,616b412ca506c4160a608a4a,2021-10-21_07h59.25.283,arrow_simon_punish,2021.1.2,Win32,61.04260774,,,,,,,,,,,,,,w,1,1.4514,2.060523831,0,1,14,3,59,2,1,,,,,,,,,,,,,,
,,,,,,,,,,,,,,,616b412ca506c4160a608a4a,2021-10-21_07h59.25.283,arrow_simon_punish,2021.1.2,Win32,61.04260774,,,,,,,,,,,,,,,,,,,,,,,,,space,13.3446,6,2,0,4,0,1,1,,,,,
,,,,,,,,,,,left.png,,w,right,616b412ca506c4160a608a4a,2021-10-21_07h59.25.283,arrow_simon_punish,2021.1.2,Win32,61.04260774,,,,,,,,,,,,,,w,1,1.071,1.95836603,1,5,0,0,0,3,1,,,,,,,,,,,,,,
,,,,,,,,,,,left.png,,w,left,616b412ca506c4160a608a4a,2021-10-21_07h59.25.283,arrow_simon_punish,2021.1.2,Win32,61.04260774,,,,,,,,,,,,,,w,1,1.7487,1.997264695,1,5,0,1,1,2,1,,,,,,,,,,,,,,
,,,,,,,,,,,left.png,,w,left,616b412ca506c4160a608a4a,2021-10-21_07h59.25.283,arrow_simon_punish,2021.1.2,Win32,61.04260774,,,,,,,,,,,,,,w,1,1.5681,1.810656257,0,5,0,2,2,2,1,,,,,,,,,,,,,,
,,,,,,,,,,,left.png,,w,right,616b412ca506c4160a608a4a,2021-10-21_07h59.25.283,arrow_simon_punish,2021.1.2,Win32,61.04260774,,,,,,,,,,,,,,w,1,1.2953,1.656712923,1,5,0,3,3,3,1,,,,,,,,,,,,,,
,,,,,,,,,,,left.png,,w,left,616b412ca506c4160a608a4a,2021-10-21_07h59.25.283,arrow_simon_punish,2021.1.2,Win32,61.04260774,,,,,,,,,,,,,,w,1,1.4603,1.993366898,0,5,1,0,4,2,1,,,,,,,,,,,,,,
,,,,,,,,,,,right.png,,p,left,616b412ca506c4160a608a4a,2021-10-21_07h59.25.283,arrow_simon_punish,2021.1.2,Win32,61.04260774,,,,,,,,,,,,,,p,1,1.7291,2.286787668,1,5,1,1,5,0,1,,,,,,,,,,,,,,
,,,,,,,,,,,left.png,,w,right,616b412ca506c4160a608a4a,2021-10-21_07h59.25.283,arrow_simon_punish,2021.1.2,Win32,61.04260774,,,,,,,,,,,,,,w,1,1.4277,1.74519321,0,5,1,2,6,3,1,,,,,,,,,,,,,,
,,,,,,,,,,,left.png,,w,right,616b412ca506c4160a608a4a,2021-10-21_07h59.25.283,arrow_simon_punish,2021.1.2,Win32,61.04260774,,,,,,,,,,,,,,w,1,1.4259,1.849160868,0,5,1,3,7,3,1,,,,,,,,,,,,,,
,,,,,,,,,,,right.png,,p,left,616b412ca506c4160a608a4a,2021-10-21_07h59.25.283,arrow_simon_punish,2021.1.2,Win32,61.04260774,,,,,,,,,,,,,,p,1,1.6346,2.201279144,1,5,2,0,8,0,1,,,,,,,,,,,,,,
,,,,,,,,,,,right.png,,p,left,616b412ca506c4160a608a4a,2021-10-21_07h59.25.283,arrow_simon_punish,2021.1.2,Win32,61.04260774,,,,,,,,,,,,,,p,1,1.7511,2.380912855,1,5,2,1,9,0,1,,,,,,,,,,,,,,
,,,,,,,,,,,left.png,,w,left,616b412ca506c4160a608a4a,2021-10-21_07h59.25.283,arrow_simon_punish,2021.1.2,Win32,61.04260774,,,,,,,,,,,,,,w,1,1.3286,1.755292235,1,5,2,2,10,2,1,,,,,,,,,,,,,,
,,,,,,,,,,,left.png,,w,left,616b412ca506c4160a608a4a,2021-10-21_07h59.25.283,arrow_simon_punish,2021.1.2,Win32,61.04260774,,,,,,,,,,,,,,w,1,1.4756,1.930029974,0,5,2,3,11,2,1,,,,,,,,,,,,,,
,,,,,,,,,,,right.png,,p,right,616b412ca506c4160a608a4a,2021-10-21_07h59.25.283,arrow_simon_punish,2021.1.2,Win32,61.04260774,,,,,,,,,,,,,,p,1,1.4561,1.589232416,0,5,3,0,12,1,1,,,,,,,,,,,,,,
,,,,,,,,,,,left.png,,w,right,616b412ca506c4160a608a4a,2021-10-21_07h59.25.283,arrow_simon_punish,2021.1.2,Win32,61.04260774,,,,,,,,,,,,,,w,1,1.8286,2.481964686,1,5,3,1,13,3,1,,,,,,,,,,,,,,
,,,,,,,,,,,left.png,,w,right,616b412ca506c4160a608a4a,2021-10-21_07h59.25.283,arrow_simon_punish,2021.1.2,Win32,61.04260774,,,,,,,,,,,,,,w,1,1.5344,1.787385648,0,5,3,2,14,3,1,,,,,,,,,,,,,,
,,,,,,,,,,,right.png,,p,left,616b412ca506c4160a608a4a,2021-10-21_07h59.25.283,arrow_simon_punish,2021.1.2,Win32,61.04260774,,,,,,,,,,,,,,p,1,1.4622,1.595451204,0,5,3,3,15,0,1,,,,,,,,,,,,,,
,,,,,,,,,,,left.png,,w,right,616b412ca506c4160a608a4a,2021-10-21_07h59.25.283,arrow_simon_punish,2021.1.2,Win32,61.04260774,,,,,,,,,,,,,,w,1,1.6848,2.258334994,1,5,4,0,16,3,1,,,,,,,,,,,,,,
,,,,,,,,,,,left.png,,w,left,616b412ca506c4160a608a4a,2021-10-21_07h59.25.283,arrow_simon_punish,2021.1.2,Win32,61.04260774,,,,,,,,,,,,,,w,1,1.5197,2.432772074,0,5,4,1,17,2,1,,,,,,,,,,,,,,
,,,,,,,,,,,left.png,,w,left,616b412ca506c4160a608a4a,2021-10-21_07h59.25.283,arrow_simon_punish,2021.1.2,Win32,61.04260774,,,,,,,,,,,,,,w,1,1.6179,2.053783247,1,5,4,2,18,2,1,,,,,,,,,,,,,,
,,,,,,,,,,,right.png,,p,right,616b412ca506c4160a608a4a,2021-10-21_07h59.25.283,arrow_simon_punish,2021.1.2,Win32,61.04260774,,,,,,,,,,,,,,p,1,1.6563,2.08783503,1,5,4,3,19,1,1,,,,,,,,,,,,,,
,,,,,,,,,,,right.png,,p,left,616b412ca506c4160a608a4a,2021-10-21_07h59.25.283,arrow_simon_punish,2021.1.2,Win32,61.04260774,,,,,,,,,,,,,,p,1,1.5184,2.203002629,0,5,5,0,20,0,1,,,,,,,,,,,,,,
,,,,,,,,,,,right.png,,p,right,616b412ca506c4160a608a4a,2021-10-21_07h59.25.283,arrow_simon_punish,2021.1.2,Win32,61.04260774,,,,,,,,,,,,,,p,1,1.4874,1.723826861,0,5,5,1,21,1,1,,,,,,,,,,,,,,
,,,,,,,,,,,left.png,,w,right,616b412ca506c4160a608a4a,2021-10-21_07h59.25.283,arrow_simon_punish,2021.1.2,Win32,61.04260774,,,,,,,,,,,,,,w,1,1.4439,2.429871322,0,5,5,2,22,3,1,,,,,,,,,,,,,,
,,,,,,,,,,,right.png,,p,left,616b412ca506c4160a608a4a,2021-10-21_07h59.25.283,arrow_simon_punish,2021.1.2,Win32,61.04260774,,,,,,,,,,,,,,p,1,1.4983,1.511284347,0,5,5,3,23,0,1,,,,,,,,,,,,,,
,,,,,,,,,,,left.png,,w,right,616b412ca506c4160a608a4a,2021-10-21_07h59.25.283,arrow_simon_punish,2021.1.2,Win32,61.04260774,,,,,,,,,,,,,,w,1,1.5826,2.173684222,0,5,6,0,24,3,1,,,,,,,,,,,,,,
,,,,,,,,,,,right.png,,p,right,616b412ca506c4160a608a4a,2021-10-21_07h59.25.283,arrow_simon_punish,2021.1.2,Win32,61.04260774,,,,,,,,,,,,,,p,1,1.585,2.108237973,0,5,6,1,25,1,1,,,,,,,,,,,,,,
,,,,,,,,,,,right.png,,p,right,616b412ca506c4160a608a4a,2021-10-21_07h59.25.283,arrow_simon_punish,2021.1.2,Win32,61.04260774,,,,,,,,,,,,,,p,1,1.695,1.593290919,1,5,6,2,26,1,1,,,,,,,,,,,,,,
,,,,,,,,,,,right.png,,p,left,616b412ca506c4160a608a4a,2021-10-21_07h59.25.283,arrow_simon_punish,2021.1.2,Win32,61.04260774,,,,,,,,,,,,,,p,1,1.5783,1.76605098,0,5,6,3,27,0,1,,,,,,,,,,,,,,
,,,,,,,,,,,right.png,,p,right,616b412ca506c4160a608a4a,2021-10-21_07h59.25.283,arrow_simon_punish,2021.1.2,Win32,61.04260774,,,,,,,,,,,,,,p,1,1.7469,1.787233946,1,5,7,0,28,1,1,,,,,,,,,,,,,,
,,,,,,,,,,,left.png,,w,left,616b412ca506c4160a608a4a,2021-10-21_07h59.25.283,arrow_simon_punish,2021.1.2,Win32,61.04260774,,,,,,,,,,,,,,w,1,1.4606,2.461635543,0,5,7,1,29,2,1,,,,,,,,,,,,,,
,,,,,,,,,,,left.png,,w,right,616b412ca506c4160a608a4a,2021-10-21_07h59.25.283,arrow_simon_punish,2021.1.2,Win32,61.04260774,,,,,,,,,,,,,,w,1,2.0024,2.308923781,1,5,7,2,30,3,1,,,,,,,,,,,,,,
,,,,,,,,,,,left.png,,w,left,616b412ca506c4160a608a4a,2021-10-21_07h59.25.283,arrow_simon_punish,2021.1.2,Win32,61.04260774,,,,,,,,,,,,,,w,1,1.3369,1.612161879,1,5,7,3,31,2,1,,,,,,,,,,,,,,
,,,,,,,,,,,left.png,,w,left,616b412ca506c4160a608a4a,2021-10-21_07h59.25.283,arrow_simon_punish,2021.1.2,Win32,61.04260774,,,,,,,,,,,,,,w,1,1.4272,1.871439298,0,5,8,0,32,2,1,,,,,,,,,,,,,,
,,,,,,,,,,,left.png,,w,left,616b412ca506c4160a608a4a,2021-10-21_07h59.25.283,arrow_simon_punish,2021.1.2,Win32,61.04260774,,,,,,,,,,,,,,w,1,1.4255,1.604048914,0,5,8,1,33,2,1,,,,,,,,,,,,,,
,,,,,,,,,,,left.png,,w,right,616b412ca506c4160a608a4a,2021-10-21_07h59.25.283,arrow_simon_punish,2021.1.2,Win32,61.04260774,,,,,,,,,,,,,,w,1,1.4401,2.254814428,0,5,8,2,34,3,1,,,,,,,,,,,,,,
,,,,,,,,,,,left.png,,w,left,616b412ca506c4160a608a4a,2021-10-21_07h59.25.283,arrow_simon_punish,2021.1.2,Win32,61.04260774,,,,,,,,,,,,,,w,1,1.3827,1.653356288,1,5,8,3,35,2,1,,,,,,,,,,,,,,
,,,,,,,,,,,right.png,,p,right,616b412ca506c4160a608a4a,2021-10-21_07h59.25.283,arrow_simon_punish,2021.1.2,Win32,61.04260774,,,,,,,,,,,,,,p,1,1.415,1.737457878,0,5,9,0,36,1,1,,,,,,,,,,,,,,
,,,,,,,,,,,right.png,,p,right,616b412ca506c4160a608a4a,2021-10-21_07h59.25.283,arrow_simon_punish,2021.1.2,Win32,61.04260774,,,,,,,,,,,,,,p,1,1.4627,2.06893662,0,5,9,1,37,1,1,,,,,,,,,,,,,,
,,,,,,,,,,,right.png,,p,left,616b412ca506c4160a608a4a,2021-10-21_07h59.25.283,arrow_simon_punish,2021.1.2,Win32,61.04260774,,,,,,,,,,,,,,p,1,1.5639,2.184887214,0,5,9,2,38,0,1,,,,,,,,,,,,,,
,,,,,,,,,,,left.png,,w,left,616b412ca506c4160a608a4a,2021-10-21_07h59.25.283,arrow_simon_punish,2021.1.2,Win32,61.04260774,,,,,,,,,,,,,,w,1,1.7023,2.323605587,1,5,9,3,39,2,1,,,,,,,,,,,,,,
,,,,,,,,,,,right.png,,p,left,616b412ca506c4160a608a4a,2021-10-21_07h59.25.283,arrow_simon_punish,2021.1.2,Win32,61.04260774,,,,,,,,,,,,,,p,1,1.4721,2.137055416,0,5,10,0,40,0,1,,,,,,,,,,,,,,
,,,,,,,,,,,right.png,,p,right,616b412ca506c4160a608a4a,2021-10-21_07h59.25.283,arrow_simon_punish,2021.1.2,Win32,61.04260774,,,,,,,,,,,,,,p,1,1.4185,1.816648269,0,5,10,1,41,1,1,,,,,,,,,,,,,,
,,,,,,,,,,,left.png,,w,left,616b412ca506c4160a608a4a,2021-10-21_07h59.25.283,arrow_simon_punish,2021.1.2,Win32,61.04260774,,,,,,,,,,,,,,w,1,1.4199,2.496856443,0,5,10,2,42,2,1,,,,,,,,,,,,,,
,,,,,,,,,,,left.png,,w,right,616b412ca506c4160a608a4a,2021-10-21_07h59.25.283,arrow_simon_punish,2021.1.2,Win32,61.04260774,,,,,,,,,,,,,,w,1,1.4268,1.576696151,0,5,10,3,43,3,1,,,,,,,,,,,,,,
,,,,,,,,,,,right.png,,p,left,616b412ca506c4160a608a4a,2021-10-21_07h59.25.283,arrow_simon_punish,2021.1.2,Win32,61.04260774,,,,,,,,,,,,,,p,1,1.5615,2.301668692,0,5,11,0,44,0,1,,,,,,,,,,,,,,
,,,,,,,,,,,right.png,,p,right,616b412ca506c4160a608a4a,2021-10-21_07h59.25.283,arrow_simon_punish,2021.1.2,Win32,61.04260774,,,,,,,,,,,,,,p,1,1.9465,1.842862827,1,5,11,1,45,1,1,,,,,,,,,,,,,,
,,,,,,,,,,,right.png,,p,right,616b412ca506c4160a608a4a,2021-10-21_07h59.25.283,arrow_simon_punish,2021.1.2,Win32,61.04260774,,,,,,,,,,,,,,p,1,1.54,2.24884643,0,5,11,2,46,1,1,,,,,,,,,,,,,,
,,,,,,,,,,,right.png,,p,left,616b412ca506c4160a608a4a,2021-10-21_07h59.25.283,arrow_simon_punish,2021.1.2,Win32,61.04260774,,,,,,,,,,,,,,p,1,1.5415,2.288990999,0,5,11,3,47,0,1,,,,,,,,,,,,,,
,,,,,,,,,,,right.png,,p,left,616b412ca506c4160a608a4a,2021-10-21_07h59.25.283,arrow_simon_punish,2021.1.2,Win32,61.04260774,,,,,,,,,,,,,,p,1,1.3523,1.785226375,1,5,12,0,48,0,1,,,,,,,,,,,,,,
,,,,,,,,,,,right.png,,p,left,616b412ca506c4160a608a4a,2021-10-21_07h59.25.283,arrow_simon_punish,2021.1.2,Win32,61.04260774,,,,,,,,,,,,,,p,1,1.351,1.871408562,1,5,12,1,49,0,1,,,,,,,,,,,,,,
,,,,,,,,,,,right.png,,p,right,616b412ca506c4160a608a4a,2021-10-21_07h59.25.283,arrow_simon_punish,2021.1.2,Win32,61.04260774,,,,,,,,,,,,,,p,1,1.4908,2.206354027,0,5,12,2,50,1,1,,,,,,,,,,,,,,
,,,,,,,,,,,right.png,,p,right,616b412ca506c4160a608a4a,2021-10-21_07h59.25.283,arrow_simon_punish,2021.1.2,Win32,61.04260774,,,,,,,,,,,,,,p,1,1.3591,1.67138796,1,5,12,3,51,1,1,,,,,,,,,,,,,,
,,,,,,,,,,,right.png,,p,right,616b412ca506c4160a608a4a,2021-10-21_07h59.25.283,arrow_simon_punish,2021.1.2,Win32,61.04260774,,,,,,,,,,,,,,p,1,1.4321,2.120379014,0,5,13,0,52,1,1,,,,,,,,,,,,,,
,,,,,,,,,,,left.png,,w,left,616b412ca506c4160a608a4a,2021-10-21_07h59.25.283,arrow_simon_punish,2021.1.2,Win32,61.04260774,,,,,,,,,,,,,,w,1,1.2779,1.54459922,1,5,13,1,53,2,1,,,,,,,,,,,,,,
,,,,,,,,,,,left.png,,w,right,616b412ca506c4160a608a4a,2021-10-21_07h59.25.283,arrow_simon_punish,2021.1.2,Win32,61.04260774,,,,,,,,,,,,,,w,1,1.5796,2.159933459,0,5,13,2,54,3,1,,,,,,,,,,,,,,
,,,,,,,,,,,left.png,,w,right,616b412ca506c4160a608a4a,2021-10-21_07h59.25.283,arrow_simon_punish,2021.1.2,Win32,61.04260774,,,,,,,,,,,,,,w,1,1.469,1.778990427,0,5,13,3,55,3,1,,,,,,,,,,,,,,
,,,,,,,,,,,left.png,,w,right,616b412ca506c4160a608a4a,2021-10-21_07h59.25.283,arrow_simon_punish,2021.1.2,Win32,61.04260774,,,,,,,,,,,,,,w,1,1.3052,1.694089644,1,5,14,0,56,3,1,,,,,,,,,,,,,,
,,,,,,,,,,,right.png,,p,left,616b412ca506c4160a608a4a,2021-10-21_07h59.25.283,arrow_simon_punish,2021.1.2,Win32,61.04260774,,,,,,,,,,,,,,p,1,1.6287,2.426793668,1,5,14,1,57,0,1,,,,,,,,,,,,,,
,,,,,,,,,,,right.png,,p,right,616b412ca506c4160a608a4a,2021-10-21_07h59.25.283,arrow_simon_punish,2021.1.2,Win32,61.04260774,,,,,,,,,,,,,,p,1,1.6194,2.337359855,1,5,14,2,58,1,1,,,,,,,,,,,,,,
,,,,,,,,,,,right.png,,p,left,616b412ca506c4160a608a4a,2021-10-21_07h59.25.283,arrow_simon_punish,2021.1.2,Win32,61.04260774,,,,,,,,,,,,,,p,1,1.6505,2.423171262,1,5,14,3,59,0,1,,,,,,,,,,,,,,
,,,,,,,,,,,,,,,616b412ca506c4160a608a4a,2021-10-21_07h59.25.283,arrow_simon_punish,2021.1.2,Win32,61.04260774,,,,,,,,,,,,,,,,,,,,,,,,,space,52.2368,7,2,1,5,1,1,5,,,,,
,,,,,,,,,,,left.png,,w,left,616b412ca506c4160a608a4a,2021-10-21_07h59.25.283,arrow_simon_punish,2021.1.2,Win32,61.04260774,,,,,,,,,,,,,,w,1,1.3473,1.810371431,1,1,0,0,0,2,1,,,,,,,,,,,,,,
,,,,,,,,,,,left.png,,w,left,616b412ca506c4160a608a4a,2021-10-21_07h59.25.283,arrow_simon_punish,2021.1.2,Win32,61.04260774,,,,,,,,,,,,,,w,1,1.397,1.542725192,1,1,0,1,1,2,1,,,,,,,,,,,,,,
,,,,,,,,,,,left.png,,w,left,616b412ca506c4160a608a4a,2021-10-21_07h59.25.283,arrow_simon_punish,2021.1.2,Win32,61.04260774,,,,,,,,,,,,,,w,1,1.5095,1.783714229,0,1,0,2,2,2,1,,,,,,,,,,,,,,
,,,,,,,,,,,right.png,,p,right,616b412ca506c4160a608a4a,2021-10-21_07h59.25.283,arrow_simon_punish,2021.1.2,Win32,61.04260774,,,,,,,,,,,,,,p,1,1.5204,2.017381883,0,1,0,3,3,1,1,,,,,,,,,,,,,,
,,,,,,,,,,,left.png,,w,right,616b412ca506c4160a608a4a,2021-10-21_07h59.25.283,arrow_simon_punish,2021.1.2,Win32,61.04260774,,,,,,,,,,,,,,w,1,1.4829,2.119147249,0,1,1,0,4,3,1,,,,,,,,,,,,,,
,,,,,,,,,,,right.png,,p,left,616b412ca506c4160a608a4a,2021-10-21_07h59.25.283,arrow_simon_punish,2021.1.2,Win32,61.04260774,,,,,,,,,,,,,,p,1,1.4236,1.641560536,0,1,1,1,5,0,1,,,,,,,,,,,,,,
,,,,,,,,,,,left.png,,w,right,616b412ca506c4160a608a4a,2021-10-21_07h59.25.283,arrow_simon_punish,2021.1.2,Win32,61.04260774,,,,,,,,,,,,,,w,1,1.5098,1.597269878,0,1,1,2,6,3,1,,,,,,,,,,,,,,
,,,,,,,,,,,right.png,,p,left,616b412ca506c4160a608a4a,2021-10-21_07h59.25.283,arrow_simon_punish,2021.1.2,Win32,61.04260774,,,,,,,,,,,,,,p,1,1.4818,2.218591295,0,1,1,3,7,0,1,,,,,,,,,,,,,,
,,,,,,,,,,,right.png,,p,left,616b412ca506c4160a608a4a,2021-10-21_07h59.25.283,arrow_simon_punish,2021.1.2,Win32,61.04260774,,,,,,,,,,,,,,p,1,1.5735,2.039741228,0,1,2,0,8,0,1,,,,,,,,,,,,,,
,,,,,,,,,,,left.png,,w,right,616b412ca506c4160a608a4a,2021-10-21_07h59.25.283,arrow_simon_punish,2021.1.2,Win32,61.04260774,,,,,,,,,,,,,,w,1,1.3899,1.614921294,1,1,2,1,9,3,1,,,,,,,,,,,,,,
,,,,,,,,,,,right.png,,p,right,616b412ca506c4160a608a4a,2021-10-21_07h59.25.283,arrow_simon_punish,2021.1.2,Win32,61.04260774,,,,,,,,,,,,,,p,1,1.5743,2.05427138,0,1,2,2,10,1,1,,,,,,,,,,,,,,
,,,,,,,,,,,right.png,,p,right,616b412ca506c4160a608a4a,2021-10-21_07h59.25.283,arrow_simon_punish,2021.1.2,Win32,61.04260774,,,,,,,,,,,,,,p,1,1.5351,2.200190351,0,1,2,3,11,1,1,,,,,,,,,,,,,,
,,,,,,,,,,,left.png,,w,right,616b412ca506c4160a608a4a,2021-10-21_07h59.25.283,arrow_simon_punish,2021.1.2,Win32,61.04260774,,,,,,,,,,,,,,w,1,1.433,2.000666309,0,1,3,0,12,3,1,,,,,,,,,,,,,,
,,,,,,,,,,,right.png,,p,right,616b412ca506c4160a608a4a,2021-10-21_07h59.25.283,arrow_simon_punish,2021.1.2,Win32,61.04260774,,,,,,,,,,,,,,p,1,1.4849,1.528624066,0,1,3,1,13,1,1,,,,,,,,,,,,,,
,,,,,,,,,,,left.png,,w,right,616b412ca506c4160a608a4a,2021-10-21_07h59.25.283,arrow_simon_punish,2021.1.2,Win32,61.04260774,,,,,,,,,,,,,,w,1,1.4682,2.143806781,0,1,3,2,14,3,1,,,,,,,,,,,,,,
,,,,,,,,,,,left.png,,w,left,616b412ca506c4160a608a4a,2021-10-21_07h59.25.283,arrow_simon_punish,2021.1.2,Win32,61.04260774,,,,,,,,,,,,,,w,1,1.5848,2.440061439,0,1,3,3,15,2,1,,,,,,,,,,,,,,
,,,,,,,,,,,left.png,,w,left,616b412ca506c4160a608a4a,2021-10-21_07h59.25.283,arrow_simon_punish,2021.1.2,Win32,61.04260774,,,,,,,,,,,,,,w,1,1.4891,2.144880013,0,1,4,0,16,2,1,,,,,,,,,,,,,,
,,,,,,,,,,,left.png,,w,left,616b412ca506c4160a608a4a,2021-10-21_07h59.25.283,arrow_simon_punish,2021.1.2,Win32,61.04260774,,,,,,,,,,,,,,w,1,1.3178,1.721303563,1,1,4,1,17,2,1,,,,,,,,,,,,,,
,,,,,,,,,,,left.png,,w,right,616b412ca506c4160a608a4a,2021-10-21_07h59.25.283,arrow_simon_punish,2021.1.2,Win32,61.04260774,,,,,,,,,,,,,,w,1,1.3688,1.583946348,1,1,4,2,18,3,1,,,,,,,,,,,,,,
,,,,,,,,,,,right.png,,p,left,616b412ca506c4160a608a4a,2021-10-21_07h59.25.283,arrow_simon_punish,2021.1.2,Win32,61.04260774,,,,,,,,,,,,,,p,1,1.6238,2.479924206,1,1,4,3,19,0,1,,,,,,,,,,,,,,
,,,,,,,,,,,left.png,,w,left,616b412ca506c4160a608a4a,2021-10-21_07h59.25.283,arrow_simon_punish,2021.1.2,Win32,61.04260774,,,,,,,,,,,,,,w,1,1.3675,2.134357231,1,1,5,0,20,2,1,,,,,,,,,,,,,,
,,,,,,,,,,,left.png,,w,left,616b412ca506c4160a608a4a,2021-10-21_07h59.25.283,arrow_simon_punish,2021.1.2,Win32,61.04260774,,,,,,,,,,,,,,w,1,1.5604,2.318933852,0,1,5,1,21,2,1,,,,,,,,,,,,,,
,,,,,,,,,,,left.png,,w,left,616b412ca506c4160a608a4a,2021-10-21_07h59.25.283,arrow_simon_punish,2021.1.2,Win32,61.04260774,,,,,,,,,,,,,,w,1,1.4017,1.894587563,0,1,5,2,22,2,1,,,,,,,,,,,,,,
,,,,,,,,,,,right.png,,p,right,616b412ca506c4160a608a4a,2021-10-21_07h59.25.283,arrow_simon_punish,2021.1.2,Win32,61.04260774,,,,,,,,,,,,,,p,1,1.3846,1.658846265,1,1,5,3,23,1,1,,,,,,,,,,,,,,
,,,,,,,,,,,right.png,,p,left,616b412ca506c4160a608a4a,2021-10-21_07h59.25.283,arrow_simon_punish,2021.1.2,Win32,61.04260774,,,,,,,,,,,,,,p,1,1.5671,2.226780827,0,1,6,0,24,0,1,,,,,,,,,,,,,,
,,,,,,,,,,,left.png,,w,right,616b412ca506c4160a608a4a,2021-10-21_07h59.25.283,arrow_simon_punish,2021.1.2,Win32,61.04260774,,,,,,,,,,,,,,w,1,1.6242,2.282423521,1,1,6,1,25,3,1,,,,,,,,,,,,,,
,,,,,,,,,,,right.png,,p,right,616b412ca506c4160a608a4a,2021-10-21_07h59.25.283,arrow_simon_punish,2021.1.2,Win32,61.04260774,,,,,,,,,,,,,,p,1,1.5191,2.350680511,0,1,6,2,26,1,1,,,,,,,,,,,,,,
,,,,,,,,,,,left.png,,w,left,616b412ca506c4160a608a4a,2021-10-21_07h59.25.283,arrow_simon_punish,2021.1.2,Win32,61.04260774,,,,,,,,,,,,,,w,1,1.497,2.22227164,0,1,6,3,27,2,1,,,,,,,,,,,,,,
,,,,,,,,,,,left.png,,w,right,616b412ca506c4160a608a4a,2021-10-21_07h59.25.283,arrow_simon_punish,2021.1.2,Win32,61.04260774,,,,,,,,,,,,,,w,1,1.5321,2.488274655,0,1,7,0,28,3,1,,,,,,,,,,,,,,
,,,,,,,,,,,right.png,,p,right,616b412ca506c4160a608a4a,2021-10-21_07h59.25.283,arrow_simon_punish,2021.1.2,Win32,61.04260774,,,,,,,,,,,,,,p,1,1.519,2.272592324,0,1,7,1,29,1,1,,,,,,,,,,,,,,
,,,,,,,,,,,left.png,,w,right,616b412ca506c4160a608a4a,2021-10-21_07h59.25.283,arrow_simon_punish,2021.1.2,Win32,61.04260774,,,,,,,,,,,,,,w,1,1.4266,1.939774459,0,1,7,2,30,3,1,,,,,,,,,,,,,,
,,,,,,,,,,,right.png,,p,right,616b412ca506c4160a608a4a,2021-10-21_07h59.25.283,arrow_simon_punish,2021.1.2,Win32,61.04260774,,,,,,,,,,,,,,p,1,1.5292,2.306917263,0,1,7,3,31,1,1,,,,,,,,,,,,,,
,,,,,,,,,,,right.png,,p,right,616b412ca506c4160a608a4a,2021-10-21_07h59.25.283,arrow_simon_punish,2021.1.2,Win32,61.04260774,,,,,,,,,,,,,,p,1,1.556,1.66652654,0,1,8,0,32,1,1,,,,,,,,,,,,,,
,,,,,,,,,,,right.png,,p,left,616b412ca506c4160a608a4a,2021-10-21_07h59.25.283,arrow_simon_punish,2021.1.2,Win32,61.04260774,,,,,,,,,,,,,,p,1,1.4858,2.247351477,0,1,8,1,33,0,1,,,,,,,,,,,,,,
,,,,,,,,,,,left.png,,w,right,616b412ca506c4160a608a4a,2021-10-21_07h59.25.283,arrow_simon_punish,2021.1.2,Win32,61.04260774,,,,,,,,,,,,,,w,1,1.3445,1.728290422,1,1,8,2,34,3,1,,,,,,,,,,,,,,
,,,,,,,,,,,right.png,,p,left,616b412ca506c4160a608a4a,2021-10-21_07h59.25.283,arrow_simon_punish,2021.1.2,Win32,61.04260774,,,,,,,,,,,,,,p,1,1.459,1.579242898,0,1,8,3,35,0,1,,,,,,,,,,,,,,
,,,,,,,,,,,left.png,,w,right,616b412ca506c4160a608a4a,2021-10-21_07h59.25.283,arrow_simon_punish,2021.1.2,Win32,61.04260774,,,,,,,,,,,,,,w,1,1.4843,2.144702455,0,1,9,0,36,3,1,,,,,,,,,,,,,,
,,,,,,,,,,,left.png,,w,left,616b412ca506c4160a608a4a,2021-10-21_07h59.25.283,arrow_simon_punish,2021.1.2,Win32,61.04260774,,,,,,,,,,,,,,w,1,1.4526,1.567004668,0,1,9,1,37,2,1,,,,,,,,,,,,,,
,,,,,,,,,,,left.png,,w,left,616b412ca506c4160a608a4a,2021-10-21_07h59.25.283,arrow_simon_punish,2021.1.2,Win32,61.04260774,,,,,,,,,,,,,,w,1,1.5944,2.42767196,0,1,9,2,38,2,1,,,,,,,,,,,,,,
,,,,,,,,,,,right.png,,p,left,616b412ca506c4160a608a4a,2021-10-21_07h59.25.283,arrow_simon_punish,2021.1.2,Win32,61.04260774,,,,,,,,,,,,,,p,1,1.7686,1.964419176,1,1,9,3,39,0,1,,,,,,,,,,,,,,
,,,,,,,,,,,left.png,,w,right,616b412ca506c4160a608a4a,2021-10-21_07h59.25.283,arrow_simon_punish,2021.1.2,Win32,61.04260774,,,,,,,,,,,,,,w,1,1.522,1.692781395,0,1,10,0,40,3,1,,,,,,,,,,,,,,
,,,,,,,,,,,right.png,,p,right,616b412ca506c4160a608a4a,2021-10-21_07h59.25.283,arrow_simon_punish,2021.1.2,Win32,61.04260774,,,,,,,,,,,,,,p,1,1.4764,2.204794413,0,1,10,1,41,1,1,,,,,,,,,,,,,,
,,,,,,,,,,,right.png,,p,right,616b412ca506c4160a608a4a,2021-10-21_07h59.25.283,arrow_simon_punish,2021.1.2,Win32,61.04260774,,,,,,,,,,,,,,p,1,1.4963,1.77837362,0,1,10,2,42,1,1,,,,,,,,,,,,,,
,,,,,,,,,,,right.png,,p,left,616b412ca506c4160a608a4a,2021-10-21_07h59.25.283,arrow_simon_punish,2021.1.2,Win32,61.04260774,,,,,,,,,,,,,,p,1,1.5728,1.533680386,0,1,10,3,43,0,1,,,,,,,,,,,,,,
,,,,,,,,,,,left.png,,w,right,616b412ca506c4160a608a4a,2021-10-21_07h59.25.283,arrow_simon_punish,2021.1.2,Win32,61.04260774,,,,,,,,,,,,,,w,1,1.5092,1.917504277,0,1,11,0,44,3,1,,,,,,,,,,,,,,
,,,,,,,,,,,right.png,,p,left,616b412ca506c4160a608a4a,2021-10-21_07h59.25.283,arrow_simon_punish,2021.1.2,Win32,61.04260774,,,,,,,,,,,,,,p,1,1.4087,1.971446183,0,1,11,1,45,0,1,,,,,,,,,,,,,,
,,,,,,,,,,,left.png,,w,left,616b412ca506c4160a608a4a,2021-10-21_07h59.25.283,arrow_simon_punish,2021.1.2,Win32,61.04260774,,,,,,,,,,,,,,w,1,1.5606,1.590214854,0,1,11,2,46,2,1,,,,,,,,,,,,,,
,,,,,,,,,,,right.png,,p,left,616b412ca506c4160a608a4a,2021-10-21_07h59.25.283,arrow_simon_punish,2021.1.2,Win32,61.04260774,,,,,,,,,,,,,,p,1,1.4415,2.20177824,0,1,11,3,47,0,1,,,,,,,,,,,,,,
,,,,,,,,,,,left.png,,w,left,616b412ca506c4160a608a4a,2021-10-21_07h59.25.283,arrow_simon_punish,2021.1.2,Win32,61.04260774,,,,,,,,,,,,,,w,1,1.5426,1.77603367,0,1,12,0,48,2,1,,,,,,,,,,,,,,
,,,,,,,,,,,right.png,,p,right,616b412ca506c4160a608a4a,2021-10-21_07h59.25.283,arrow_simon_punish,2021.1.2,Win32,61.04260774,,,,,,,,,,,,,,p,1,1.385,1.720184352,1,1,12,1,49,1,1,,,,,,,,,,,,,,
,,,,,,,,,,,left.png,,w,right,616b412ca506c4160a608a4a,2021-10-21_07h59.25.283,arrow_simon_punish,2021.1.2,Win32,61.04260774,,,,,,,,,,,,,,w,1,1.5291,1.844660754,0,1,12,2,50,3,1,,,,,,,,,,,,,,
,,,,,,,,,,,right.png,,p,right,616b412ca506c4160a608a4a,2021-10-21_07h59.25.283,arrow_simon_punish,2021.1.2,Win32,61.04260774,,,,,,,,,,,,,,p,1,1.7013,2.339422952,1,1,12,3,51,1,1,,,,,,,,,,,,,,
,,,,,,,,,,,right.png,,p,left,616b412ca506c4160a608a4a,2021-10-21_07h59.25.283,arrow_simon_punish,2021.1.2,Win32,61.04260774,,,,,,,,,,,,,,p,1,1.8227,2.334765508,1,1,13,0,52,0,1,,,,,,,,,,,,,,
,,,,,,,,,,,right.png,,p,left,616b412ca506c4160a608a4a,2021-10-21_07h59.25.283,arrow_simon_punish,2021.1.2,Win32,61.04260774,,,,,,,,,,,,,,p,1,1.5347,1.910662049,0,1,13,1,53,0,1,,,,,,,,,,,,,,
,,,,,,,,,,,right.png,,p,right,616b412ca506c4160a608a4a,2021-10-21_07h59.25.283,arrow_simon_punish,2021.1.2,Win32,61.04260774,,,,,,,,,,,,,,p,1,1.6308,2.000738172,1,1,13,2,54,1,1,,,,,,,,,,,,,,
,,,,,,,,,,,right.png,,p,left,616b412ca506c4160a608a4a,2021-10-21_07h59.25.283,arrow_simon_punish,2021.1.2,Win32,61.04260774,,,,,,,,,,,,,,p,1,1.5987,2.349222164,0,1,13,3,55,0,1,,,,,,,,,,,,,,
,,,,,,,,,,,right.png,,p,left,616b412ca506c4160a608a4a,2021-10-21_07h59.25.283,arrow_simon_punish,2021.1.2,Win32,61.04260774,,,,,,,,,,,,,,p,1,1.3896,1.87537896,1,1,14,0,56,0,1,,,,,,,,,,,,,,
,,,,,,,,,,,left.png,,w,left,616b412ca506c4160a608a4a,2021-10-21_07h59.25.283,arrow_simon_punish,2021.1.2,Win32,61.04260774,,,,,,,,,,,,,,w,1,1.502,1.662315775,0,1,14,1,57,2,1,,,,,,,,,,,,,,
,,,,,,,,,,,left.png,,w,right,616b412ca506c4160a608a4a,2021-10-21_07h59.25.283,arrow_simon_punish,2021.1.2,Win32,61.04260774,,,,,,,,,,,,,,w,1,1.7202,2.287839676,1,1,14,2,58,3,1,,,,,,,,,,,,,,
,,,,,,,,,,,right.png,,p,right,616b412ca506c4160a608a4a,2021-10-21_07h59.25.283,arrow_simon_punish,2021.1.2,Win32,61.04260774,,,,,,,,,,,,,,p,1,2.0426,1.948574859,1,1,14,3,59,1,1,,,,,,,,,,,,,,
,,,,,,,,,,,,,,,616b412ca506c4160a608a4a,2021-10-21_07h59.25.283,arrow_simon_punish,2021.1.2,Win32,61.04260774,,,,,,,,,,,,,,,,,,,,,,,,,space,87.4534,8,3,0,6,0,1,1,,,,,
,,,,,,,,,,,left.png,,w,left,616b412ca506c4160a608a4a,2021-10-21_07h59.25.283,arrow_simon_punish,2021.1.2,Win32,61.04260774,,,,,,,,,,,,,,w,1,1.432,2.30569664,0,5,0,0,0,2,1,,,,,,,,,,,,,,
,,,,,,,,,,,right.png,,p,left,616b412ca506c4160a608a4a,2021-10-21_07h59.25.283,arrow_simon_punish,2021.1.2,Win32,61.04260774,,,,,,,,,,,,,,p,1,1.4632,2.275842287,0,5,0,1,1,0,1,,,,,,,,,,,,,,
,,,,,,,,,,,right.png,,p,left,616b412ca506c4160a608a4a,2021-10-21_07h59.25.283,arrow_simon_punish,2021.1.2,Win32,61.04260774,,,,,,,,,,,,,,p,1,1.3842,1.959148144,1,5,0,2,2,0,1,,,,,,,,,,,,,,
,,,,,,,,,,,left.png,,w,left,616b412ca506c4160a608a4a,2021-10-21_07h59.25.283,arrow_simon_punish,2021.1.2,Win32,61.04260774,,,,,,,,,,,,,,w,1,1.564,2.269443147,0,5,0,3,3,2,1,,,,,,,,,,,,,,
,,,,,,,,,,,right.png,,p,right,616b412ca506c4160a608a4a,2021-10-21_07h59.25.283,arrow_simon_punish,2021.1.2,Win32,61.04260774,,,,,,,,,,,,,,p,1,1.7178,2.499272923,1,5,1,0,4,1,1,,,,,,,,,,,,,,
,,,,,,,,,,,right.png,,p,right,616b412ca506c4160a608a4a,2021-10-21_07h59.25.283,arrow_simon_punish,2021.1.2,Win32,61.04260774,,,,,,,,,,,,,,p,1,1.5692,1.63670674,0,5,1,1,5,1,1,,,,,,,,,,,,,,
,,,,,,,,,,,left.png,,w,right,616b412ca506c4160a608a4a,2021-10-21_07h59.25.283,arrow_simon_punish,2021.1.2,Win32,61.04260774,,,,,,,,,,,,,,w,1,1.5529,1.642076347,0,5,1,2,6,3,1,,,,,,,,,,,,,,
,,,,,,,,,,,left.png,,w,right,616b412ca506c4160a608a4a,2021-10-21_07h59.25.283,arrow_simon_punish,2021.1.2,Win32,61.04260774,,,,,,,,,,,,,,w,1,1.4684,1.90664484,0,5,1,3,7,3,1,,,,,,,,,,,,,,
