instruct_resp_simon.keys,instruct_resp_simon.corr,instruct_resp_simon.rt,trial_resp_simon.keys,trial_resp_simon.corr,trial_resp_simon.rt,trials_train_simon.thisRepN,trials_train_simon.thisTrialN,trials_train_simon.thisN,trials_train_simon.thisIndex,trials_train_simon.ran,target_file,target_pos,target_resp,target_side,participant,date,expName,psychopyVersion,OS,frameRate,instruct_resp_timing.keys,instruct_resp_timing.corr,instruct_resp_timing.rt,trial_resp_timing.keys,trial_resp_timing.rt,trials_train_timing.thisRepN,trials_train_timing.thisTrialN,trials_train_timing.thisN,trials_train_timing.thisIndex,trials_train_timing.ran,instruct_resp.keys,instruct_resp.corr,instruct_resp.rt,trial_resp.keys,trial_resp.corr,trial_resp.rt,target_onset,err,pun,trials.thisRepN,trials.thisTrialN,trials.thisN,trials.thisIndex,trials.ran,block_note_resp.keys,block_note_resp.rt,block_num,blocks.thisRepN,blocks.thisTrialN,blocks.thisN,blocks.thisIndex,blocks.ran,punish,complete_resp.keys,complete_resp.rt,raffle_trial,raffle_err,raffle_rew
space,0,42.9658,w,1,1.1569,0,0,0,2,1,left.png,,w,left,616f0823ca981b3ebf4bfcac,2021-10-27_12h32.25.355,arrow_simon_punish,2021.1.2,Win32,59.95922773,,,,,,,,,,,,,,,,,,,,,,,,,,,,,,,,,,,,,,
,,,p,0,1.6804,0,1,1,3,1,left.png,,w,right,616f0823ca981b3ebf4bfcac,2021-10-27_12h32.25.355,arrow_simon_punish,2021.1.2,Win32,59.95922773,,,,,,,,,,,,,,,,,,,,,,,,,,,,,,,,,,,,,,
,,,p,1,1.4441,0,2,2,1,1,right.png,,p,right,616f0823ca981b3ebf4bfcac,2021-10-27_12h32.25.355,arrow_simon_punish,2021.1.2,Win32,59.95922773,,,,,,,,,,,,,,,,,,,,,,,,,,,,,,,,,,,,,,
,,,p,1,1.3809,0,3,3,0,1,right.png,,p,left,616f0823ca981b3ebf4bfcac,2021-10-27_12h32.25.355,arrow_simon_punish,2021.1.2,Win32,59.95922773,,,,,,,,,,,,,,,,,,,,,,,,,,,,,,,,,,,,,,
,,,w,1,1.2519,1,0,4,2,1,left.png,,w,left,616f0823ca981b3ebf4bfcac,2021-10-27_12h32.25.355,arrow_simon_punish,2021.1.2,Win32,59.95922773,,,,,,,,,,,,,,,,,,,,,,,,,,,,,,,,,,,,,,
,,,p,1,0.8277,1,1,5,0,1,right.png,,p,left,616f0823ca981b3ebf4bfcac,2021-10-27_12h32.25.355,arrow_simon_punish,2021.1.2,Win32,59.95922773,,,,,,,,,,,,,,,,,,,,,,,,,,,,,,,,,,,,,,
,,,w,1,1.5669,1,2,6,3,1,left.png,,w,right,616f0823ca981b3ebf4bfcac,2021-10-27_12h32.25.355,arrow_simon_punish,2021.1.2,Win32,59.95922773,,,,,,,,,,,,,,,,,,,,,,,,,,,,,,,,,,,,,,
,,,p,1,1.7081,1,3,7,1,1,right.png,,p,right,616f0823ca981b3ebf4bfcac,2021-10-27_12h32.25.355,arrow_simon_punish,2021.1.2,Win32,59.95922773,,,,,,,,,,,,,,,,,,,,,,,,,,,,,,,,,,,,,,
,,,w,1,0.8985,2,0,8,3,1,left.png,,w,right,616f0823ca981b3ebf4bfcac,2021-10-27_12h32.25.355,arrow_simon_punish,2021.1.2,Win32,59.95922773,,,,,,,,,,,,,,,,,,,,,,,,,,,,,,,,,,,,,,
,,,w,1,0.9688,2,1,9,2,1,left.png,,w,left,616f0823ca981b3ebf4bfcac,2021-10-27_12h32.25.355,arrow_simon_punish,2021.1.2,Win32,59.95922773,,,,,,,,,,,,,,,,,,,,,,,,,,,,,,,,,,,,,,
,,,p,1,0.7811,2,2,10,1,1,right.png,,p,right,616f0823ca981b3ebf4bfcac,2021-10-27_12h32.25.355,arrow_simon_punish,2021.1.2,Win32,59.95922773,,,,,,,,,,,,,,,,,,,,,,,,,,,,,,,,,,,,,,
,,,p,1,1.532,2,3,11,0,1,right.png,,p,left,616f0823ca981b3ebf4bfcac,2021-10-27_12h32.25.355,arrow_simon_punish,2021.1.2,Win32,59.95922773,,,,,,,,,,,,,,,,,,,,,,,,,,,,,,,,,,,,,,
,,,w,1,0.6924,3,0,12,3,1,left.png,,w,right,616f0823ca981b3ebf4bfcac,2021-10-27_12h32.25.355,arrow_simon_punish,2021.1.2,Win32,59.95922773,,,,,,,,,,,,,,,,,,,,,,,,,,,,,,,,,,,,,,
,,,w,1,1.534,3,1,13,2,1,left.png,,w,left,616f0823ca981b3ebf4bfcac,2021-10-27_12h32.25.355,arrow_simon_punish,2021.1.2,Win32,59.95922773,,,,,,,,,,,,,,,,,,,,,,,,,,,,,,,,,,,,,,
,,,p,1,1.453,3,2,14,0,1,right.png,,p,left,616f0823ca981b3ebf4bfcac,2021-10-27_12h32.25.355,arrow_simon_punish,2021.1.2,Win32,59.95922773,,,,,,,,,,,,,,,,,,,,,,,,,,,,,,,,,,,,,,
,,,p,1,0.7976,3,3,15,1,1,right.png,,p,right,616f0823ca981b3ebf4bfcac,2021-10-27_12h32.25.355,arrow_simon_punish,2021.1.2,Win32,59.95922773,,,,,,,,,,,,,,,,,,,,,,,,,,,,,,,,,,,,,,
,,,w,1,1.1003,4,0,16,2,1,left.png,,w,left,616f0823ca981b3ebf4bfcac,2021-10-27_12h32.25.355,arrow_simon_punish,2021.1.2,Win32,59.95922773,,,,,,,,,,,,,,,,,,,,,,,,,,,,,,,,,,,,,,
,,,p,1,1.2436,4,1,17,1,1,right.png,,p,right,616f0823ca981b3ebf4bfcac,2021-10-27_12h32.25.355,arrow_simon_punish,2021.1.2,Win32,59.95922773,,,,,,,,,,,,,,,,,,,,,,,,,,,,,,,,,,,,,,
,,,p,1,1.628,4,2,18,0,1,right.png,,p,left,616f0823ca981b3ebf4bfcac,2021-10-27_12h32.25.355,arrow_simon_punish,2021.1.2,Win32,59.95922773,,,,,,,,,,,,,,,,,,,,,,,,,,,,,,,,,,,,,,
,,,w,1,1.2038,4,3,19,3,1,left.png,,w,right,616f0823ca981b3ebf4bfcac,2021-10-27_12h32.25.355,arrow_simon_punish,2021.1.2,Win32,59.95922773,,,,,,,,,,,,,,,,,,,,,,,,,,,,,,,,,,,,,,
,,,p,1,0.7613,5,0,20,1,1,right.png,,p,right,616f0823ca981b3ebf4bfcac,2021-10-27_12h32.25.355,arrow_simon_punish,2021.1.2,Win32,59.95922773,,,,,,,,,,,,,,,,,,,,,,,,,,,,,,,,,,,,,,
,,,w,1,0.7478,5,1,21,3,1,left.png,,w,right,616f0823ca981b3ebf4bfcac,2021-10-27_12h32.25.355,arrow_simon_punish,2021.1.2,Win32,59.95922773,,,,,,,,,,,,,,,,,,,,,,,,,,,,,,,,,,,,,,
,,,p,1,1.0222,5,2,22,0,1,right.png,,p,left,616f0823ca981b3ebf4bfcac,2021-10-27_12h32.25.355,arrow_simon_punish,2021.1.2,Win32,59.95922773,,,,,,,,,,,,,,,,,,,,,,,,,,,,,,,,,,,,,,
,,,w,1,1.2708,5,3,23,2,1,left.png,,w,left,616f0823ca981b3ebf4bfcac,2021-10-27_12h32.25.355,arrow_simon_punish,2021.1.2,Win32,59.95922773,,,,,,,,,,,,,,,,,,,,,,,,,,,,,,,,,,,,,,
,,,w,1,1.2181,6,0,24,2,1,left.png,,w,left,616f0823ca981b3ebf4bfcac,2021-10-27_12h32.25.355,arrow_simon_punish,2021.1.2,Win32,59.95922773,,,,,,,,,,,,,,,,,,,,,,,,,,,,,,,,,,,,,,
,,,w,1,1.3315,6,1,25,3,1,left.png,,w,right,616f0823ca981b3ebf4bfcac,2021-10-27_12h32.25.355,arrow_simon_punish,2021.1.2,Win32,59.95922773,,,,,,,,,,,,,,,,,,,,,,,,,,,,,,,,,,,,,,
,,,p,1,1.0786,6,2,26,1,1,right.png,,p,right,616f0823ca981b3ebf4bfcac,2021-10-27_12h32.25.355,arrow_simon_punish,2021.1.2,Win32,59.95922773,,,,,,,,,,,,,,,,,,,,,,,,,,,,,,,,,,,,,,
,,,p,1,1.4376,6,3,27,0,1,right.png,,p,left,616f0823ca981b3ebf4bfcac,2021-10-27_12h32.25.355,arrow_simon_punish,2021.1.2,Win32,59.95922773,,,,,,,,,,,,,,,,,,,,,,,,,,,,,,,,,,,,,,
,,,w,1,1.3032,7,0,28,2,1,left.png,,w,left,616f0823ca981b3ebf4bfcac,2021-10-27_12h32.25.355,arrow_simon_punish,2021.1.2,Win32,59.95922773,,,,,,,,,,,,,,,,,,,,,,,,,,,,,,,,,,,,,,
,,,w,1,1.1102,7,1,29,3,1,left.png,,w,right,616f0823ca981b3ebf4bfcac,2021-10-27_12h32.25.355,arrow_simon_punish,2021.1.2,Win32,59.95922773,,,,,,,,,,,,,,,,,,,,,,,,,,,,,,,,,,,,,,
,,,p,1,1.1516,7,2,30,0,1,right.png,,p,left,616f0823ca981b3ebf4bfcac,2021-10-27_12h32.25.355,arrow_simon_punish,2021.1.2,Win32,59.95922773,,,,,,,,,,,,,,,,,,,,,,,,,,,,,,,,,,,,,,
,,,p,1,0.8187,7,3,31,1,1,right.png,,p,right,616f0823ca981b3ebf4bfcac,2021-10-27_12h32.25.355,arrow_simon_punish,2021.1.2,Win32,59.95922773,,,,,,,,,,,,,,,,,,,,,,,,,,,,,,,,,,,,,,
,,,p,1,1.0885,8,0,32,1,1,right.png,,p,right,616f0823ca981b3ebf4bfcac,2021-10-27_12h32.25.355,arrow_simon_punish,2021.1.2,Win32,59.95922773,,,,,,,,,,,,,,,,,,,,,,,,,,,,,,,,,,,,,,
,,,w,1,1.5848,8,1,33,2,1,left.png,,w,left,616f0823ca981b3ebf4bfcac,2021-10-27_12h32.25.355,arrow_simon_punish,2021.1.2,Win32,59.95922773,,,,,,,,,,,,,,,,,,,,,,,,,,,,,,,,,,,,,,
,,,p,1,1.4829,8,2,34,0,1,right.png,,p,left,616f0823ca981b3ebf4bfcac,2021-10-27_12h32.25.355,arrow_simon_punish,2021.1.2,Win32,59.95922773,,,,,,,,,,,,,,,,,,,,,,,,,,,,,,,,,,,,,,
,,,w,1,0.8798,8,3,35,3,1,left.png,,w,right,616f0823ca981b3ebf4bfcac,2021-10-27_12h32.25.355,arrow_simon_punish,2021.1.2,Win32,59.95922773,,,,,,,,,,,,,,,,,,,,,,,,,,,,,,,,,,,,,,
,,,w,1,0.7805,9,0,36,2,1,left.png,,w,left,616f0823ca981b3ebf4bfcac,2021-10-27_12h32.25.355,arrow_simon_punish,2021.1.2,Win32,59.95922773,,,,,,,,,,,,,,,,,,,,,,,,,,,,,,,,,,,,,,
,,,p,1,0.6918,9,1,37,0,1,right.png,,p,left,616f0823ca981b3ebf4bfcac,2021-10-27_12h32.25.355,arrow_simon_punish,2021.1.2,Win32,59.95922773,,,,,,,,,,,,,,,,,,,,,,,,,,,,,,,,,,,,,,
,,,p,1,1.0019,9,2,38,1,1,right.png,,p,right,616f0823ca981b3ebf4bfcac,2021-10-27_12h32.25.355,arrow_simon_punish,2021.1.2,Win32,59.95922773,,,,,,,,,,,,,,,,,,,,,,,,,,,,,,,,,,,,,,
,,,w,1,1.6446,9,3,39,3,1,left.png,,w,right,616f0823ca981b3ebf4bfcac,2021-10-27_12h32.25.355,arrow_simon_punish,2021.1.2,Win32,59.95922773,,,,,,,,,,,,,,,,,,,,,,,,,,,,,,,,,,,,,,
,,,,,,,,,,,,,,,616f0823ca981b3ebf4bfcac,2021-10-27_12h32.25.355,arrow_simon_punish,2021.1.2,Win32,59.95922773,space,0,55.3031,p,2.8015,0,0,0,0,1,,,,,,,,,,,,,,,,,,,,,,,,,,,,
,,,,,,,,,,,,,,,616f0823ca981b3ebf4bfcac,2021-10-27_12h32.25.355,arrow_simon_punish,2021.1.2,Win32,59.95922773,,,,w,2.767,1,0,1,0,1,,,,,,,,,,,,,,,,,,,,,,,,,,,,
,,,,,,,,,,,,,,,616f0823ca981b3ebf4bfcac,2021-10-27_12h32.25.355,arrow_simon_punish,2021.1.2,Win32,59.95922773,,,,p,2.6407,2,0,2,0,1,,,,,,,,,,,,,,,,,,,,,,,,,,,,
,,,,,,,,,,,,,,,616f0823ca981b3ebf4bfcac,2021-10-27_12h32.25.355,arrow_simon_punish,2021.1.2,Win32,59.95922773,,,,w,2.6271,3,0,3,0,1,,,,,,,,,,,,,,,,,,,,,,,,,,,,
,,,,,,,,,,,,,,,616f0823ca981b3ebf4bfcac,2021-10-27_12h32.25.355,arrow_simon_punish,2021.1.2,Win32,59.95922773,,,,p,2.369,4,0,4,0,1,,,,,,,,,,,,,,,,,,,,,,,,,,,,
,,,,,,,,,,,,,,,616f0823ca981b3ebf4bfcac,2021-10-27_12h32.25.355,arrow_simon_punish,2021.1.2,Win32,59.95922773,,,,w,2.4643,5,0,5,0,1,,,,,,,,,,,,,,,,,,,,,,,,,,,,
,,,,,,,,,,,,,,,616f0823ca981b3ebf4bfcac,2021-10-27_12h32.25.355,arrow_simon_punish,2021.1.2,Win32,59.95922773,,,,p,2.4564,6,0,6,0,1,,,,,,,,,,,,,,,,,,,,,,,,,,,,
,,,,,,,,,,,,,,,616f0823ca981b3ebf4bfcac,2021-10-27_12h32.25.355,arrow_simon_punish,2021.1.2,Win32,59.95922773,,,,w,2.456,7,0,7,0,1,,,,,,,,,,,,,,,,,,,,,,,,,,,,
,,,,,,,,,,,,,,,616f0823ca981b3ebf4bfcac,2021-10-27_12h32.25.355,arrow_simon_punish,2021.1.2,Win32,59.95922773,,,,p,2.4333,8,0,8,0,1,,,,,,,,,,,,,,,,,,,,,,,,,,,,
,,,,,,,,,,,,,,,616f0823ca981b3ebf4bfcac,2021-10-27_12h32.25.355,arrow_simon_punish,2021.1.2,Win32,59.95922773,,,,w,2.4812,9,0,9,0,1,,,,,,,,,,,,,,,,,,,,,,,,,,,,
,,,,,,,,,,,,,,,616f0823ca981b3ebf4bfcac,2021-10-27_12h32.25.355,arrow_simon_punish,2021.1.2,Win32,59.95922773,,,,p,2.4577,10,0,10,0,1,,,,,,,,,,,,,,,,,,,,,,,,,,,,
,,,,,,,,,,,,,,,616f0823ca981b3ebf4bfcac,2021-10-27_12h32.25.355,arrow_simon_punish,2021.1.2,Win32,59.95922773,,,,w,2.3947,11,0,11,0,1,,,,,,,,,,,,,,,,,,,,,,,,,,,,
,,,,,,,,,,,,,,,616f0823ca981b3ebf4bfcac,2021-10-27_12h32.25.355,arrow_simon_punish,2021.1.2,Win32,59.95922773,,,,p,2.4211,12,0,12,0,1,,,,,,,,,,,,,,,,,,,,,,,,,,,,
,,,,,,,,,,,,,,,616f0823ca981b3ebf4bfcac,2021-10-27_12h32.25.355,arrow_simon_punish,2021.1.2,Win32,59.95922773,,,,w,2.382,13,0,13,0,1,,,,,,,,,,,,,,,,,,,,,,,,,,,,
,,,,,,,,,,,,,,,616f0823ca981b3ebf4bfcac,2021-10-27_12h32.25.355,arrow_simon_punish,2021.1.2,Win32,59.95922773,,,,p,2.4598,14,0,14,0,1,,,,,,,,,,,,,,,,,,,,,,,,,,,,
,,,,,,,,,,,,,,,616f0823ca981b3ebf4bfcac,2021-10-27_12h32.25.355,arrow_simon_punish,2021.1.2,Win32,59.95922773,,,,w,2.4829,15,0,15,0,1,,,,,,,,,,,,,,,,,,,,,,,,,,,,
,,,,,,,,,,,,,,,616f0823ca981b3ebf4bfcac,2021-10-27_12h32.25.355,arrow_simon_punish,2021.1.2,Win32,59.95922773,,,,p,2.4831,16,0,16,0,1,,,,,,,,,,,,,,,,,,,,,,,,,,,,
,,,,,,,,,,,,,,,616f0823ca981b3ebf4bfcac,2021-10-27_12h32.25.355,arrow_simon_punish,2021.1.2,Win32,59.95922773,,,,w,2.4702,17,0,17,0,1,,,,,,,,,,,,,,,,,,,,,,,,,,,,
,,,,,,,,,,,,,,,616f0823ca981b3ebf4bfcac,2021-10-27_12h32.25.355,arrow_simon_punish,2021.1.2,Win32,59.95922773,,,,p,2.4866,18,0,18,0,1,,,,,,,,,,,,,,,,,,,,,,,,,,,,
,,,,,,,,,,,,,,,616f0823ca981b3ebf4bfcac,2021-10-27_12h32.25.355,arrow_simon_punish,2021.1.2,Win32,59.95922773,,,,w,2.4565,19,0,19,0,1,,,,,,,,,,,,,,,,,,,,,,,,,,,,
,,,,,,,,,,,,,,,616f0823ca981b3ebf4bfcac,2021-10-27_12h32.25.355,arrow_simon_punish,2021.1.2,Win32,59.95922773,,,,p,2.5016,20,0,20,0,1,,,,,,,,,,,,,,,,,,,,,,,,,,,,
,,,,,,,,,,,,,,,616f0823ca981b3ebf4bfcac,2021-10-27_12h32.25.355,arrow_simon_punish,2021.1.2,Win32,59.95922773,,,,w,2.5044,21,0,21,0,1,,,,,,,,,,,,,,,,,,,,,,,,,,,,
,,,,,,,,,,,,,,,616f0823ca981b3ebf4bfcac,2021-10-27_12h32.25.355,arrow_simon_punish,2021.1.2,Win32,59.95922773,,,,p,2.4768,22,0,22,0,1,,,,,,,,,,,,,,,,,,,,,,,,,,,,
,,,,,,,,,,,,,,,616f0823ca981b3ebf4bfcac,2021-10-27_12h32.25.355,arrow_simon_punish,2021.1.2,Win32,59.95922773,,,,w,2.5001,23,0,23,0,1,,,,,,,,,,,,,,,,,,,,,,,,,,,,
,,,,,,,,,,,,,,,616f0823ca981b3ebf4bfcac,2021-10-27_12h32.25.355,arrow_simon_punish,2021.1.2,Win32,59.95922773,,,,p,2.4309,24,0,24,0,1,,,,,,,,,,,,,,,,,,,,,,,,,,,,
,,,,,,,,,,,,,,,616f0823ca981b3ebf4bfcac,2021-10-27_12h32.25.355,arrow_simon_punish,2021.1.2,Win32,59.95922773,,,,w,2.534,25,0,25,0,1,,,,,,,,,,,,,,,,,,,,,,,,,,,,
,,,,,,,,,,,,,,,616f0823ca981b3ebf4bfcac,2021-10-27_12h32.25.355,arrow_simon_punish,2021.1.2,Win32,59.95922773,,,,p,2.4759,26,0,26,0,1,,,,,,,,,,,,,,,,,,,,,,,,,,,,
,,,,,,,,,,,,,,,616f0823ca981b3ebf4bfcac,2021-10-27_12h32.25.355,arrow_simon_punish,2021.1.2,Win32,59.95922773,,,,w,2.4937,27,0,27,0,1,,,,,,,,,,,,,,,,,,,,,,,,,,,,
,,,,,,,,,,,,,,,616f0823ca981b3ebf4bfcac,2021-10-27_12h32.25.355,arrow_simon_punish,2021.1.2,Win32,59.95922773,,,,p,2.4753,28,0,28,0,1,,,,,,,,,,,,,,,,,,,,,,,,,,,,
,,,,,,,,,,,,,,,616f0823ca981b3ebf4bfcac,2021-10-27_12h32.25.355,arrow_simon_punish,2021.1.2,Win32,59.95922773,,,,w,2.5006,29,0,29,0,1,,,,,,,,,,,,,,,,,,,,,,,,,,,,
,,,,,,,,,,,,,,,616f0823ca981b3ebf4bfcac,2021-10-27_12h32.25.355,arrow_simon_punish,2021.1.2,Win32,59.95922773,,,,p,2.4676,30,0,30,0,1,,,,,,,,,,,,,,,,,,,,,,,,,,,,
,,,,,,,,,,,,,,,616f0823ca981b3ebf4bfcac,2021-10-27_12h32.25.355,arrow_simon_punish,2021.1.2,Win32,59.95922773,,,,w,2.4596,31,0,31,0,1,,,,,,,,,,,,,,,,,,,,,,,,,,,,
,,,,,,,,,,,,,,,616f0823ca981b3ebf4bfcac,2021-10-27_12h32.25.355,arrow_simon_punish,2021.1.2,Win32,59.95922773,,,,p,2.5035,32,0,32,0,1,,,,,,,,,,,,,,,,,,,,,,,,,,,,
,,,,,,,,,,,,,,,616f0823ca981b3ebf4bfcac,2021-10-27_12h32.25.355,arrow_simon_punish,2021.1.2,Win32,59.95922773,,,,w,2.5003,33,0,33,0,1,,,,,,,,,,,,,,,,,,,,,,,,,,,,
,,,,,,,,,,,,,,,616f0823ca981b3ebf4bfcac,2021-10-27_12h32.25.355,arrow_simon_punish,2021.1.2,Win32,59.95922773,,,,p,2.7026,34,0,34,0,1,,,,,,,,,,,,,,,,,,,,,,,,,,,,
,,,,,,,,,,,,,,,616f0823ca981b3ebf4bfcac,2021-10-27_12h32.25.355,arrow_simon_punish,2021.1.2,Win32,59.95922773,,,,w,2.393,35,0,35,0,1,,,,,,,,,,,,,,,,,,,,,,,,,,,,
,,,,,,,,,,,,,,,616f0823ca981b3ebf4bfcac,2021-10-27_12h32.25.355,arrow_simon_punish,2021.1.2,Win32,59.95922773,,,,p,2.4874,36,0,36,0,1,,,,,,,,,,,,,,,,,,,,,,,,,,,,
,,,,,,,,,,,,,,,616f0823ca981b3ebf4bfcac,2021-10-27_12h32.25.355,arrow_simon_punish,2021.1.2,Win32,59.95922773,,,,w,2.4431,37,0,37,0,1,,,,,,,,,,,,,,,,,,,,,,,,,,,,
,,,,,,,,,,,,,,,616f0823ca981b3ebf4bfcac,2021-10-27_12h32.25.355,arrow_simon_punish,2021.1.2,Win32,59.95922773,,,,p,2.5004,38,0,38,0,1,,,,,,,,,,,,,,,,,,,,,,,,,,,,
,,,,,,,,,,,,,,,616f0823ca981b3ebf4bfcac,2021-10-27_12h32.25.355,arrow_simon_punish,2021.1.2,Win32,59.95922773,,,,w,2.508,39,0,39,0,1,,,,,,,,,,,,,,,,,,,,,,,,,,,,
,,,,,,,,,,,,,,,616f0823ca981b3ebf4bfcac,2021-10-27_12h32.25.355,arrow_simon_punish,2021.1.2,Win32,59.95922773,,,,p,2.531,40,0,40,0,1,,,,,,,,,,,,,,,,,,,,,,,,,,,,
,,,,,,,,,,,,,,,616f0823ca981b3ebf4bfcac,2021-10-27_12h32.25.355,arrow_simon_punish,2021.1.2,Win32,59.95922773,,,,w,2.5345,41,0,41,0,1,,,,,,,,,,,,,,,,,,,,,,,,,,,,
,,,,,,,,,,,,,,,616f0823ca981b3ebf4bfcac,2021-10-27_12h32.25.355,arrow_simon_punish,2021.1.2,Win32,59.95922773,,,,p,2.4889,42,0,42,0,1,,,,,,,,,,,,,,,,,,,,,,,,,,,,
,,,,,,,,,,,,,,,616f0823ca981b3ebf4bfcac,2021-10-27_12h32.25.355,arrow_simon_punish,2021.1.2,Win32,59.95922773,,,,w,2.5198,43,0,43,0,1,,,,,,,,,,,,,,,,,,,,,,,,,,,,
,,,,,,,,,,,,,,,616f0823ca981b3ebf4bfcac,2021-10-27_12h32.25.355,arrow_simon_punish,2021.1.2,Win32,59.95922773,,,,p,2.5221,44,0,44,0,1,,,,,,,,,,,,,,,,,,,,,,,,,,,,
,,,,,,,,,,,,,,,616f0823ca981b3ebf4bfcac,2021-10-27_12h32.25.355,arrow_simon_punish,2021.1.2,Win32,59.95922773,,,,w,2.467,45,0,45,0,1,,,,,,,,,,,,,,,,,,,,,,,,,,,,
,,,,,,,,,,,,,,,616f0823ca981b3ebf4bfcac,2021-10-27_12h32.25.355,arrow_simon_punish,2021.1.2,Win32,59.95922773,,,,p,2.5273,46,0,46,0,1,,,,,,,,,,,,,,,,,,,,,,,,,,,,
,,,,,,,,,,,,,,,616f0823ca981b3ebf4bfcac,2021-10-27_12h32.25.355,arrow_simon_punish,2021.1.2,Win32,59.95922773,,,,w,2.5189,47,0,47,0,1,,,,,,,,,,,,,,,,,,,,,,,,,,,,
,,,,,,,,,,,,,,,616f0823ca981b3ebf4bfcac,2021-10-27_12h32.25.355,arrow_simon_punish,2021.1.2,Win32,59.95922773,,,,p,2.5267,48,0,48,0,1,,,,,,,,,,,,,,,,,,,,,,,,,,,,
,,,,,,,,,,,,,,,616f0823ca981b3ebf4bfcac,2021-10-27_12h32.25.355,arrow_simon_punish,2021.1.2,Win32,59.95922773,,,,w,2.5653,49,0,49,0,1,,,,,,,,,,,,,,,,,,,,,,,,,,,,
,,,,,,,,,,,,,,,616f0823ca981b3ebf4bfcac,2021-10-27_12h32.25.355,arrow_simon_punish,2021.1.2,Win32,59.95922773,,,,p,2.5195,50,0,50,0,1,,,,,,,,,,,,,,,,,,,,,,,,,,,,
,,,,,,,,,,,,,,,616f0823ca981b3ebf4bfcac,2021-10-27_12h32.25.355,arrow_simon_punish,2021.1.2,Win32,59.95922773,,,,w,2.5005,51,0,51,0,1,,,,,,,,,,,,,,,,,,,,,,,,,,,,
,,,,,,,,,,,,,,,616f0823ca981b3ebf4bfcac,2021-10-27_12h32.25.355,arrow_simon_punish,2021.1.2,Win32,59.95922773,,,,p,2.4944,52,0,52,0,1,,,,,,,,,,,,,,,,,,,,,,,,,,,,
,,,,,,,,,,,,,,,616f0823ca981b3ebf4bfcac,2021-10-27_12h32.25.355,arrow_simon_punish,2021.1.2,Win32,59.95922773,,,,w,2.4808,53,0,53,0,1,,,,,,,,,,,,,,,,,,,,,,,,,,,,
,,,,,,,,,,,,,,,616f0823ca981b3ebf4bfcac,2021-10-27_12h32.25.355,arrow_simon_punish,2021.1.2,Win32,59.95922773,,,,p,2.4889,54,0,54,0,1,,,,,,,,,,,,,,,,,,,,,,,,,,,,
,,,,,,,,,,,,,,,616f0823ca981b3ebf4bfcac,2021-10-27_12h32.25.355,arrow_simon_punish,2021.1.2,Win32,59.95922773,,,,w,2.4916,55,0,55,0,1,,,,,,,,,,,,,,,,,,,,,,,,,,,,
,,,,,,,,,,,,,,,616f0823ca981b3ebf4bfcac,2021-10-27_12h32.25.355,arrow_simon_punish,2021.1.2,Win32,59.95922773,,,,p,2.5785,56,0,56,0,1,,,,,,,,,,,,,,,,,,,,,,,,,,,,
,,,,,,,,,,,,,,,616f0823ca981b3ebf4bfcac,2021-10-27_12h32.25.355,arrow_simon_punish,2021.1.2,Win32,59.95922773,,,,w,2.5234,57,0,57,0,1,,,,,,,,,,,,,,,,,,,,,,,,,,,,
,,,,,,,,,,,,,,,616f0823ca981b3ebf4bfcac,2021-10-27_12h32.25.355,arrow_simon_punish,2021.1.2,Win32,59.95922773,,,,p,2.5401,58,0,58,0,1,,,,,,,,,,,,,,,,,,,,,,,,,,,,
,,,,,,,,,,,,,,,616f0823ca981b3ebf4bfcac,2021-10-27_12h32.25.355,arrow_simon_punish,2021.1.2,Win32,59.95922773,,,,w,2.4012,59,0,59,0,1,,,,,,,,,,,,,,,,,,,,,,,,,,,,
,,,,,,,,,,,left.png,,w,left,616f0823ca981b3ebf4bfcac,2021-10-27_12h32.25.355,arrow_simon_punish,2021.1.2,Win32,59.95922773,,,,,,,,,,,space,0,85.8574,p,0,1.6039,1.576539029,1,1,0,0,0,2,1,,,,,,,,,,,,,,
,,,,,,,,,,,right.png,,p,right,616f0823ca981b3ebf4bfcac,2021-10-27_12h32.25.355,arrow_simon_punish,2021.1.2,Win32,59.95922773,,,,,,,,,,,,,,p,1,1.6161,2.067291509,1,1,0,1,1,1,1,,,,,,,,,,,,,,
,,,,,,,,,,,left.png,,w,left,616f0823ca981b3ebf4bfcac,2021-10-27_12h32.25.355,arrow_simon_punish,2021.1.2,Win32,59.95922773,,,,,,,,,,,,,,p,0,1.5142,2.308860381,1,1,0,2,2,2,1,,,,,,,,,,,,,,
,,,,,,,,,,,right.png,,p,left,616f0823ca981b3ebf4bfcac,2021-10-27_12h32.25.355,arrow_simon_punish,2021.1.2,Win32,59.95922773,,,,,,,,,,,,,,p,1,1.5375,2.013533812,0,1,0,3,3,0,1,,,,,,,,,,,,,,
,,,,,,,,,,,right.png,,p,left,616f0823ca981b3ebf4bfcac,2021-10-27_12h32.25.355,arrow_simon_punish,2021.1.2,Win32,59.95922773,,,,,,,,,,,,,,p,1,1.2405,1.711657602,1,1,1,0,4,0,1,,,,,,,,,,,,,,
,,,,,,,,,,,right.png,,p,left,616f0823ca981b3ebf4bfcac,2021-10-27_12h32.25.355,arrow_simon_punish,2021.1.2,Win32,59.95922773,,,,,,,,,,,,,,p,1,1.7346,1.923152552,1,1,1,1,5,0,1,,,,,,,,,,,,,,
,,,,,,,,,,,right.png,,p,right,616f0823ca981b3ebf4bfcac,2021-10-27_12h32.25.355,arrow_simon_punish,2021.1.2,Win32,59.95922773,,,,,,,,,,,,,,p,1,1.4957,1.974603366,0,1,1,2,6,1,1,,,,,,,,,,,,,,
,,,,,,,,,,,left.png,,w,left,616f0823ca981b3ebf4bfcac,2021-10-27_12h32.25.355,arrow_simon_punish,2021.1.2,Win32,59.95922773,,,,,,,,,,,,,,w,1,1.8175,2.478233364,1,1,1,3,7,2,1,,,,,,,,,,,,,,
,,,,,,,,,,,left.png,,w,left,616f0823ca981b3ebf4bfcac,2021-10-27_12h32.25.355,arrow_simon_punish,2021.1.2,Win32,59.95922773,,,,,,,,,,,,,,w,1,1.5914,1.931898448,0,1,2,0,8,2,1,,,,,,,,,,,,,,
,,,,,,,,,,,right.png,,p,right,616f0823ca981b3ebf4bfcac,2021-10-27_12h32.25.355,arrow_simon_punish,2021.1.2,Win32,59.95922773,,,,,,,,,,,,,,p,1,1.5713,1.652637533,0,1,2,1,9,1,1,,,,,,,,,,,,,,
,,,,,,,,,,,right.png,,p,right,616f0823ca981b3ebf4bfcac,2021-10-27_12h32.25.355,arrow_simon_punish,2021.1.2,Win32,59.95922773,,,,,,,,,,,,,,p,1,1.72,2.498072705,1,1,2,2,10,1,1,,,,,,,,,,,,,,
,,,,,,,,,,,right.png,,p,right,616f0823ca981b3ebf4bfcac,2021-10-27_12h32.25.355,arrow_simon_punish,2021.1.2,Win32,59.95922773,,,,,,,,,,,,,,p,1,1.5707,2.255380932,0,1,2,3,11,1,1,,,,,,,,,,,,,,
,,,,,,,,,,,left.png,,w,right,616f0823ca981b3ebf4bfcac,2021-10-27_12h32.25.355,arrow_simon_punish,2021.1.2,Win32,59.95922773,,,,,,,,,,,,,,w,1,1.4863,1.571245226,0,1,3,0,12,3,1,,,,,,,,,,,,,,
,,,,,,,,,,,left.png,,w,right,616f0823ca981b3ebf4bfcac,2021-10-27_12h32.25.355,arrow_simon_punish,2021.1.2,Win32,59.95922773,,,,,,,,,,,,,,p,0,1.5801,2.336851862,1,1,3,1,13,3,1,,,,,,,,,,,,,,
,,,,,,,,,,,right.png,,p,right,616f0823ca981b3ebf4bfcac,2021-10-27_12h32.25.355,arrow_simon_punish,2021.1.2,Win32,59.95922773,,,,,,,,,,,,,,p,1,1.5039,1.860708678,0,1,3,2,14,1,1,,,,,,,,,,,,,,
,,,,,,,,,,,right.png,,p,right,616f0823ca981b3ebf4bfcac,2021-10-27_12h32.25.355,arrow_simon_punish,2021.1.2,Win32,59.95922773,,,,,,,,,,,,,,p,1,1.5902,2.232669559,0,1,3,3,15,1,1,,,,,,,,,,,,,,
,,,,,,,,,,,left.png,,w,right,616f0823ca981b3ebf4bfcac,2021-10-27_12h32.25.355,arrow_simon_punish,2021.1.2,Win32,59.95922773,,,,,,,,,,,,,,p,0,1.5506,2.25014483,1,1,4,0,16,3,1,,,,,,,,,,,,,,
,,,,,,,,,,,left.png,,w,right,616f0823ca981b3ebf4bfcac,2021-10-27_12h32.25.355,arrow_simon_punish,2021.1.2,Win32,59.95922773,,,,,,,,,,,,,,p,0,1.5874,1.672070728,1,1,4,1,17,3,1,,,,,,,,,,,,,,
,,,,,,,,,,,right.png,,p,left,616f0823ca981b3ebf4bfcac,2021-10-27_12h32.25.355,arrow_simon_punish,2021.1.2,Win32,59.95922773,,,,,,,,,,,,,,w,0,1.7508,2.47267889,1,1,4,2,18,0,1,,,,,,,,,,,,,,
,,,,,,,,,,,right.png,,p,left,616f0823ca981b3ebf4bfcac,2021-10-27_12h32.25.355,arrow_simon_punish,2021.1.2,Win32,59.95922773,,,,,,,,,,,,,,p,1,1.8554,1.555758097,1,1,4,3,19,0,1,,,,,,,,,,,,,,
,,,,,,,,,,,right.png,,p,right,616f0823ca981b3ebf4bfcac,2021-10-27_12h32.25.355,arrow_simon_punish,2021.1.2,Win32,59.95922773,,,,,,,,,,,,,,p,1,1.6047,2.03527658,1,1,5,0,20,1,1,,,,,,,,,,,,,,
,,,,,,,,,,,right.png,,p,left,616f0823ca981b3ebf4bfcac,2021-10-27_12h32.25.355,arrow_simon_punish,2021.1.2,Win32,59.95922773,,,,,,,,,,,,,,p,1,1.8851,2.284024218,1,1,5,1,21,0,1,,,,,,,,,,,,,,
,,,,,,,,,,,right.png,,p,right,616f0823ca981b3ebf4bfcac,2021-10-27_12h32.25.355,arrow_simon_punish,2021.1.2,Win32,59.95922773,,,,,,,,,,,,,,p,1,1.5592,1.909388702,0,1,5,2,22,1,1,,,,,,,,,,,,,,
,,,,,,,,,,,right.png,,p,left,616f0823ca981b3ebf4bfcac,2021-10-27_12h32.25.355,arrow_simon_punish,2021.1.2,Win32,59.95922773,,,,,,,,,,,,,,p,1,1.6007,1.96865245,1,1,5,3,23,0,1,,,,,,,,,,,,,,
,,,,,,,,,,,left.png,,w,left,616f0823ca981b3ebf4bfcac,2021-10-27_12h32.25.355,arrow_simon_punish,2021.1.2,Win32,59.95922773,,,,,,,,,,,,,,w,1,1.5695,1.557704163,0,1,6,0,24,2,1,,,,,,,,,,,,,,
,,,,,,,,,,,right.png,,p,left,616f0823ca981b3ebf4bfcac,2021-10-27_12h32.25.355,arrow_simon_punish,2021.1.2,Win32,59.95922773,,,,,,,,,,,,,,w,0,1.5932,2.114329547,1,1,6,1,25,0,1,,,,,,,,,,,,,,
,,,,,,,,,,,left.png,,w,right,616f0823ca981b3ebf4bfcac,2021-10-27_12h32.25.355,arrow_simon_punish,2021.1.2,Win32,59.95922773,,,,,,,,,,,,,,p,0,1.6061,1.513054346,1,1,6,2,26,3,1,,,,,,,,,,,,,,
,,,,,,,,,,,left.png,,w,right,616f0823ca981b3ebf4bfcac,2021-10-27_12h32.25.355,arrow_simon_punish,2021.1.2,Win32,59.95922773,,,,,,,,,,,,,,p,0,1.6339,2.018409514,1,1,6,3,27,3,1,,,,,,,,,,,,,,
,,,,,,,,,,,left.png,,w,right,616f0823ca981b3ebf4bfcac,2021-10-27_12h32.25.355,arrow_simon_punish,2021.1.2,Win32,59.95922773,,,,,,,,,,,,,,w,1,1.7036,2.074078836,1,1,7,0,28,3,1,,,,,,,,,,,,,,
,,,,,,,,,,,left.png,,w,right,616f0823ca981b3ebf4bfcac,2021-10-27_12h32.25.355,arrow_simon_punish,2021.1.2,Win32,59.95922773,,,,,,,,,,,,,,w,1,1.508,1.901441035,0,1,7,1,29,3,1,,,,,,,,,,,,,,
,,,,,,,,,,,right.png,,p,right,616f0823ca981b3ebf4bfcac,2021-10-27_12h32.25.355,arrow_simon_punish,2021.1.2,Win32,59.95922773,,,,,,,,,,,,,,p,1,1.5931,1.756837065,0,1,7,2,30,1,1,,,,,,,,,,,,,,
,,,,,,,,,,,right.png,,p,right,616f0823ca981b3ebf4bfcac,2021-10-27_12h32.25.355,arrow_simon_punish,2021.1.2,Win32,59.95922773,,,,,,,,,,,,,,p,1,1.7092,2.368359441,1,1,7,3,31,1,1,,,,,,,,,,,,,,
,,,,,,,,,,,left.png,,w,left,616f0823ca981b3ebf4bfcac,2021-10-27_12h32.25.355,arrow_simon_punish,2021.1.2,Win32,59.95922773,,,,,,,,,,,,,,w,1,1.5742,1.608233036,0,1,8,0,32,2,1,,,,,,,,,,,,,,
,,,,,,,,,,,right.png,,p,left,616f0823ca981b3ebf4bfcac,2021-10-27_12h32.25.355,arrow_simon_punish,2021.1.2,Win32,59.95922773,,,,,,,,,,,,,,p,1,1.484,1.946687408,0,1,8,1,33,0,1,,,,,,,,,,,,,,
,,,,,,,,,,,left.png,,w,left,616f0823ca981b3ebf4bfcac,2021-10-27_12h32.25.355,arrow_simon_punish,2021.1.2,Win32,59.95922773,,,,,,,,,,,,,,w,1,1.521,1.71719825,0,1,8,2,34,2,1,,,,,,,,,,,,,,
,,,,,,,,,,,right.png,,p,left,616f0823ca981b3ebf4bfcac,2021-10-27_12h32.25.355,arrow_simon_punish,2021.1.2,Win32,59.95922773,,,,,,,,,,,,,,w,0,1.5924,2.262605915,1,1,8,3,35,0,1,,,,,,,,,,,,,,
,,,,,,,,,,,right.png,,p,right,616f0823ca981b3ebf4bfcac,2021-10-27_12h32.25.355,arrow_simon_punish,2021.1.2,Win32,59.95922773,,,,,,,,,,,,,,p,1,1.7842,2.467793007,1,1,9,0,36,1,1,,,,,,,,,,,,,,
,,,,,,,,,,,left.png,,w,left,616f0823ca981b3ebf4bfcac,2021-10-27_12h32.25.355,arrow_simon_punish,2021.1.2,Win32,59.95922773,,,,,,,,,,,,,,w,1,1.4929,1.695645962,0,1,9,1,37,2,1,,,,,,,,,,,,,,
,,,,,,,,,,,right.png,,p,left,616f0823ca981b3ebf4bfcac,2021-10-27_12h32.25.355,arrow_simon_punish,2021.1.2,Win32,59.95922773,,,,,,,,,,,,,,p,1,1.5673,2.143131551,0,1,9,2,38,0,1,,,,,,,,,,,,,,
,,,,,,,,,,,left.png,,w,left,616f0823ca981b3ebf4bfcac,2021-10-27_12h32.25.355,arrow_simon_punish,2021.1.2,Win32,59.95922773,,,,,,,,,,,,,,w,1,1.7792,2.385391271,1,1,9,3,39,2,1,,,,,,,,,,,,,,
,,,,,,,,,,,left.png,,w,right,616f0823ca981b3ebf4bfcac,2021-10-27_12h32.25.355,arrow_simon_punish,2021.1.2,Win32,59.95922773,,,,,,,,,,,,,,p,0,1.5135,1.536695042,1,1,10,0,40,3,1,,,,,,,,,,,,,,
,,,,,,,,,,,left.png,,w,right,616f0823ca981b3ebf4bfcac,2021-10-27_12h32.25.355,arrow_simon_punish,2021.1.2,Win32,59.95922773,,,,,,,,,,,,,,w,1,1.6912,2.399368427,1,1,10,1,41,3,1,,,,,,,,,,,,,,
,,,,,,,,,,,left.png,,w,left,616f0823ca981b3ebf4bfcac,2021-10-27_12h32.25.355,arrow_simon_punish,2021.1.2,Win32,59.95922773,,,,,,,,,,,,,,w,1,1.542,1.598370714,0,1,10,2,42,2,1,,,,,,,,,,,,,,
,,,,,,,,,,,left.png,,w,left,616f0823ca981b3ebf4bfcac,2021-10-27_12h32.25.355,arrow_simon_punish,2021.1.2,Win32,59.95922773,,,,,,,,,,,,,,w,1,1.5701,1.743329879,0,1,10,3,43,2,1,,,,,,,,,,,,,,
,,,,,,,,,,,right.png,,p,left,616f0823ca981b3ebf4bfcac,2021-10-27_12h32.25.355,arrow_simon_punish,2021.1.2,Win32,59.95922773,,,,,,,,,,,,,,w,0,1.6561,2.394535351,1,1,11,0,44,0,1,,,,,,,,,,,,,,
,,,,,,,,,,,left.png,,w,left,616f0823ca981b3ebf4bfcac,2021-10-27_12h32.25.355,arrow_simon_punish,2021.1.2,Win32,59.95922773,,,,,,,,,,,,,,w,1,1.5838,2.024191572,0,1,11,1,45,2,1,,,,,,,,,,,,,,
,,,,,,,,,,,right.png,,p,right,616f0823ca981b3ebf4bfcac,2021-10-27_12h32.25.355,arrow_simon_punish,2021.1.2,Win32,59.95922773,,,,,,,,,,,,,,p,1,1.5183,2.070666479,0,1,11,2,46,1,1,,,,,,,,,,,,,,
,,,,,,,,,,,left.png,,w,left,616f0823ca981b3ebf4bfcac,2021-10-27_12h32.25.355,arrow_simon_punish,2021.1.2,Win32,59.95922773,,,,,,,,,,,,,,w,1,1.461,2.013692498,0,1,11,3,47,2,1,,,,,,,,,,,,,,
,,,,,,,,,,,right.png,,p,right,616f0823ca981b3ebf4bfcac,2021-10-27_12h32.25.355,arrow_simon_punish,2021.1.2,Win32,59.95922773,,,,,,,,,,,,,,p,1,1.6059,2.20561063,1,1,12,0,48,1,1,,,,,,,,,,,,,,
,,,,,,,,,,,right.png,,p,right,616f0823ca981b3ebf4bfcac,2021-10-27_12h32.25.355,arrow_simon_punish,2021.1.2,Win32,59.95922773,,,,,,,,,,,,,,p,1,1.6101,1.86357476,1,1,12,1,49,1,1,,,,,,,,,,,,,,
,,,,,,,,,,,right.png,,p,left,616f0823ca981b3ebf4bfcac,2021-10-27_12h32.25.355,arrow_simon_punish,2021.1.2,Win32,59.95922773,,,,,,,,,,,,,,p,1,1.5422,1.575281314,0,1,12,2,50,0,1,,,,,,,,,,,,,,
,,,,,,,,,,,left.png,,w,right,616f0823ca981b3ebf4bfcac,2021-10-27_12h32.25.355,arrow_simon_punish,2021.1.2,Win32,59.95922773,,,,,,,,,,,,,,w,1,1.5556,2.070336332,0,1,12,3,51,3,1,,,,,,,,,,,,,,
,,,,,,,,,,,left.png,,w,left,616f0823ca981b3ebf4bfcac,2021-10-27_12h32.25.355,arrow_simon_punish,2021.1.2,Win32,59.95922773,,,,,,,,,,,,,,w,1,1.5339,1.571600159,0,1,13,0,52,2,1,,,,,,,,,,,,,,
,,,,,,,,,,,left.png,,w,left,616f0823ca981b3ebf4bfcac,2021-10-27_12h32.25.355,arrow_simon_punish,2021.1.2,Win32,59.95922773,,,,,,,,,,,,,,p,0,1.7172,2.427366136,1,1,13,1,53,2,1,,,,,,,,,,,,,,
,,,,,,,,,,,left.png,,w,right,616f0823ca981b3ebf4bfcac,2021-10-27_12h32.25.355,arrow_simon_punish,2021.1.2,Win32,59.95922773,,,,,,,,,,,,,,w,1,1.7003,1.797732354,1,1,13,2,54,3,1,,,,,,,,,,,,,,
,,,,,,,,,,,left.png,,w,right,616f0823ca981b3ebf4bfcac,2021-10-27_12h32.25.355,arrow_simon_punish,2021.1.2,Win32,59.95922773,,,,,,,,,,,,,,w,1,1.7032,2.063231663,1,1,13,3,55,3,1,,,,,,,,,,,,,,
,,,,,,,,,,,right.png,,p,left,616f0823ca981b3ebf4bfcac,2021-10-27_12h32.25.355,arrow_simon_punish,2021.1.2,Win32,59.95922773,,,,,,,,,,,,,,p,1,1.578,1.717698968,0,1,14,0,56,0,1,,,,,,,,,,,,,,
,,,,,,,,,,,left.png,,w,right,616f0823ca981b3ebf4bfcac,2021-10-27_12h32.25.355,arrow_simon_punish,2021.1.2,Win32,59.95922773,,,,,,,,,,,,,,p,0,1.6043,2.238539511,1,1,14,1,57,3,1,,,,,,,,,,,,,,
,,,,,,,,,,,left.png,,w,right,616f0823ca981b3ebf4bfcac,2021-10-27_12h32.25.355,arrow_simon_punish,2021.1.2,Win32,59.95922773,,,,,,,,,,,,,,w,1,1.617,1.615086982,1,1,14,2,58,3,1,,,,,,,,,,,,,,
,,,,,,,,,,,right.png,,p,left,616f0823ca981b3ebf4bfcac,2021-10-27_12h32.25.355,arrow_simon_punish,2021.1.2,Win32,59.95922773,,,,,,,,,,,,,,p,1,1.513,2.088048273,0,1,14,3,59,0,1,,,,,,,,,,,,,,
,,,,,,,,,,,,,,,616f0823ca981b3ebf4bfcac,2021-10-27_12h32.25.355,arrow_simon_punish,2021.1.2,Win32,59.95922773,,,,,,,,,,,,,,,,,,,,,,,,,space,96.4673,2,0,0,0,0,1,1,,,,,
,,,,,,,,,,,right.png,,p,right,616f0823ca981b3ebf4bfcac,2021-10-27_12h32.25.355,arrow_simon_punish,2021.1.2,Win32,59.95922773,,,,,,,,,,,,,,p,1,1.5606,1.751299238,0,5,0,0,0,1,1,,,,,,,,,,,,,,
,,,,,,,,,,,right.png,,p,left,616f0823ca981b3ebf4bfcac,2021-10-27_12h32.25.355,arrow_simon_punish,2021.1.2,Win32,59.95922773,,,,,,,,,,,,,,p,1,1.6227,1.916907096,1,5,0,1,1,0,1,,,,,,,,,,,,,,
,,,,,,,,,,,right.png,,p,right,616f0823ca981b3ebf4bfcac,2021-10-27_12h32.25.355,arrow_simon_punish,2021.1.2,Win32,59.95922773,,,,,,,,,,,,,,p,1,1.487,1.543354437,0,5,0,2,2,1,1,,,,,,,,,,,,,,
,,,,,,,,,,,right.png,,p,left,616f0823ca981b3ebf4bfcac,2021-10-27_12h32.25.355,arrow_simon_punish,2021.1.2,Win32,59.95922773,,,,,,,,,,,,,,p,1,1.5221,2.012765407,0,5,0,3,3,0,1,,,,,,,,,,,,,,
,,,,,,,,,,,left.png,,w,right,616f0823ca981b3ebf4bfcac,2021-10-27_12h32.25.355,arrow_simon_punish,2021.1.2,Win32,59.95922773,,,,,,,,,,,,,,w,1,1.4711,1.960250722,0,5,1,0,4,3,1,,,,,,,,,,,,,,
,,,,,,,,,,,right.png,,p,right,616f0823ca981b3ebf4bfcac,2021-10-27_12h32.25.355,arrow_simon_punish,2021.1.2,Win32,59.95922773,,,,,,,,,,,,,,p,1,1.4866,2.10941929,0,5,1,1,5,1,1,,,,,,,,,,,,,,
,,,,,,,,,,,right.png,,p,left,616f0823ca981b3ebf4bfcac,2021-10-27_12h32.25.355,arrow_simon_punish,2021.1.2,Win32,59.95922773,,,,,,,,,,,,,,p,1,1.5038,2.128579066,0,5,1,2,6,0,1,,,,,,,,,,,,,,
,,,,,,,,,,,right.png,,p,right,616f0823ca981b3ebf4bfcac,2021-10-27_12h32.25.355,arrow_simon_punish,2021.1.2,Win32,59.95922773,,,,,,,,,,,,,,p,1,1.5127,1.942229544,0,5,1,3,7,1,1,,,,,,,,,,,,,,
,,,,,,,,,,,right.png,,p,left,616f0823ca981b3ebf4bfcac,2021-10-27_12h32.25.355,arrow_simon_punish,2021.1.2,Win32,59.95922773,,,,,,,,,,,,,,p,1,1.4522,1.713093259,0,5,2,0,8,0,1,,,,,,,,,,,,,,
,,,,,,,,,,,left.png,,w,left,616f0823ca981b3ebf4bfcac,2021-10-27_12h32.25.355,arrow_simon_punish,2021.1.2,Win32,59.95922773,,,,,,,,,,,,,,w,1,1.4702,1.659871297,0,5,2,1,9,2,1,,,,,,,,,,,,,,
,,,,,,,,,,,left.png,,w,right,616f0823ca981b3ebf4bfcac,2021-10-27_12h32.25.355,arrow_simon_punish,2021.1.2,Win32,59.95922773,,,,,,,,,,,,,,w,1,1.4808,1.871092618,0,5,2,2,10,3,1,,,,,,,,,,,,,,
,,,,,,,,,,,left.png,,w,left,616f0823ca981b3ebf4bfcac,2021-10-27_12h32.25.355,arrow_simon_punish,2021.1.2,Win32,59.95922773,,,,,,,,,,,,,,w,1,1.6869,2.437377985,1,5,2,3,11,2,1,,,,,,,,,,,,,,
,,,,,,,,,,,left.png,,w,left,616f0823ca981b3ebf4bfcac,2021-10-27_12h32.25.355,arrow_simon_punish,2021.1.2,Win32,59.95922773,,,,,,,,,,,,,,w,1,1.576,2.126598603,0,5,3,0,12,2,1,,,,,,,,,,,,,,
,,,,,,,,,,,left.png,,w,left,616f0823ca981b3ebf4bfcac,2021-10-27_12h32.25.355,arrow_simon_punish,2021.1.2,Win32,59.95922773,,,,,,,,,,,,,,w,1,1.5207,2.025162253,0,5,3,1,13,2,1,,,,,,,,,,,,,,
,,,,,,,,,,,left.png,,w,left,616f0823ca981b3ebf4bfcac,2021-10-27_12h32.25.355,arrow_simon_punish,2021.1.2,Win32,59.95922773,,,,,,,,,,,,,,w,1,1.5679,1.824573034,0,5,3,2,14,2,1,,,,,,,,,,,,,,
,,,,,,,,,,,right.png,,p,right,616f0823ca981b3ebf4bfcac,2021-10-27_12h32.25.355,arrow_simon_punish,2021.1.2,Win32,59.95922773,,,,,,,,,,,,,,p,1,1.636,2.373169665,1,5,3,3,15,1,1,,,,,,,,,,,,,,
,,,,,,,,,,,left.png,,w,right,616f0823ca981b3ebf4bfcac,2021-10-27_12h32.25.355,arrow_simon_punish,2021.1.2,Win32,59.95922773,,,,,,,,,,,,,,w,1,1.614,2.203487729,1,5,4,0,16,3,1,,,,,,,,,,,,,,
,,,,,,,,,,,right.png,,p,left,616f0823ca981b3ebf4bfcac,2021-10-27_12h32.25.355,arrow_simon_punish,2021.1.2,Win32,59.95922773,,,,,,,,,,,,,,p,1,1.5228,2.146291109,0,5,4,1,17,0,1,,,,,,,,,,,,,,
,,,,,,,,,,,right.png,,p,left,616f0823ca981b3ebf4bfcac,2021-10-27_12h32.25.355,arrow_simon_punish,2021.1.2,Win32,59.95922773,,,,,,,,,,,,,,w,0,1.6072,2.371035311,1,5,4,2,18,0,1,,,,,,,,,,,,,,
,,,,,,,,,,,right.png,,p,left,616f0823ca981b3ebf4bfcac,2021-10-27_12h32.25.355,arrow_simon_punish,2021.1.2,Win32,59.95922773,,,,,,,,,,,,,,p,1,1.4467,1.633728221,0,5,4,3,19,0,1,,,,,,,,,,,,,,
,,,,,,,,,,,left.png,,w,left,616f0823ca981b3ebf4bfcac,2021-10-27_12h32.25.355,arrow_simon_punish,2021.1.2,Win32,59.95922773,,,,,,,,,,,,,,w,1,1.5577,2.178868572,0,5,5,0,20,2,1,,,,,,,,,,,,,,
,,,,,,,,,,,right.png,,p,left,616f0823ca981b3ebf4bfcac,2021-10-27_12h32.25.355,arrow_simon_punish,2021.1.2,Win32,59.95922773,,,,,,,,,,,,,,p,1,1.497,1.634053853,0,5,5,1,21,0,1,,,,,,,,,,,,,,
,,,,,,,,,,,left.png,,w,left,616f0823ca981b3ebf4bfcac,2021-10-27_12h32.25.355,arrow_simon_punish,2021.1.2,Win32,59.95922773,,,,,,,,,,,,,,w,1,1.4591,2.073787137,0,5,5,2,22,2,1,,,,,,,,,,,,,,
,,,,,,,,,,,right.png,,p,right,616f0823ca981b3ebf4bfcac,2021-10-27_12h32.25.355,arrow_simon_punish,2021.1.2,Win32,59.95922773,,,,,,,,,,,,,,p,1,1.4775,1.586396979,0,5,5,3,23,1,1,,,,,,,,,,,,,,
,,,,,,,,,,,right.png,,p,left,616f0823ca981b3ebf4bfcac,2021-10-27_12h32.25.355,arrow_simon_punish,2021.1.2,Win32,59.95922773,,,,,,,,,,,,,,p,1,1.5966,2.115181525,0,5,6,0,24,0,1,,,,,,,,,,,,,,
,,,,,,,,,,,left.png,,w,right,616f0823ca981b3ebf4bfcac,2021-10-27_12h32.25.355,arrow_simon_punish,2021.1.2,Win32,59.95922773,,,,,,,,,,,,,,w,1,1.5192,1.710640083,0,5,6,1,25,3,1,,,,,,,,,,,,,,
,,,,,,,,,,,right.png,,p,left,616f0823ca981b3ebf4bfcac,2021-10-27_12h32.25.355,arrow_simon_punish,2021.1.2,Win32,59.95922773,,,,,,,,,,,,,,p,1,1.5912,1.866561352,0,5,6,2,26,0,1,,,,,,,,,,,,,,
,,,,,,,,,,,left.png,,w,left,616f0823ca981b3ebf4bfcac,2021-10-27_12h32.25.355,arrow_simon_punish,2021.1.2,Win32,59.95922773,,,,,,,,,,,,,,w,1,1.6955,2.497554593,1,5,6,3,27,2,1,,,,,,,,,,,,,,
,,,,,,,,,,,left.png,,w,right,616f0823ca981b3ebf4bfcac,2021-10-27_12h32.25.355,arrow_simon_punish,2021.1.2,Win32,59.95922773,,,,,,,,,,,,,,w,1,1.4798,1.820746664,0,5,7,0,28,3,1,,,,,,,,,,,,,,
,,,,,,,,,,,left.png,,w,left,616f0823ca981b3ebf4bfcac,2021-10-27_12h32.25.355,arrow_simon_punish,2021.1.2,Win32,59.95922773,,,,,,,,,,,,,,w,1,1.6339,2.416328596,1,5,7,1,29,2,1,,,,,,,,,,,,,,
,,,,,,,,,,,right.png,,p,left,616f0823ca981b3ebf4bfcac,2021-10-27_12h32.25.355,arrow_simon_punish,2021.1.2,Win32,59.95922773,,,,,,,,,,,,,,p,1,1.8171,2.157447953,1,5,7,2,30,0,1,,,,,,,,,,,,,,
,,,,,,,,,,,right.png,,p,right,616f0823ca981b3ebf4bfcac,2021-10-27_12h32.25.355,arrow_simon_punish,2021.1.2,Win32,59.95922773,,,,,,,,,,,,,,p,1,1.4438,2.078287978,0,5,7,3,31,1,1,,,,,,,,,,,,,,
,,,,,,,,,,,right.png,,p,right,616f0823ca981b3ebf4bfcac,2021-10-27_12h32.25.355,arrow_simon_punish,2021.1.2,Win32,59.95922773,,,,,,,,,,,,,,p,1,1.5173,2.25372729,0,5,8,0,32,1,1,,,,,,,,,,,,,,
,,,,,,,,,,,left.png,,w,right,616f0823ca981b3ebf4bfcac,2021-10-27_12h32.25.355,arrow_simon_punish,2021.1.2,Win32,59.95922773,,,,,,,,,,,,,,w,1,1.4228,1.664495928,0,5,8,1,33,3,1,,,,,,,,,,,,,,
,,,,,,,,,,,left.png,,w,left,616f0823ca981b3ebf4bfcac,2021-10-27_12h32.25.355,arrow_simon_punish,2021.1.2,Win32,59.95922773,,,,,,,,,,,,,,w,1,1.3967,2.054499634,1,5,8,2,34,2,1,,,,,,,,,,,,,,
,,,,,,,,,,,left.png,,w,left,616f0823ca981b3ebf4bfcac,2021-10-27_12h32.25.355,arrow_simon_punish,2021.1.2,Win32,59.95922773,,,,,,,,,,,,,,w,1,1.3341,1.977078425,1,5,8,3,35,2,1,,,,,,,,,,,,,,
,,,,,,,,,,,left.png,,w,right,616f0823ca981b3ebf4bfcac,2021-10-27_12h32.25.355,arrow_simon_punish,2021.1.2,Win32,59.95922773,,,,,,,,,,,,,,w,1,1.4724,1.656885144,0,5,9,0,36,3,1,,,,,,,,,,,,,,
,,,,,,,,,,,right.png,,p,left,616f0823ca981b3ebf4bfcac,2021-10-27_12h32.25.355,arrow_simon_punish,2021.1.2,Win32,59.95922773,,,,,,,,,,,,,,p,1,1.4808,1.741268346,0,5,9,1,37,0,1,,,,,,,,,,,,,,
,,,,,,,,,,,left.png,,w,left,616f0823ca981b3ebf4bfcac,2021-10-27_12h32.25.355,arrow_simon_punish,2021.1.2,Win32,59.95922773,,,,,,,,,,,,,,w,1,1.487,2.205050108,0,5,9,2,38,2,1,,,,,,,,,,,,,,
,,,,,,,,,,,right.png,,p,left,616f0823ca981b3ebf4bfcac,2021-10-27_12h32.25.355,arrow_simon_punish,2021.1.2,Win32,59.95922773,,,,,,,,,,,,,,p,1,1.4933,1.974020758,0,5,9,3,39,0,1,,,,,,,,,,,,,,
,,,,,,,,,,,left.png,,w,right,616f0823ca981b3ebf4bfcac,2021-10-27_12h32.25.355,arrow_simon_punish,2021.1.2,Win32,59.95922773,,,,,,,,,,,,,,p,0,1.6205,2.301146836,1,5,10,0,40,3,1,,,,,,,,,,,,,,
,,,,,,,,,,,right.png,,p,left,616f0823ca981b3ebf4bfcac,2021-10-27_12h32.25.355,arrow_simon_punish,2021.1.2,Win32,59.95922773,,,,,,,,,,,,,,p,1,1.9823,1.787888445,1,5,10,1,41,0,1,,,,,,,,,,,,,,
,,,,,,,,,,,right.png,,p,right,616f0823ca981b3ebf4bfcac,2021-10-27_12h32.25.355,arrow_simon_punish,2021.1.2,Win32,59.95922773,,,,,,,,,,,,,,p,1,1.4932,2.12052484,0,5,10,2,42,1,1,,,,,,,,,,,,,,
,,,,,,,,,,,right.png,,p,left,616f0823ca981b3ebf4bfcac,2021-10-27_12h32.25.355,arrow_simon_punish,2021.1.2,Win32,59.95922773,,,,,,,,,,,,,,w,0,1.597,2.344500219,1,5,10,3,43,0,1,,,,,,,,,,,,,,
,,,,,,,,,,,right.png,,p,right,616f0823ca981b3ebf4bfcac,2021-10-27_12h32.25.355,arrow_simon_punish,2021.1.2,Win32,59.95922773,,,,,,,,,,,,,,p,1,1.517,1.8493669,0,5,11,0,44,1,1,,,,,,,,,,,,,,
,,,,,,,,,,,left.png,,w,left,616f0823ca981b3ebf4bfcac,2021-10-27_12h32.25.355,arrow_simon_punish,2021.1.2,Win32,59.95922773,,,,,,,,,,,,,,w,1,1.494,2.01582309,0,5,11,1,45,2,1,,,,,,,,,,,,,,
,,,,,,,,,,,left.png,,w,right,616f0823ca981b3ebf4bfcac,2021-10-27_12h32.25.355,arrow_simon_punish,2021.1.2,Win32,59.95922773,,,,,,,,,,,,,,w,1,1.5202,1.825418755,0,5,11,2,46,3,1,,,,,,,,,,,,,,
,,,,,,,,,,,left.png,,w,right,616f0823ca981b3ebf4bfcac,2021-10-27_12h32.25.355,arrow_simon_punish,2021.1.2,Win32,59.95922773,,,,,,,,,,,,,,w,1,1.5008,1.543424629,0,5,11,3,47,3,1,,,,,,,,,,,,,,
,,,,,,,,,,,right.png,,p,right,616f0823ca981b3ebf4bfcac,2021-10-27_12h32.25.355,arrow_simon_punish,2021.1.2,Win32,59.95922773,,,,,,,,,,,,,,p,1,1.5691,2.16822953,0,5,12,0,48,1,1,,,,,,,,,,,,,,
,,,,,,,,,,,left.png,,w,left,616f0823ca981b3ebf4bfcac,2021-10-27_12h32.25.355,arrow_simon_punish,2021.1.2,Win32,59.95922773,,,,,,,,,,,,,,w,1,1.6964,2.439161565,1,5,12,1,49,2,1,,,,,,,,,,,,,,
,,,,,,,,,,,left.png,,w,right,616f0823ca981b3ebf4bfcac,2021-10-27_12h32.25.355,arrow_simon_punish,2021.1.2,Win32,59.95922773,,,,,,,,,,,,,,w,1,1.5269,1.734979383,0,5,12,2,50,3,1,,,,,,,,,,,,,,
,,,,,,,,,,,left.png,,w,right,616f0823ca981b3ebf4bfcac,2021-10-27_12h32.25.355,arrow_simon_punish,2021.1.2,Win32,59.95922773,,,,,,,,,,,,,,w,1,1.5212,1.645693034,0,5,12,3,51,3,1,,,,,,,,,,,,,,
,,,,,,,,,,,right.png,,p,right,616f0823ca981b3ebf4bfcac,2021-10-27_12h32.25.355,arrow_simon_punish,2021.1.2,Win32,59.95922773,,,,,,,,,,,,,,p,1,1.5138,2.205650932,0,5,13,0,52,1,1,,,,,,,,,,,,,,
,,,,,,,,,,,right.png,,p,right,616f0823ca981b3ebf4bfcac,2021-10-27_12h32.25.355,arrow_simon_punish,2021.1.2,Win32,59.95922773,,,,,,,,,,,,,,p,1,1.6006,2.354909907,1,5,13,1,53,1,1,,,,,,,,,,,,,,
,,,,,,,,,,,right.png,,p,right,616f0823ca981b3ebf4bfcac,2021-10-27_12h32.25.355,arrow_simon_punish,2021.1.2,Win32,59.95922773,,,,,,,,,,,,,,p,1,1.5085,1.550093249,0,5,13,2,54,1,1,,,,,,,,,,,,,,
,,,,,,,,,,,left.png,,w,right,616f0823ca981b3ebf4bfcac,2021-10-27_12h32.25.355,arrow_simon_punish,2021.1.2,Win32,59.95922773,,,,,,,,,,,,,,p,0,1.6344,2.399839451,1,5,13,3,55,3,1,,,,,,,,,,,,,,
,,,,,,,,,,,left.png,,w,right,616f0823ca981b3ebf4bfcac,2021-10-27_12h32.25.355,arrow_simon_punish,2021.1.2,Win32,59.95922773,,,,,,,,,,,,,,w,1,1.5786,2.021550054,0,5,14,0,56,3,1,,,,,,,,,,,,,,
,,,,,,,,,,,left.png,,w,left,616f0823ca981b3ebf4bfcac,2021-10-27_12h32.25.355,arrow_simon_punish,2021.1.2,Win32,59.95922773,,,,,,,,,,,,,,w,1,1.5949,1.83182912,0,5,14,1,57,2,1,,,,,,,,,,,,,,
,,,,,,,,,,,right.png,,p,right,616f0823ca981b3ebf4bfcac,2021-10-27_12h32.25.355,arrow_simon_punish,2021.1.2,Win32,59.95922773,,,,,,,,,,,,,,w,0,1.5216,2.462452394,1,5,14,2,58,1,1,,,,,,,,,,,,,,
,,,,,,,,,,,left.png,,w,right,616f0823ca981b3ebf4bfcac,2021-10-27_12h32.25.355,arrow_simon_punish,2021.1.2,Win32,59.95922773,,,,,,,,,,,,,,w,1,1.5455,2.015281912,0,5,14,3,59,3,1,,,,,,,,,,,,,,
,,,,,,,,,,,,,,,616f0823ca981b3ebf4bfcac,2021-10-27_12h32.25.355,arrow_simon_punish,2021.1.2,Win32,59.95922773,,,,,,,,,,,,,,,,,,,,,,,,,space,346.4053,3,0,1,1,1,1,5,,,,,
,,,,,,,,,,,right.png,,p,left,616f0823ca981b3ebf4bfcac,2021-10-27_12h32.25.355,arrow_simon_punish,2021.1.2,Win32,59.95922773,,,,,,,,,,,,,,p,1,1.4121,1.640340457,0,1,0,0,0,0,1,,,,,,,,,,,,,,
,,,,,,,,,,,left.png,,w,left,616f0823ca981b3ebf4bfcac,2021-10-27_12h32.25.355,arrow_simon_punish,2021.1.2,Win32,59.95922773,,,,,,,,,,,,,,w,1,1.4759,1.642821942,0,1,0,1,1,2,1,,,,,,,,,,,,,,
,,,,,,,,,,,right.png,,p,right,616f0823ca981b3ebf4bfcac,2021-10-27_12h32.25.355,arrow_simon_punish,2021.1.2,Win32,59.95922773,,,,,,,,,,,,,,p,1,1.5705,2.239272001,0,1,0,2,2,1,1,,,,,,,,,,,,,,
,,,,,,,,,,,right.png,,p,right,616f0823ca981b3ebf4bfcac,2021-10-27_12h32.25.355,arrow_simon_punish,2021.1.2,Win32,59.95922773,,,,,,,,,,,,,,p,1,1.6484,2.425786305,1,1,0,3,3,1,1,,,,,,,,,,,,,,
,,,,,,,,,,,left.png,,w,left,616f0823ca981b3ebf4bfcac,2021-10-27_12h32.25.355,arrow_simon_punish,2021.1.2,Win32,59.95922773,,,,,,,,,,,,,,w,1,1.4941,1.777672073,0,1,1,0,4,2,1,,,,,,,,,,,,,,
,,,,,,,,,,,right.png,,p,left,616f0823ca981b3ebf4bfcac,2021-10-27_12h32.25.355,arrow_simon_punish,2021.1.2,Win32,59.95922773,,,,,,,,,,,,,,p,1,1.4723,2.013996744,0,1,1,1,5,0,1,,,,,,,,,,,,,,
,,,,,,,,,,,left.png,,w,right,616f0823ca981b3ebf4bfcac,2021-10-27_12h32.25.355,arrow_simon_punish,2021.1.2,Win32,59.95922773,,,,,,,,,,,,,,p,0,1.434,2.128723767,1,1,1,2,6,3,1,,,,,,,,,,,,,,
,,,,,,,,,,,left.png,,w,right,616f0823ca981b3ebf4bfcac,2021-10-27_12h32.25.355,arrow_simon_punish,2021.1.2,Win32,59.95922773,,,,,,,,,,,,,,w,1,1.4477,1.727722979,0,1,1,3,7,3,1,,,,,,,,,,,,,,
,,,,,,,,,,,right.png,,p,left,616f0823ca981b3ebf4bfcac,2021-10-27_12h32.25.355,arrow_simon_punish,2021.1.2,Win32,59.95922773,,,,,,,,,,,,,,p,1,1.4341,1.710963117,0,1,2,0,8,0,1,,,,,,,,,,,,,,
,,,,,,,,,,,left.png,,w,left,616f0823ca981b3ebf4bfcac,2021-10-27_12h32.25.355,arrow_simon_punish,2021.1.2,Win32,59.95922773,,,,,,,,,,,,,,w,1,1.5179,1.940856226,0,1,2,1,9,2,1,,,,,,,,,,,,,,
,,,,,,,,,,,right.png,,p,right,616f0823ca981b3ebf4bfcac,2021-10-27_12h32.25.355,arrow_simon_punish,2021.1.2,Win32,59.95922773,,,,,,,,,,,,,,p,1,1.6941,2.470384578,1,1,2,2,10,1,1,,,,,,,,,,,,,,
,,,,,,,,,,,left.png,,w,right,616f0823ca981b3ebf4bfcac,2021-10-27_12h32.25.355,arrow_simon_punish,2021.1.2,Win32,59.95922773,,,,,,,,,,,,,,w,1,1.4173,1.602205801,0,1,2,3,11,3,1,,,,,,,,,,,,,,
,,,,,,,,,,,left.png,,w,left,616f0823ca981b3ebf4bfcac,2021-10-27_12h32.25.355,arrow_simon_punish,2021.1.2,Win32,59.95922773,,,,,,,,,,,,,,w,1,1.4946,1.991545331,0,1,3,0,12,2,1,,,,,,,,,,,,,,
,,,,,,,,,,,left.png,,w,right,616f0823ca981b3ebf4bfcac,2021-10-27_12h32.25.355,arrow_simon_punish,2021.1.2,Win32,59.95922773,,,,,,,,,,,,,,w,1,1.4276,1.565747344,0,1,3,1,13,3,1,,,,,,,,,,,,,,
,,,,,,,,,,,left.png,,w,left,616f0823ca981b3ebf4bfcac,2021-10-27_12h32.25.355,arrow_simon_punish,2021.1.2,Win32,59.95922773,,,,,,,,,,,,,,w,1,1.5284,2.198094125,0,1,3,2,14,2,1,,,,,,,,,,,,,,
,,,,,,,,,,,right.png,,p,left,616f0823ca981b3ebf4bfcac,2021-10-27_12h32.25.355,arrow_simon_punish,2021.1.2,Win32,59.95922773,,,,,,,,,,,,,,w,0,1.5628,2.295083336,1,1,3,3,15,0,1,,,,,,,,,,,,,,
,,,,,,,,,,,right.png,,p,right,616f0823ca981b3ebf4bfcac,2021-10-27_12h32.25.355,arrow_simon_punish,2021.1.2,Win32,59.95922773,,,,,,,,,,,,,,p,1,1.4758,2.066679525,0,1,4,0,16,1,1,,,,,,,,,,,,,,
,,,,,,,,,,,right.png,,p,left,616f0823ca981b3ebf4bfcac,2021-10-27_12h32.25.355,arrow_simon_punish,2021.1.2,Win32,59.95922773,,,,,,,,,,,,,,p,1,1.5798,2.178303834,0,1,4,1,17,0,1,,,,,,,,,,,,,,
,,,,,,,,,,,left.png,,w,left,616f0823ca981b3ebf4bfcac,2021-10-27_12h32.25.355,arrow_simon_punish,2021.1.2,Win32,59.95922773,,,,,,,,,,,,,,p,0,1.7549,2.479125968,1,1,4,2,18,2,1,,,,,,,,,,,,,,
,,,,,,,,,,,left.png,,w,left,616f0823ca981b3ebf4bfcac,2021-10-27_12h32.25.355,arrow_simon_punish,2021.1.2,Win32,59.95922773,,,,,,,,,,,,,,w,1,1.4974,1.725120726,0,1,4,3,19,2,1,,,,,,,,,,,,,,
,,,,,,,,,,,left.png,,w,right,616f0823ca981b3ebf4bfcac,2021-10-27_12h32.25.355,arrow_simon_punish,2021.1.2,Win32,59.95922773,,,,,,,,,,,,,,w,1,1.4906,1.599461047,0,1,5,0,20,3,1,,,,,,,,,,,,,,
,,,,,,,,,,,right.png,,p,left,616f0823ca981b3ebf4bfcac,2021-10-27_12h32.25.355,arrow_simon_punish,2021.1.2,Win32,59.95922773,,,,,,,,,,,,,,p,1,1.811,2.321773351,1,1,5,1,21,0,1,,,,,,,,,,,,,,
,,,,,,,,,,,left.png,,w,right,616f0823ca981b3ebf4bfcac,2021-10-27_12h32.25.355,arrow_simon_punish,2021.1.2,Win32,59.95922773,,,,,,,,,,,,,,w,1,1.5729,1.879779674,0,1,5,2,22,3,1,,,,,,,,,,,,,,
,,,,,,,,,,,right.png,,p,right,616f0823ca981b3ebf4bfcac,2021-10-27_12h32.25.355,arrow_simon_punish,2021.1.2,Win32,59.95922773,,,,,,,,,,,,,,p,1,1.4557,1.574497568,0,1,5,3,23,1,1,,,,,,,,,,,,,,
,,,,,,,,,,,left.png,,w,left,616f0823ca981b3ebf4bfcac,2021-10-27_12h32.25.355,arrow_simon_punish,2021.1.2,Win32,59.95922773,,,,,,,,,,,,,,w,1,1.5898,2.296688971,0,1,6,0,24,2,1,,,,,,,,,,,,,,
,,,,,,,,,,,right.png,,p,left,616f0823ca981b3ebf4bfcac,2021-10-27_12h32.25.355,arrow_simon_punish,2021.1.2,Win32,59.95922773,,,,,,,,,,,,,,p,1,1.5376,1.881305323,0,1,6,1,25,0,1,,,,,,,,,,,,,,
,,,,,,,,,,,left.png,,w,right,616f0823ca981b3ebf4bfcac,2021-10-27_12h32.25.355,arrow_simon_punish,2021.1.2,Win32,59.95922773,,,,,,,,,,,,,,w,1,1.5184,1.714330616,0,1,6,2,26,3,1,,,,,,,,,,,,,,
,,,,,,,,,,,right.png,,p,left,616f0823ca981b3ebf4bfcac,2021-10-27_12h32.25.355,arrow_simon_punish,2021.1.2,Win32,59.95922773,,,,,,,,,,,,,,p,1,1.513,1.599697568,0,1,6,3,27,0,1,,,,,,,,,,,,,,
,,,,,,,,,,,right.png,,p,right,616f0823ca981b3ebf4bfcac,2021-10-27_12h32.25.355,arrow_simon_punish,2021.1.2,Win32,59.95922773,,,,,,,,,,,,,,w,0,1.5999,2.327700023,1,1,7,0,28,1,1,,,,,,,,,,,,,,
,,,,,,,,,,,right.png,,p,left,616f0823ca981b3ebf4bfcac,2021-10-27_12h32.25.355,arrow_simon_punish,2021.1.2,Win32,59.95922773,,,,,,,,,,,,,,p,1,1.4422,1.576756468,0,1,7,1,29,0,1,,,,,,,,,,,,,,
,,,,,,,,,,,right.png,,p,right,616f0823ca981b3ebf4bfcac,2021-10-27_12h32.25.355,arrow_simon_punish,2021.1.2,Win32,59.95922773,,,,,,,,,,,,,,p,1,1.5674,2.314771251,0,1,7,2,30,1,1,,,,,,,,,,,,,,
,,,,,,,,,,,left.png,,w,left,616f0823ca981b3ebf4bfcac,2021-10-27_12h32.25.355,arrow_simon_punish,2021.1.2,Win32,59.95922773,,,,,,,,,,,,,,w,1,1.4781,1.79810377,0,1,7,3,31,2,1,,,,,,,,,,,,,,
,,,,,,,,,,,left.png,,w,right,616f0823ca981b3ebf4bfcac,2021-10-27_12h32.25.355,arrow_simon_punish,2021.1.2,Win32,59.95922773,,,,,,,,,,,,,,p,0,1.4541,2.124178899,1,1,8,0,32,3,1,,,,,,,,,,,,,,
,,,,,,,,,,,left.png,,w,right,616f0823ca981b3ebf4bfcac,2021-10-27_12h32.25.355,arrow_simon_punish,2021.1.2,Win32,59.95922773,,,,,,,,,,,,,,w,1,1.4635,1.887154868,0,1,8,1,33,3,1,,,,,,,,,,,,,,
,,,,,,,,,,,right.png,,p,right,616f0823ca981b3ebf4bfcac,2021-10-27_12h32.25.355,arrow_simon_punish,2021.1.2,Win32,59.95922773,,,,,,,,,,,,,,p,1,1.3676,1.980936791,1,1,8,2,34,1,1,,,,,,,,,,,,,,
,,,,,,,,,,,right.png,,p,right,616f0823ca981b3ebf4bfcac,2021-10-27_12h32.25.355,arrow_simon_punish,2021.1.2,Win32,59.95922773,,,,,,,,,,,,,,p,1,1.518,1.837973476,0,1,8,3,35,1,1,,,,,,,,,,,,,,
,,,,,,,,,,,left.png,,w,left,616f0823ca981b3ebf4bfcac,2021-10-27_12h32.25.355,arrow_simon_punish,2021.1.2,Win32,59.95922773,,,,,,,,,,,,,,w,1,1.4964,1.626776047,0,1,9,0,36,2,1,,,,,,,,,,,,,,
,,,,,,,,,,,right.png,,p,left,616f0823ca981b3ebf4bfcac,2021-10-27_12h32.25.355,arrow_simon_punish,2021.1.2,Win32,59.95922773,,,,,,,,,,,,,,p,1,1.6181,2.472714813,1,1,9,1,37,0,1,,,,,,,,,,,,,,
,,,,,,,,,,,right.png,,p,left,616f0823ca981b3ebf4bfcac,2021-10-27_12h32.25.355,arrow_simon_punish,2021.1.2,Win32,59.95922773,,,,,,,,,,,,,,p,1,1.535,2.132662466,0,1,9,2,38,0,1,,,,,,,,,,,,,,
,,,,,,,,,,,right.png,,p,right,616f0823ca981b3ebf4bfcac,2021-10-27_12h32.25.355,arrow_simon_punish,2021.1.2,Win32,59.95922773,,,,,,,,,,,,,,p,1,1.4727,1.669509554,0,1,9,3,39,1,1,,,,,,,,,,,,,,
,,,,,,,,,,,left.png,,w,left,616f0823ca981b3ebf4bfcac,2021-10-27_12h32.25.355,arrow_simon_punish,2021.1.2,Win32,59.95922773,,,,,,,,,,,,,,w,1,1.7072,2.419166077,1,1,10,0,40,2,1,,,,,,,,,,,,,,
,,,,,,,,,,,left.png,,w,right,616f0823ca981b3ebf4bfcac,2021-10-27_12h32.25.355,arrow_simon_punish,2021.1.2,Win32,59.95922773,,,,,,,,,,,,,,w,1,1.5297,1.853019894,0,1,10,1,41,3,1,,,,,,,,,,,,,,
,,,,,,,,,,,right.png,,p,left,616f0823ca981b3ebf4bfcac,2021-10-27_12h32.25.355,arrow_simon_punish,2021.1.2,Win32,59.95922773,,,,,,,,,,,,,,p,1,1.5874,2.021941624,0,1,10,2,42,0,1,,,,,,,,,,,,,,
,,,,,,,,,,,left.png,,w,left,616f0823ca981b3ebf4bfcac,2021-10-27_12h32.25.355,arrow_simon_punish,2021.1.2,Win32,59.95922773,,,,,,,,,,,,,,w,1,1.4846,1.514441937,0,1,10,3,43,2,1,,,,,,,,,,,,,,
,,,,,,,,,,,left.png,,w,right,616f0823ca981b3ebf4bfcac,2021-10-27_12h32.25.355,arrow_simon_punish,2021.1.2,Win32,59.95922773,,,,,,,,,,,,,,w,1,1.4935,1.564373923,0,1,11,0,44,3,1,,,,,,,,,,,,,,
,,,,,,,,,,,right.png,,p,right,616f0823ca981b3ebf4bfcac,2021-10-27_12h32.25.355,arrow_simon_punish,2021.1.2,Win32,59.95922773,,,,,,,,,,,,,,p,1,1.5676,2.18597005,0,1,11,1,45,1,1,,,,,,,,,,,,,,
,,,,,,,,,,,left.png,,w,left,616f0823ca981b3ebf4bfcac,2021-10-27_12h32.25.355,arrow_simon_punish,2021.1.2,Win32,59.95922773,,,,,,,,,,,,,,w,1,1.4597,1.832964426,0,1,11,2,46,2,1,,,,,,,,,,,,,,
,,,,,,,,,,,right.png,,p,right,616f0823ca981b3ebf4bfcac,2021-10-27_12h32.25.355,arrow_simon_punish,2021.1.2,Win32,59.95922773,,,,,,,,,,,,,,p,1,1.6333,2.210710576,1,1,11,3,47,1,1,,,,,,,,,,,,,,
,,,,,,,,,,,right.png,,p,left,616f0823ca981b3ebf4bfcac,2021-10-27_12h32.25.355,arrow_simon_punish,2021.1.2,Win32,59.95922773,,,,,,,,,,,,,,w,0,1.5007,2.272526079,1,1,12,0,48,0,1,,,,,,,,,,,,,,
,,,,,,,,,,,left.png,,w,right,616f0823ca981b3ebf4bfcac,2021-10-27_12h32.25.355,arrow_simon_punish,2021.1.2,Win32,59.95922773,,,,,,,,,,,,,,p,0,1.567,2.279446413,1,1,12,1,49,3,1,,,,,,,,,,,,,,
,,,,,,,,,,,left.png,,w,right,616f0823ca981b3ebf4bfcac,2021-10-27_12h32.25.355,arrow_simon_punish,2021.1.2,Win32,59.95922773,,,,,,,,,,,,,,p,0,1.6281,2.375485969,1,1,12,2,50,3,1,,,,,,,,,,,,,,
,,,,,,,,,,,right.png,,p,left,616f0823ca981b3ebf4bfcac,2021-10-27_12h32.25.355,arrow_simon_punish,2021.1.2,Win32,59.95922773,,,,,,,,,,,,,,p,1,1.8232,2.466200624,1,1,12,3,51,0,1,,,,,,,,,,,,,,
,,,,,,,,,,,left.png,,w,left,616f0823ca981b3ebf4bfcac,2021-10-27_12h32.25.355,arrow_simon_punish,2021.1.2,Win32,59.95922773,,,,,,,,,,,,,,w,1,1.476,2.093288303,0,1,13,0,52,2,1,,,,,,,,,,,,,,
,,,,,,,,,,,left.png,,w,right,616f0823ca981b3ebf4bfcac,2021-10-27_12h32.25.355,arrow_simon_punish,2021.1.2,Win32,59.95922773,,,,,,,,,,,,,,w,1,1.5096,1.783785608,0,1,13,1,53,3,1,,,,,,,,,,,,,,
,,,,,,,,,,,right.png,,p,right,616f0823ca981b3ebf4bfcac,2021-10-27_12h32.25.355,arrow_simon_punish,2021.1.2,Win32,59.95922773,,,,,,,,,,,,,,p,1,1.4447,1.522671125,0,1,13,2,54,1,1,,,,,,,,,,,,,,
,,,,,,,,,,,right.png,,p,right,616f0823ca981b3ebf4bfcac,2021-10-27_12h32.25.355,arrow_simon_punish,2021.1.2,Win32,59.95922773,,,,,,,,,,,,,,p,1,1.5221,1.974986396,0,1,13,3,55,1,1,,,,,,,,,,,,,,
,,,,,,,,,,,right.png,,p,left,616f0823ca981b3ebf4bfcac,2021-10-27_12h32.25.355,arrow_simon_punish,2021.1.2,Win32,59.95922773,,,,,,,,,,,,,,w,0,1.5346,2.242085263,1,1,14,0,56,0,1,,,,,,,,,,,,,,
,,,,,,,,,,,left.png,,w,right,616f0823ca981b3ebf4bfcac,2021-10-27_12h32.25.355,arrow_simon_punish,2021.1.2,Win32,59.95922773,,,,,,,,,,,,,,w,1,1.5276,2.010595915,0,1,14,1,57,3,1,,,,,,,,,,,,,,
,,,,,,,,,,,right.png,,p,right,616f0823ca981b3ebf4bfcac,2021-10-27_12h32.25.355,arrow_simon_punish,2021.1.2,Win32,59.95922773,,,,,,,,,,,,,,p,1,1.5528,2.370242638,0,1,14,2,58,1,1,,,,,,,,,,,,,,
,,,,,,,,,,,left.png,,w,left,616f0823ca981b3ebf4bfcac,2021-10-27_12h32.25.355,arrow_simon_punish,2021.1.2,Win32,59.95922773,,,,,,,,,,,,,,w,1,1.4736,1.595684968,0,1,14,3,59,2,1,,,,,,,,,,,,,,
,,,,,,,,,,,,,,,616f0823ca981b3ebf4bfcac,2021-10-27_12h32.25.355,arrow_simon_punish,2021.1.2,Win32,59.95922773,,,,,,,,,,,,,,,,,,,,,,,,,space,1.7755,4,1,0,2,0,1,1,,,,,
,,,,,,,,,,,right.png,,p,right,616f0823ca981b3ebf4bfcac,2021-10-27_12h32.25.355,arrow_simon_punish,2021.1.2,Win32,59.95922773,,,,,,,,,,,,,,p,1,1.4973,1.677226889,0,5,0,0,0,1,1,,,,,,,,,,,,,,
,,,,,,,,,,,left.png,,w,right,616f0823ca981b3ebf4bfcac,2021-10-27_12h32.25.355,arrow_simon_punish,2021.1.2,Win32,59.95922773,,,,,,,,,,,,,,w,1,1.5095,2.304377734,0,5,0,1,1,3,1,,,,,,,,,,,,,,
,,,,,,,,,,,right.png,,p,right,616f0823ca981b3ebf4bfcac,2021-10-27_12h32.25.355,arrow_simon_punish,2021.1.2,Win32,59.95922773,,,,,,,,,,,,,,p,1,1.5617,1.962806729,0,5,0,2,2,1,1,,,,,,,,,,,,,,
,,,,,,,,,,,right.png,,p,right,616f0823ca981b3ebf4bfcac,2021-10-27_12h32.25.355,arrow_simon_punish,2021.1.2,Win32,59.95922773,,,,,,,,,,,,,,p,1,1.5573,1.887194146,0,5,0,3,3,1,1,,,,,,,,,,,,,,
,,,,,,,,,,,right.png,,p,left,616f0823ca981b3ebf4bfcac,2021-10-27_12h32.25.355,arrow_simon_punish,2021.1.2,Win32,59.95922773,,,,,,,,,,,,,,p,1,1.4704,1.555199785,0,5,1,0,4,0,1,,,,,,,,,,,,,,
,,,,,,,,,,,right.png,,p,left,616f0823ca981b3ebf4bfcac,2021-10-27_12h32.25.355,arrow_simon_punish,2021.1.2,Win32,59.95922773,,,,,,,,,,,,,,p,1,1.54,1.800735978,0,5,1,1,5,0,1,,,,,,,,,,,,,,
,,,,,,,,,,,left.png,,w,left,616f0823ca981b3ebf4bfcac,2021-10-27_12h32.25.355,arrow_simon_punish,2021.1.2,Win32,59.95922773,,,,,,,,,,,,,,w,1,1.508,1.739260389,0,5,1,2,6,2,1,,,,,,,,,,,,,,
,,,,,,,,,,,left.png,,w,left,616f0823ca981b3ebf4bfcac,2021-10-27_12h32.25.355,arrow_simon_punish,2021.1.2,Win32,59.95922773,,,,,,,,,,,,,,w,1,1.5615,2.381603804,0,5,1,3,7,2,1,,,,,,,,,,,,,,
,,,,,,,,,,,left.png,,w,left,616f0823ca981b3ebf4bfcac,2021-10-27_12h32.25.355,arrow_simon_punish,2021.1.2,Win32,59.95922773,,,,,,,,,,,,,,p,0,1.5965,2.447049882,1,5,2,0,8,2,1,,,,,,,,,,,,,,
,,,,,,,,,,,left.png,,w,right,616f0823ca981b3ebf4bfcac,2021-10-27_12h32.25.355,arrow_simon_punish,2021.1.2,Win32,59.95922773,,,,,,,,,,,,,,w,1,1.4648,1.641307124,0,5,2,1,9,3,1,,,,,,,,,,,,,,
,,,,,,,,,,,left.png,,w,left,616f0823ca981b3ebf4bfcac,2021-10-27_12h32.25.355,arrow_simon_punish,2021.1.2,Win32,59.95922773,,,,,,,,,,,,,,w,1,1.495,2.117763869,0,5,2,2,10,2,1,,,,,,,,,,,,,,
,,,,,,,,,,,left.png,,w,left,616f0823ca981b3ebf4bfcac,2021-10-27_12h32.25.355,arrow_simon_punish,2021.1.2,Win32,59.95922773,,,,,,,,,,,,,,w,1,1.7041,2.423089726,1,5,2,3,11,2,1,,,,,,,,,,,,,,
,,,,,,,,,,,right.png,,p,right,616f0823ca981b3ebf4bfcac,2021-10-27_12h32.25.355,arrow_simon_punish,2021.1.2,Win32,59.95922773,,,,,,,,,,,,,,p,1,1.4924,1.690302178,0,5,3,0,12,1,1,,,,,,,,,,,,,,
,,,,,,,,,,,right.png,,p,left,616f0823ca981b3ebf4bfcac,2021-10-27_12h32.25.355,arrow_simon_punish,2021.1.2,Win32,59.95922773,,,,,,,,,,,,,,w,0,1.4197,2.118768765,1,5,3,1,13,0,1,,,,,,,,,,,,,,
,,,,,,,,,,,left.png,,w,right,616f0823ca981b3ebf4bfcac,2021-10-27_12h32.25.355,arrow_simon_punish,2021.1.2,Win32,59.95922773,,,,,,,,,,,,,,w,1,1.4747,1.630001898,0,5,3,2,14,3,1,,,,,,,,,,,,,,
,,,,,,,,,,,right.png,,p,right,616f0823ca981b3ebf4bfcac,2021-10-27_12h32.25.355,arrow_simon_punish,2021.1.2,Win32,59.95922773,,,,,,,,,,,,,,p,1,1.5233,2.107992207,0,5,3,3,15,1,1,,,,,,,,,,,,,,
,,,,,,,,,,,left.png,,w,right,616f0823ca981b3ebf4bfcac,2021-10-27_12h32.25.355,arrow_simon_punish,2021.1.2,Win32,59.95922773,,,,,,,,,,,,,,w,1,1.5008,2.083857682,0,5,4,0,16,3,1,,,,,,,,,,,,,,
,,,,,,,,,,,right.png,,p,right,616f0823ca981b3ebf4bfcac,2021-10-27_12h32.25.355,arrow_simon_punish,2021.1.2,Win32,59.95922773,,,,,,,,,,,,,,p,1,1.5343,2.244005234,0,5,4,1,17,1,1,,,,,,,,,,,,,,
,,,,,,,,,,,left.png,,w,left,616f0823ca981b3ebf4bfcac,2021-10-27_12h32.25.355,arrow_simon_punish,2021.1.2,Win32,59.95922773,,,,,,,,,,,,,,w,1,1.6451,2.020080873,1,5,4,2,18,2,1,,,,,,,,,,,,,,
,,,,,,,,,,,right.png,,p,left,616f0823ca981b3ebf4bfcac,2021-10-27_12h32.25.355,arrow_simon_punish,2021.1.2,Win32,59.95922773,,,,,,,,,,,,,,p,1,1.4869,1.909815572,0,5,4,3,19,0,1,,,,,,,,,,,,,,
,,,,,,,,,,,right.png,,p,left,616f0823ca981b3ebf4bfcac,2021-10-27_12h32.25.355,arrow_simon_punish,2021.1.2,Win32,59.95922773,,,,,,,,,,,,,,w,0,1.6595,2.448260269,1,5,5,0,20,0,1,,,,,,,,,,,,,,
,,,,,,,,,,,left.png,,w,left,616f0823ca981b3ebf4bfcac,2021-10-27_12h32.25.355,arrow_simon_punish,2021.1.2,Win32,59.95922773,,,,,,,,,,,,,,p,0,1.6562,2.453970318,1,5,5,1,21,2,1,,,,,,,,,,,,,,
,,,,,,,,,,,right.png,,p,right,616f0823ca981b3ebf4bfcac,2021-10-27_12h32.25.355,arrow_simon_punish,2021.1.2,Win32,59.95922773,,,,,,,,,,,,,,p,1,1.454,1.541978213,0,5,5,2,22,1,1,,,,,,,,,,,,,,
,,,,,,,,,,,left.png,,w,left,616f0823ca981b3ebf4bfcac,2021-10-27_12h32.25.355,arrow_simon_punish,2021.1.2,Win32,59.95922773,,,,,,,,,,,,,,w,1,1.4459,1.687869044,0,5,5,3,23,2,1,,,,,,,,,,,,,,
,,,,,,,,,,,right.png,,p,left,616f0823ca981b3ebf4bfcac,2021-10-27_12h32.25.355,arrow_simon_punish,2021.1.2,Win32,59.95922773,,,,,,,,,,,,,,p,1,1.3465,1.613790492,1,5,6,0,24,0,1,,,,,,,,,,,,,,
,,,,,,,,,,,left.png,,w,right,616f0823ca981b3ebf4bfcac,2021-10-27_12h32.25.355,arrow_simon_punish,2021.1.2,Win32,59.95922773,,,,,,,,,,,,,,p,0,1.6283,2.401369514,1,5,6,1,25,3,1,,,,,,,,,,,,,,
,,,,,,,,,,,right.png,,p,right,616f0823ca981b3ebf4bfcac,2021-10-27_12h32.25.355,arrow_simon_punish,2021.1.2,Win32,59.95922773,,,,,,,,,,,,,,p,1,1.4808,1.504387357,0,5,6,2,26,1,1,,,,,,,,,,,,,,
,,,,,,,,,,,right.png,,p,left,616f0823ca981b3ebf4bfcac,2021-10-27_12h32.25.355,arrow_simon_punish,2021.1.2,Win32,59.95922773,,,,,,,,,,,,,,w,0,1.5544,2.459773883,1,5,6,3,27,0,1,,,,,,,,,,,,,,
,,,,,,,,,,,left.png,,w,right,616f0823ca981b3ebf4bfcac,2021-10-27_12h32.25.355,arrow_simon_punish,2021.1.2,Win32,59.95922773,,,,,,,,,,,,,,w,1,1.6353,2.072305554,1,5,7,0,28,3,1,,,,,,,,,,,,,,
,,,,,,,,,,,right.png,,p,right,616f0823ca981b3ebf4bfcac,2021-10-27_12h32.25.355,arrow_simon_punish,2021.1.2,Win32,59.95922773,,,,,,,,,,,,,,p,1,1.5106,2.20211954,0,5,7,1,29,1,1,,,,,,,,,,,,,,
,,,,,,,,,,,right.png,,p,left,616f0823ca981b3ebf4bfcac,2021-10-27_12h32.25.355,arrow_simon_punish,2021.1.2,Win32,59.95922773,,,,,,,,,,,,,,p,1,1.4521,1.581799257,0,5,7,2,30,0,1,,,,,,,,,,,,,,
,,,,,,,,,,,left.png,,w,right,616f0823ca981b3ebf4bfcac,2021-10-27_12h32.25.355,arrow_simon_punish,2021.1.2,Win32,59.95922773,,,,,,,,,,,,,,w,1,1.4811,1.804525533,0,5,7,3,31,3,1,,,,,,,,,,,,,,
,,,,,,,,,,,right.png,,p,right,616f0823ca981b3ebf4bfcac,2021-10-27_12h32.25.355,arrow_simon_punish,2021.1.2,Win32,59.95922773,,,,,,,,,,,,,,p,1,1.5508,1.819378188,0,5,8,0,32,1,1,,,,,,,,,,,,,,
,,,,,,,,,,,left.png,,w,right,616f0823ca981b3ebf4bfcac,2021-10-27_12h32.25.355,arrow_simon_punish,2021.1.2,Win32,59.95922773,,,,,,,,,,,,,,w,1,1.537,2.366355855,0,5,8,1,33,3,1,,,,,,,,,,,,,,
,,,,,,,,,,,left.png,,w,left,616f0823ca981b3ebf4bfcac,2021-10-27_12h32.25.355,arrow_simon_punish,2021.1.2,Win32,59.95922773,,,,,,,,,,,,,,w,1,1.6239,2.019746108,1,5,8,2,34,2,1,,,,,,,,,,,,,,
,,,,,,,,,,,left.png,,w,right,616f0823ca981b3ebf4bfcac,2021-10-27_12h32.25.355,arrow_simon_punish,2021.1.2,Win32,59.95922773,,,,,,,,,,,,,,w,1,1.5577,2.40892289,0,5,8,3,35,3,1,,,,,,,,,,,,,,
,,,,,,,,,,,left.png,,w,right,616f0823ca981b3ebf4bfcac,2021-10-27_12h32.25.355,arrow_simon_punish,2021.1.2,Win32,59.95922773,,,,,,,,,,,,,,w,1,1.6394,2.485296669,1,5,9,0,36,3,1,,,,,,,,,,,,,,
,,,,,,,,,,,left.png,,w,right,616f0823ca981b3ebf4bfcac,2021-10-27_12h32.25.355,arrow_simon_punish,2021.1.2,Win32,59.95922773,,,,,,,,,,,,,,w,1,1.439,2.129808405,0,5,9,1,37,3,1,,,,,,,,,,,,,,
,,,,,,,,,,,left.png,,w,left,616f0823ca981b3ebf4bfcac,2021-10-27_12h32.25.355,arrow_simon_punish,2021.1.2,Win32,59.95922773,,,,,,,,,,,,,,w,1,1.384,2.180762936,1,5,9,2,38,2,1,,,,,,,,,,,,,,
,,,,,,,,,,,right.png,,p,right,616f0823ca981b3ebf4bfcac,2021-10-27_12h32.25.355,arrow_simon_punish,2021.1.2,Win32,59.95922773,,,,,,,,,,,,,,p,1,1.6207,2.268287774,1,5,9,3,39,1,1,,,,,,,,,,,,,,
,,,,,,,,,,,left.png,,w,right,616f0823ca981b3ebf4bfcac,2021-10-27_12h32.25.355,arrow_simon_punish,2021.1.2,Win32,59.95922773,,,,,,,,,,,,,,p,0,1.4423,2.066102381,1,5,10,0,40,3,1,,,,,,,,,,,,,,
,,,,,,,,,,,right.png,,p,left,616f0823ca981b3ebf4bfcac,2021-10-27_12h32.25.355,arrow_simon_punish,2021.1.2,Win32,59.95922773,,,,,,,,,,,,,,p,1,1.5003,2.07229634,0,5,10,1,41,0,1,,,,,,,,,,,,,,
,,,,,,,,,,,right.png,,p,left,616f0823ca981b3ebf4bfcac,2021-10-27_12h32.25.355,arrow_simon_punish,2021.1.2,Win32,59.95922773,,,,,,,,,,,,,,p,1,1.4547,2.056043109,0,5,10,2,42,0,1,,,,,,,,,,,,,,
,,,,,,,,,,,left.png,,w,right,616f0823ca981b3ebf4bfcac,2021-10-27_12h32.25.355,arrow_simon_punish,2021.1.2,Win32,59.95922773,,,,,,,,,,,,,,w,1,1.5724,2.288323756,0,5,10,3,43,3,1,,,,,,,,,,,,,,
,,,,,,,,,,,left.png,,w,right,616f0823ca981b3ebf4bfcac,2021-10-27_12h32.25.355,arrow_simon_punish,2021.1.2,Win32,59.95922773,,,,,,,,,,,,,,w,1,1.4862,2.182966704,0,5,11,0,44,3,1,,,,,,,,,,,,,,
,,,,,,,,,,,left.png,,w,left,616f0823ca981b3ebf4bfcac,2021-10-27_12h32.25.355,arrow_simon_punish,2021.1.2,Win32,59.95922773,,,,,,,,,,,,,,w,1,1.5708,2.062571057,0,5,11,1,45,2,1,,,,,,,,,,,,,,
,,,,,,,,,,,left.png,,w,right,616f0823ca981b3ebf4bfcac,2021-10-27_12h32.25.355,arrow_simon_punish,2021.1.2,Win32,59.95922773,,,,,,,,,,,,,,p,0,1.5879,2.329078134,1,5,11,2,46,3,1,,,,,,,,,,,,,,
,,,,,,,,,,,right.png,,p,left,616f0823ca981b3ebf4bfcac,2021-10-27_12h32.25.355,arrow_simon_punish,2021.1.2,Win32,59.95922773,,,,,,,,,,,,,,p,1,1.4873,1.594646729,0,5,11,3,47,0,1,,,,,,,,,,,,,,
,,,,,,,,,,,right.png,,p,left,616f0823ca981b3ebf4bfcac,2021-10-27_12h32.25.355,arrow_simon_punish,2021.1.2,Win32,59.95922773,,,,,,,,,,,,,,p,1,1.5061,2.47759493,0,5,12,0,48,0,1,,,,,,,,,,,,,,
,,,,,,,,,,,right.png,,p,left,616f0823ca981b3ebf4bfcac,2021-10-27_12h32.25.355,arrow_simon_punish,2021.1.2,Win32,59.95922773,,,,,,,,,,,,,,p,1,1.4781,1.85025275,0,5,12,1,49,0,1,,,,,,,,,,,,,,
,,,,,,,,,,,right.png,,p,right,616f0823ca981b3ebf4bfcac,2021-10-27_12h32.25.355,arrow_simon_punish,2021.1.2,Win32,59.95922773,,,,,,,,,,,,,,p,1,1.4341,2.083551394,0,5,12,2,50,1,1,,,,,,,,,,,,,,
,,,,,,,,,,,right.png,,p,left,616f0823ca981b3ebf4bfcac,2021-10-27_12h32.25.355,arrow_simon_punish,2021.1.2,Win32,59.95922773,,,,,,,,,,,,,,p,1,1.4449,2.059101042,0,5,12,3,51,0,1,,,,,,,,,,,,,,
,,,,,,,,,,,left.png,,w,left,616f0823ca981b3ebf4bfcac,2021-10-27_12h32.25.355,arrow_simon_punish,2021.1.2,Win32,59.95922773,,,,,,,,,,,,,,w,1,1.5389,2.49549493,0,5,13,0,52,2,1,,,,,,,,,,,,,,
,,,,,,,,,,,right.png,,p,right,616f0823ca981b3ebf4bfcac,2021-10-27_12h32.25.355,arrow_simon_punish,2021.1.2,Win32,59.95922773,,,,,,,,,,,,,,p,1,1.4876,1.85332864,0,5,13,1,53,1,1,,,,,,,,,,,,,,
,,,,,,,,,,,right.png,,p,left,616f0823ca981b3ebf4bfcac,2021-10-27_12h32.25.355,arrow_simon_punish,2021.1.2,Win32,59.95922773,,,,,,,,,,,,,,p,1,1.5404,1.765617632,0,5,13,2,54,0,1,,,,,,,,,,,,,,
,,,,,,,,,,,left.png,,w,left,616f0823ca981b3ebf4bfcac,2021-10-27_12h32.25.355,arrow_simon_punish,2021.1.2,Win32,59.95922773,,,,,,,,,,,,,,w,1,1.5422,1.992163028,0,5,13,3,55,2,1,,,,,,,,,,,,,,
,,,,,,,,,,,right.png,,p,right,616f0823ca981b3ebf4bfcac,2021-10-27_12h32.25.355,arrow_simon_punish,2021.1.2,Win32,59.95922773,,,,,,,,,,,,,,p,1,1.512,1.749967164,0,5,14,0,56,1,1,,,,,,,,,,,,,,
,,,,,,,,,,,left.png,,w,left,616f0823ca981b3ebf4bfcac,2021-10-27_12h32.25.355,arrow_simon_punish,2021.1.2,Win32,59.95922773,,,,,,,,,,,,,,w,1,1.4923,2.21389585,0,5,14,1,57,2,1,,,,,,,,,,,,,,
,,,,,,,,,,,right.png,,p,right,616f0823ca981b3ebf4bfcac,2021-10-27_12h32.25.355,arrow_simon_punish,2021.1.2,Win32,59.95922773,,,,,,,,,,,,,,p,1,1.4429,2.15795333,0,5,14,2,58,1,1,,,,,,,,,,,,,,
,,,,,,,,,,,left.png,,w,left,616f0823ca981b3ebf4bfcac,2021-10-27_12h32.25.355,arrow_simon_punish,2021.1.2,Win32,59.95922773,,,,,,,,,,,,,,w,1,1.363,1.750849447,1,5,14,3,59,2,1,,,,,,,,,,,,,,
,,,,,,,,,,,,,,,616f0823ca981b3ebf4bfcac,2021-10-27_12h32.25.355,arrow_simon_punish,2021.1.2,Win32,59.95922773,,,,,,,,,,,,,,,,,,,,,,,,,space,1.5874,5,1,1,3,1,1,5,,,,,
,,,,,,,,,,,left.png,,w,right,616f0823ca981b3ebf4bfcac,2021-10-27_12h32.25.355,arrow_simon_punish,2021.1.2,Win32,59.95922773,,,,,,,,,,,,,,p,0,1.49,2.245218579,1,1,0,0,0,3,1,,,,,,,,,,,,,,
,,,,,,,,,,,right.png,,p,left,616f0823ca981b3ebf4bfcac,2021-10-27_12h32.25.355,arrow_simon_punish,2021.1.2,Win32,59.95922773,,,,,,,,,,,,,,p,1,1.4765,1.569128641,0,1,0,1,1,0,1,,,,,,,,,,,,,,
,,,,,,,,,,,right.png,,p,right,616f0823ca981b3ebf4bfcac,2021-10-27_12h32.25.355,arrow_simon_punish,2021.1.2,Win32,59.95922773,,,,,,,,,,,,,,w,0,1.4465,2.159684339,1,1,0,2,2,1,1,,,,,,,,,,,,,,
,,,,,,,,,,,right.png,,p,right,616f0823ca981b3ebf4bfcac,2021-10-27_12h32.25.355,arrow_simon_punish,2021.1.2,Win32,59.95922773,,,,,,,,,,,,,,p,1,1.5131,2.084215467,0,1,0,3,3,1,1,,,,,,,,,,,,,,
,,,,,,,,,,,left.png,,w,right,616f0823ca981b3ebf4bfcac,2021-10-27_12h32.25.355,arrow_simon_punish,2021.1.2,Win32,59.95922773,,,,,,,,,,,,,,w,1,1.4416,1.509552606,0,1,1,0,4,3,1,,,,,,,,,,,,,,
,,,,,,,,,,,left.png,,w,left,616f0823ca981b3ebf4bfcac,2021-10-27_12h32.25.355,arrow_simon_punish,2021.1.2,Win32,59.95922773,,,,,,,,,,,,,,p,0,1.5926,2.469057577,1,1,1,1,5,2,1,,,,,,,,,,,,,,
,,,,,,,,,,,right.png,,p,right,616f0823ca981b3ebf4bfcac,2021-10-27_12h32.25.355,arrow_simon_punish,2021.1.2,Win32,59.95922773,,,,,,,,,,,,,,p,1,1.5017,1.803081151,0,1,1,2,6,1,1,,,,,,,,,,,,,,
,,,,,,,,,,,right.png,,p,left,616f0823ca981b3ebf4bfcac,2021-10-27_12h32.25.355,arrow_simon_punish,2021.1.2,Win32,59.95922773,,,,,,,,,,,,,,p,1,1.4005,1.956516883,0,1,1,3,7,0,1,,,,,,,,,,,,,,
,,,,,,,,,,,right.png,,p,left,616f0823ca981b3ebf4bfcac,2021-10-27_12h32.25.355,arrow_simon_punish,2021.1.2,Win32,59.95922773,,,,,,,,,,,,,,p,1,1.4304,1.506046771,0,1,2,0,8,0,1,,,,,,,,,,,,,,
,,,,,,,,,,,right.png,,p,right,616f0823ca981b3ebf4bfcac,2021-10-27_12h32.25.355,arrow_simon_punish,2021.1.2,Win32,59.95922773,,,,,,,,,,,,,,p,1,1.3875,2.008300157,1,1,2,1,9,1,1,,,,,,,,,,,,,,
,,,,,,,,,,,left.png,,w,left,616f0823ca981b3ebf4bfcac,2021-10-27_12h32.25.355,arrow_simon_punish,2021.1.2,Win32,59.95922773,,,,,,,,,,,,,,w,1,1.531,2.029535645,0,1,2,2,10,2,1,,,,,,,,,,,,,,
,,,,,,,,,,,right.png,,p,right,616f0823ca981b3ebf4bfcac,2021-10-27_12h32.25.355,arrow_simon_punish,2021.1.2,Win32,59.95922773,,,,,,,,,,,,,,p,1,1.5512,2.472731792,0,1,2,3,11,1,1,,,,,,,,,,,,,,
,,,,,,,,,,,right.png,,p,left,616f0823ca981b3ebf4bfcac,2021-10-27_12h32.25.355,arrow_simon_punish,2021.1.2,Win32,59.95922773,,,,,,,,,,,,,,p,1,1.4902,1.599515509,0,1,3,0,12,0,1,,,,,,,,,,,,,,
,,,,,,,,,,,left.png,,w,right,616f0823ca981b3ebf4bfcac,2021-10-27_12h32.25.355,arrow_simon_punish,2021.1.2,Win32,59.95922773,,,,,,,,,,,,,,w,1,1.4769,1.995424259,0,1,3,1,13,3,1,,,,,,,,,,,,,,
,,,,,,,,,,,right.png,,p,right,616f0823ca981b3ebf4bfcac,2021-10-27_12h32.25.355,arrow_simon_punish,2021.1.2,Win32,59.95922773,,,,,,,,,,,,,,p,1,1.3714,1.805220657,1,1,3,2,14,1,1,,,,,,,,,,,,,,
,,,,,,,,,,,left.png,,w,left,616f0823ca981b3ebf4bfcac,2021-10-27_12h32.25.355,arrow_simon_punish,2021.1.2,Win32,59.95922773,,,,,,,,,,,,,,w,1,1.5066,1.785789653,0,1,3,3,15,2,1,,,,,,,,,,,,,,
,,,,,,,,,,,right.png,,p,right,616f0823ca981b3ebf4bfcac,2021-10-27_12h32.25.355,arrow_simon_punish,2021.1.2,Win32,59.95922773,,,,,,,,,,,,,,p,1,1.5042,2.169495153,0,1,4,0,16,1,1,,,,,,,,,,,,,,
,,,,,,,,,,,left.png,,w,left,616f0823ca981b3ebf4bfcac,2021-10-27_12h32.25.355,arrow_simon_punish,2021.1.2,Win32,59.95922773,,,,,,,,,,,,,,w,1,1.4449,1.509843765,0,1,4,1,17,2,1,,,,,,,,,,,,,,
,,,,,,,,,,,left.png,,w,left,616f0823ca981b3ebf4bfcac,2021-10-27_12h32.25.355,arrow_simon_punish,2021.1.2,Win32,59.95922773,,,,,,,,,,,,,,w,1,1.5272,2.239711524,0,1,4,2,18,2,1,,,,,,,,,,,,,,
,,,,,,,,,,,left.png,,w,right,616f0823ca981b3ebf4bfcac,2021-10-27_12h32.25.355,arrow_simon_punish,2021.1.2,Win32,59.95922773,,,,,,,,,,,,,,w,1,1.4602,1.545929306,0,1,4,3,19,3,1,,,,,,,,,,,,,,
,,,,,,,,,,,right.png,,p,left,616f0823ca981b3ebf4bfcac,2021-10-27_12h32.25.355,arrow_simon_punish,2021.1.2,Win32,59.95922773,,,,,,,,,,,,,,w,0,1.624,2.324548839,1,1,5,0,20,0,1,,,,,,,,,,,,,,
,,,,,,,,,,,left.png,,w,right,616f0823ca981b3ebf4bfcac,2021-10-27_12h32.25.355,arrow_simon_punish,2021.1.2,Win32,59.95922773,,,,,,,,,,,,,,w,1,1.524,1.835697548,0,1,5,1,21,3,1,,,,,,,,,,,,,,
,,,,,,,,,,,left.png,,w,right,616f0823ca981b3ebf4bfcac,2021-10-27_12h32.25.355,arrow_simon_punish,2021.1.2,Win32,59.95922773,,,,,,,,,,,,,,w,1,1.4649,1.709993654,0,1,5,2,22,3,1,,,,,,,,,,,,,,
,,,,,,,,,,,left.png,,w,left,616f0823ca981b3ebf4bfcac,2021-10-27_12h32.25.355,arrow_simon_punish,2021.1.2,Win32,59.95922773,,,,,,,,,,,,,,w,1,1.5173,2.244162412,0,1,5,3,23,2,1,,,,,,,,,,,,,,
,,,,,,,,,,,right.png,,p,right,616f0823ca981b3ebf4bfcac,2021-10-27_12h32.25.355,arrow_simon_punish,2021.1.2,Win32,59.95922773,,,,,,,,,,,,,,p,1,1.6685,2.36599175,1,1,6,0,24,1,1,,,,,,,,,,,,,,
,,,,,,,,,,,right.png,,p,left,616f0823ca981b3ebf4bfcac,2021-10-27_12h32.25.355,arrow_simon_punish,2021.1.2,Win32,59.95922773,,,,,,,,,,,,,,p,1,1.5213,2.016298263,0,1,6,1,25,0,1,,,,,,,,,,,,,,
,,,,,,,,,,,right.png,,p,right,616f0823ca981b3ebf4bfcac,2021-10-27_12h32.25.355,arrow_simon_punish,2021.1.2,Win32,59.95922773,,,,,,,,,,,,,,p,1,1.406,1.961079089,0,1,6,2,26,1,1,,,,,,,,,,,,,,
,,,,,,,,,,,right.png,,p,left,616f0823ca981b3ebf4bfcac,2021-10-27_12h32.25.355,arrow_simon_punish,2021.1.2,Win32,59.95922773,,,,,,,,,,,,,,p,1,1.5182,1.918490716,0,1,6,3,27,0,1,,,,,,,,,,,,,,
,,,,,,,,,,,right.png,,p,left,616f0823ca981b3ebf4bfcac,2021-10-27_12h32.25.355,arrow_simon_punish,2021.1.2,Win32,59.95922773,,,,,,,,,,,,,,p,1,1.5519,2.264964084,0,1,7,0,28,0,1,,,,,,,,,,,,,,
,,,,,,,,,,,left.png,,w,right,616f0823ca981b3ebf4bfcac,2021-10-27_12h32.25.355,arrow_simon_punish,2021.1.2,Win32,59.95922773,,,,,,,,,,,,,,w,1,1.5114,2.143753647,0,1,7,1,29,3,1,,,,,,,,,,,,,,
,,,,,,,,,,,right.png,,p,left,616f0823ca981b3ebf4bfcac,2021-10-27_12h32.25.355,arrow_simon_punish,2021.1.2,Win32,59.95922773,,,,,,,,,,,,,,p,1,1.5456,1.729887878,0,1,7,2,30,0,1,,,,,,,,,,,,,,
,,,,,,,,,,,right.png,,p,left,616f0823ca981b3ebf4bfcac,2021-10-27_12h32.25.355,arrow_simon_punish,2021.1.2,Win32,59.95922773,,,,,,,,,,,,,,p,1,1.8519,2.446633889,1,1,7,3,31,0,1,,,,,,,,,,,,,,
,,,,,,,,,,,left.png,,w,left,616f0823ca981b3ebf4bfcac,2021-10-27_12h32.25.355,arrow_simon_punish,2021.1.2,Win32,59.95922773,,,,,,,,,,,,,,p,0,1.6051,2.47044076,1,1,8,0,32,2,1,,,,,,,,,,,,,,
,,,,,,,,,,,right.png,,p,right,616f0823ca981b3ebf4bfcac,2021-10-27_12h32.25.355,arrow_simon_punish,2021.1.2,Win32,59.95922773,,,,,,,,,,,,,,p,1,1.53,1.769724609,0,1,8,1,33,1,1,,,,,,,,,,,,,,
,,,,,,,,,,,left.png,,w,right,616f0823ca981b3ebf4bfcac,2021-10-27_12h32.25.355,arrow_simon_punish,2021.1.2,Win32,59.95922773,,,,,,,,,,,,,,w,1,1.5204,2.201055487,0,1,8,2,34,3,1,,,,,,,,,,,,,,
,,,,,,,,,,,left.png,,w,right,616f0823ca981b3ebf4bfcac,2021-10-27_12h32.25.355,arrow_simon_punish,2021.1.2,Win32,59.95922773,,,,,,,,,,,,,,w,1,1.4588,1.932107525,0,1,8,3,35,3,1,,,,,,,,,,,,,,
,,,,,,,,,,,right.png,,p,left,616f0823ca981b3ebf4bfcac,2021-10-27_12h32.25.355,arrow_simon_punish,2021.1.2,Win32,59.95922773,,,,,,,,,,,,,,p,1,1.5079,1.847269099,0,1,9,0,36,0,1,,,,,,,,,,,,,,
,,,,,,,,,,,right.png,,p,right,616f0823ca981b3ebf4bfcac,2021-10-27_12h32.25.355,arrow_simon_punish,2021.1.2,Win32,59.95922773,,,,,,,,,,,,,,p,1,1.5007,1.978188255,0,1,9,1,37,1,1,,,,,,,,,,,,,,
,,,,,,,,,,,left.png,,w,left,616f0823ca981b3ebf4bfcac,2021-10-27_12h32.25.355,arrow_simon_punish,2021.1.2,Win32,59.95922773,,,,,,,,,,,,,,w,1,1.6303,2.341422362,1,1,9,2,38,2,1,,,,,,,,,,,,,,
,,,,,,,,,,,left.png,,w,left,616f0823ca981b3ebf4bfcac,2021-10-27_12h32.25.355,arrow_simon_punish,2021.1.2,Win32,59.95922773,,,,,,,,,,,,,,w,1,1.5343,1.743798551,0,1,9,3,39,2,1,,,,,,,,,,,,,,
,,,,,,,,,,,right.png,,p,right,616f0823ca981b3ebf4bfcac,2021-10-27_12h32.25.355,arrow_simon_punish,2021.1.2,Win32,59.95922773,,,,,,,,,,,,,,p,1,1.8434,2.26164943,1,1,10,0,40,1,1,,,,,,,,,,,,,,
,,,,,,,,,,,right.png,,p,right,616f0823ca981b3ebf4bfcac,2021-10-27_12h32.25.355,arrow_simon_punish,2021.1.2,Win32,59.95922773,,,,,,,,,,,,,,p,1,1.5509,2.318250026,0,1,10,1,41,1,1,,,,,,,,,,,,,,
,,,,,,,,,,,left.png,,w,right,616f0823ca981b3ebf4bfcac,2021-10-27_12h32.25.355,arrow_simon_punish,2021.1.2,Win32,59.95922773,,,,,,,,,,,,,,w,1,1.5289,1.622176262,0,1,10,2,42,3,1,,,,,,,,,,,,,,
,,,,,,,,,,,right.png,,p,right,616f0823ca981b3ebf4bfcac,2021-10-27_12h32.25.355,arrow_simon_punish,2021.1.2,Win32,59.95922773,,,,,,,,,,,,,,p,1,1.4616,1.56999609,0,1,10,3,43,1,1,,,,,,,,,,,,,,
,,,,,,,,,,,left.png,,w,left,616f0823ca981b3ebf4bfcac,2021-10-27_12h32.25.355,arrow_simon_punish,2021.1.2,Win32,59.95922773,,,,,,,,,,,,,,w,1,1.4106,1.944100908,0,1,11,0,44,2,1,,,,,,,,,,,,,,
,,,,,,,,,,,right.png,,p,right,616f0823ca981b3ebf4bfcac,2021-10-27_12h32.25.355,arrow_simon_punish,2021.1.2,Win32,59.95922773,,,,,,,,,,,,,,p,1,1.7885,2.485692295,1,1,11,1,45,1,1,,,,,,,,,,,,,,
,,,,,,,,,,,left.png,,w,left,616f0823ca981b3ebf4bfcac,2021-10-27_12h32.25.355,arrow_simon_punish,2021.1.2,Win32,59.95922773,,,,,,,,,,,,,,w,1,1.4733,1.829387607,0,1,11,2,46,2,1,,,,,,,,,,,,,,
,,,,,,,,,,,right.png,,p,left,616f0823ca981b3ebf4bfcac,2021-10-27_12h32.25.355,arrow_simon_punish,2021.1.2,Win32,59.95922773,,,,,,,,,,,,,,p,1,1.4296,1.913005144,0,1,11,3,47,0,1,,,,,,,,,,,,,,
,,,,,,,,,,,right.png,,p,left,616f0823ca981b3ebf4bfcac,2021-10-27_12h32.25.355,arrow_simon_punish,2021.1.2,Win32,59.95922773,,,,,,,,,,,,,,w,0,1.6233,2.389444934,1,1,12,0,48,0,1,,,,,,,,,,,,,,
,,,,,,,,,,,left.png,,w,right,616f0823ca981b3ebf4bfcac,2021-10-27_12h32.25.355,arrow_simon_punish,2021.1.2,Win32,59.95922773,,,,,,,,,,,,,,w,1,1.6907,2.390191372,1,1,12,1,49,3,1,,,,,,,,,,,,,,
,,,,,,,,,,,right.png,,p,left,616f0823ca981b3ebf4bfcac,2021-10-27_12h32.25.355,arrow_simon_punish,2021.1.2,Win32,59.95922773,,,,,,,,,,,,,,p,1,1.4609,1.592435294,0,1,12,2,50,0,1,,,,,,,,,,,,,,
,,,,,,,,,,,left.png,,w,left,616f0823ca981b3ebf4bfcac,2021-10-27_12h32.25.355,arrow_simon_punish,2021.1.2,Win32,59.95922773,,,,,,,,,,,,,,p,0,1.6771,2.379108308,1,1,12,3,51,2,1,,,,,,,,,,,,,,
,,,,,,,,,,,left.png,,w,left,616f0823ca981b3ebf4bfcac,2021-10-27_12h32.25.355,arrow_simon_punish,2021.1.2,Win32,59.95922773,,,,,,,,,,,,,,p,0,6.7611,2.062288873,1,1,13,0,52,2,1,,,,,,,,,,,,,,
,,,,,,,,,,,left.png,,w,right,616f0823ca981b3ebf4bfcac,2021-10-27_12h32.25.355,arrow_simon_punish,2021.1.2,Win32,59.95922773,,,,,,,,,,,,,,w,1,1.3795,1.886366809,1,1,13,1,53,3,1,,,,,,,,,,,,,,
,,,,,,,,,,,left.png,,w,right,616f0823ca981b3ebf4bfcac,2021-10-27_12h32.25.355,arrow_simon_punish,2021.1.2,Win32,59.95922773,,,,,,,,,,,,,,w,1,1.3667,1.530313603,1,1,13,2,54,3,1,,,,,,,,,,,,,,
,,,,,,,,,,,right.png,,p,left,616f0823ca981b3ebf4bfcac,2021-10-27_12h32.25.355,arrow_simon_punish,2021.1.2,Win32,59.95922773,,,,,,,,,,,,,,w,0,1.6334,2.353205325,1,1,13,3,55,0,1,,,,,,,,,,,,,,
,,,,,,,,,,,left.png,,w,left,616f0823ca981b3ebf4bfcac,2021-10-27_12h32.25.355,arrow_simon_punish,2021.1.2,Win32,59.95922773,,,,,,,,,,,,,,p,0,1.2001,1.835819668,1,1,14,0,56,2,1,,,,,,,,,,,,,,
,,,,,,,,,,,left.png,,w,left,616f0823ca981b3ebf4bfcac,2021-10-27_12h32.25.355,arrow_simon_punish,2021.1.2,Win32,59.95922773,,,,,,,,,,,,,,w,1,1.8333,2.150082242,1,1,14,1,57,2,1,,,,,,,,,,,,,,
,,,,,,,,,,,left.png,,w,right,616f0823ca981b3ebf4bfcac,2021-10-27_12h32.25.355,arrow_simon_punish,2021.1.2,Win32,59.95922773,,,,,,,,,,,,,,p,0,1.7063,2.442887311,1,1,14,2,58,3,1,,,,,,,,,,,,,,
,,,,,,,,,,,left.png,,w,right,616f0823ca981b3ebf4bfcac,2021-10-27_12h32.25.355,arrow_simon_punish,2021.1.2,Win32,59.95922773,,,,,,,,,,,,,,w,1,1.1587,1.678859851,1,1,14,3,59,3,1,,,,,,,,,,,,,,
,,,,,,,,,,,,,,,616f0823ca981b3ebf4bfcac,2021-10-27_12h32.25.355,arrow_simon_punish,2021.1.2,Win32,59.95922773,,,,,,,,,,,,,,,,,,,,,,,,,space,428.1858,6,2,0,4,0,1,1,,,,,
,,,,,,,,,,,left.png,,w,right,616f0823ca981b3ebf4bfcac,2021-10-27_12h32.25.355,arrow_simon_punish,2021.1.2,Win32,59.95922773,,,,,,,,,,,,,,w,1,1.4942,2.100891335,0,5,0,0,0,3,1,,,,,,,,,,,,,,
,,,,,,,,,,,left.png,,w,right,616f0823ca981b3ebf4bfcac,2021-10-27_12h32.25.355,arrow_simon_punish,2021.1.2,Win32,59.95922773,,,,,,,,,,,,,,w,1,1.4722,1.79931197,0,5,0,1,1,3,1,,,,,,,,,,,,,,
,,,,,,,,,,,left.png,,w,left,616f0823ca981b3ebf4bfcac,2021-10-27_12h32.25.355,arrow_simon_punish,2021.1.2,Win32,59.95922773,,,,,,,,,,,,,,w,1,1.4569,1.862247132,0,5,0,2,2,2,1,,,,,,,,,,,,,,
,,,,,,,,,,,right.png,,p,right,616f0823ca981b3ebf4bfcac,2021-10-27_12h32.25.355,arrow_simon_punish,2021.1.2,Win32,59.95922773,,,,,,,,,,,,,,p,1,1.4579,1.971506821,0,5,0,3,3,1,1,,,,,,,,,,,,,,
,,,,,,,,,,,left.png,,w,left,616f0823ca981b3ebf4bfcac,2021-10-27_12h32.25.355,arrow_simon_punish,2021.1.2,Win32,59.95922773,,,,,,,,,,,,,,w,1,1.3688,1.789804372,1,5,1,0,4,2,1,,,,,,,,,,,,,,
,,,,,,,,,,,left.png,,w,right,616f0823ca981b3ebf4bfcac,2021-10-27_12h32.25.355,arrow_simon_punish,2021.1.2,Win32,59.95922773,,,,,,,,,,,,,,p,0,1.4615,2.198074082,1,5,1,1,5,3,1,,,,,,,,,,,,,,
,,,,,,,,,,,right.png,,p,right,616f0823ca981b3ebf4bfcac,2021-10-27_12h32.25.355,arrow_simon_punish,2021.1.2,Win32,59.95922773,,,,,,,,,,,,,,p,1,1.4383,2.03602408,0,5,1,2,6,1,1,,,,,,,,,,,,,,
,,,,,,,,,,,left.png,,w,left,616f0823ca981b3ebf4bfcac,2021-10-27_12h32.25.355,arrow_simon_punish,2021.1.2,Win32,59.95922773,,,,,,,,,,,,,,w,1,1.4716,2.202546747,0,5,1,3,7,2,1,,,,,,,,,,,,,,
,,,,,,,,,,,right.png,,p,right,616f0823ca981b3ebf4bfcac,2021-10-27_12h32.25.355,arrow_simon_punish,2021.1.2,Win32,59.95922773,,,,,,,,,,,,,,p,1,1.4538,2.100708626,0,5,2,0,8,1,1,,,,,,,,,,,,,,
,,,,,,,,,,,right.png,,p,right,616f0823ca981b3ebf4bfcac,2021-10-27_12h32.25.355,arrow_simon_punish,2021.1.2,Win32,59.95922773,,,,,,,,,,,,,,p,1,1.3869,1.847666661,1,5,2,1,9,1,1,,,,,,,,,,,,,,
,,,,,,,,,,,left.png,,w,right,616f0823ca981b3ebf4bfcac,2021-10-27_12h32.25.355,arrow_simon_punish,2021.1.2,Win32,59.95922773,,,,,,,,,,,,,,w,1,1.475,2.035858234,0,5,2,2,10,3,1,,,,,,,,,,,,,,
,,,,,,,,,,,left.png,,w,right,616f0823ca981b3ebf4bfcac,2021-10-27_12h32.25.355,arrow_simon_punish,2021.1.2,Win32,59.95922773,,,,,,,,,,,,,,w,1,1.4639,1.959635387,0,5,2,3,11,3,1,,,,,,,,,,,,,,
,,,,,,,,,,,left.png,,w,left,616f0823ca981b3ebf4bfcac,2021-10-27_12h32.25.355,arrow_simon_punish,2021.1.2,Win32,59.95922773,,,,,,,,,,,,,,w,1,1.4269,1.582727362,0,5,3,0,12,2,1,,,,,,,,,,,,,,
,,,,,,,,,,,right.png,,p,left,616f0823ca981b3ebf4bfcac,2021-10-27_12h32.25.355,arrow_simon_punish,2021.1.2,Win32,59.95922773,,,,,,,,,,,,,,p,1,1.4463,1.604947958,0,5,3,1,13,0,1,,,,,,,,,,,,,,
,,,,,,,,,,,right.png,,p,right,616f0823ca981b3ebf4bfcac,2021-10-27_12h32.25.355,arrow_simon_punish,2021.1.2,Win32,59.95922773,,,,,,,,,,,,,,p,1,1.3839,1.677051908,1,5,3,2,14,1,1,,,,,,,,,,,,,,
,,,,,,,,,,,left.png,,w,right,616f0823ca981b3ebf4bfcac,2021-10-27_12h32.25.355,arrow_simon_punish,2021.1.2,Win32,59.95922773,,,,,,,,,,,,,,p,0,1.5907,2.295942921,1,5,3,3,15,3,1,,,,,,,,,,,,,,
,,,,,,,,,,,right.png,,p,left,616f0823ca981b3ebf4bfcac,2021-10-27_12h32.25.355,arrow_simon_punish,2021.1.2,Win32,59.95922773,,,,,,,,,,,,,,p,1,1.4895,1.557755125,0,5,4,0,16,0,1,,,,,,,,,,,,,,
,,,,,,,,,,,right.png,,p,right,616f0823ca981b3ebf4bfcac,2021-10-27_12h32.25.355,arrow_simon_punish,2021.1.2,Win32,59.95922773,,,,,,,,,,,,,,p,1,1.5398,2.078251045,0,5,4,1,17,1,1,,,,,,,,,,,,,,
,,,,,,,,,,,left.png,,w,right,616f0823ca981b3ebf4bfcac,2021-10-27_12h32.25.355,arrow_simon_punish,2021.1.2,Win32,59.95922773,,,,,,,,,,,,,,w,1,1.5863,2.202346342,0,5,4,2,18,3,1,,,,,,,,,,,,,,
,,,,,,,,,,,right.png,,p,left,616f0823ca981b3ebf4bfcac,2021-10-27_12h32.25.355,arrow_simon_punish,2021.1.2,Win32,59.95922773,,,,,,,,,,,,,,w,0,1.5734,2.378667228,1,5,4,3,19,0,1,,,,,,,,,,,,,,
,,,,,,,,,,,left.png,,w,right,616f0823ca981b3ebf4bfcac,2021-10-27_12h32.25.355,arrow_simon_punish,2021.1.2,Win32,59.95922773,,,,,,,,,,,,,,w,1,1.5114,1.848035797,0,5,5,0,20,3,1,,,,,,,,,,,,,,
,,,,,,,,,,,left.png,,w,left,616f0823ca981b3ebf4bfcac,2021-10-27_12h32.25.355,arrow_simon_punish,2021.1.2,Win32,59.95922773,,,,,,,,,,,,,,w,1,1.5247,1.685665051,0,5,5,1,21,2,1,,,,,,,,,,,,,,
,,,,,,,,,,,right.png,,p,left,616f0823ca981b3ebf4bfcac,2021-10-27_12h32.25.355,arrow_simon_punish,2021.1.2,Win32,59.95922773,,,,,,,,,,,,,,p,1,1.4674,1.694639868,0,5,5,2,22,0,1,,,,,,,,,,,,,,
,,,,,,,,,,,right.png,,p,right,616f0823ca981b3ebf4bfcac,2021-10-27_12h32.25.355,arrow_simon_punish,2021.1.2,Win32,59.95922773,,,,,,,,,,,,,,p,1,1.5454,2.269105939,0,5,5,3,23,1,1,,,,,,,,,,,,,,
,,,,,,,,,,,left.png,,w,right,616f0823ca981b3ebf4bfcac,2021-10-27_12h32.25.355,arrow_simon_punish,2021.1.2,Win32,59.95922773,,,,,,,,,,,,,,p,0,1.5078,2.237208616,1,5,6,0,24,3,1,,,,,,,,,,,,,,
,,,,,,,,,,,right.png,,p,left,616f0823ca981b3ebf4bfcac,2021-10-27_12h32.25.355,arrow_simon_punish,2021.1.2,Win32,59.95922773,,,,,,,,,,,,,,w,0,1.4584,2.22241623,1,5,6,1,25,0,1,,,,,,,,,,,,,,
,,,,,,,,,,,left.png,,w,left,616f0823ca981b3ebf4bfcac,2021-10-27_12h32.25.355,arrow_simon_punish,2021.1.2,Win32,59.95922773,,,,,,,,,,,,,,p,0,1.6272,2.376817152,1,5,6,2,26,2,1,,,,,,,,,,,,,,
,,,,,,,,,,,left.png,,w,right,616f0823ca981b3ebf4bfcac,2021-10-27_12h32.25.355,arrow_simon_punish,2021.1.2,Win32,59.95922773,,,,,,,,,,,,,,w,1,1.4557,1.72769267,0,5,6,3,27,3,1,,,,,,,,,,,,,,
,,,,,,,,,,,left.png,,w,left,616f0823ca981b3ebf4bfcac,2021-10-27_12h32.25.355,arrow_simon_punish,2021.1.2,Win32,59.95922773,,,,,,,,,,,,,,w,1,1.4527,1.538361378,0,5,7,0,28,2,1,,,,,,,,,,,,,,
,,,,,,,,,,,left.png,,w,right,616f0823ca981b3ebf4bfcac,2021-10-27_12h32.25.355,arrow_simon_punish,2021.1.2,Win32,59.95922773,,,,,,,,,,,,,,w,1,1.4864,1.710916002,0,5,7,1,29,3,1,,,,,,,,,,,,,,
,,,,,,,,,,,right.png,,p,left,616f0823ca981b3ebf4bfcac,2021-10-27_12h32.25.355,arrow_simon_punish,2021.1.2,Win32,59.95922773,,,,,,,,,,,,,,p,1,1.4838,1.909200291,0,5,7,2,30,0,1,,,,,,,,,,,,,,
,,,,,,,,,,,right.png,,p,left,616f0823ca981b3ebf4bfcac,2021-10-27_12h32.25.355,arrow_simon_punish,2021.1.2,Win32,59.95922773,,,,,,,,,,,,,,p,1,1.4936,1.989135421,0,5,7,3,31,0,1,,,,,,,,,,,,,,
,,,,,,,,,,,right.png,,p,right,616f0823ca981b3ebf4bfcac,2021-10-27_12h32.25.355,arrow_simon_punish,2021.1.2,Win32,59.95922773,,,,,,,,,,,,,,w,0,1.695,2.381595299,1,5,8,0,32,1,1,,,,,,,,,,,,,,
,,,,,,,,,,,right.png,,p,left,616f0823ca981b3ebf4bfcac,2021-10-27_12h32.25.355,arrow_simon_punish,2021.1.2,Win32,59.95922773,,,,,,,,,,,,,,p,1,1.4455,1.631816292,0,5,8,1,33,0,1,,,,,,,,,,,,,,
,,,,,,,,,,,left.png,,w,right,616f0823ca981b3ebf4bfcac,2021-10-27_12h32.25.355,arrow_simon_punish,2021.1.2,Win32,59.95922773,,,,,,,,,,,,,,w,1,1.4949,2.128289737,0,5,8,2,34,3,1,,,,,,,,,,,,,,
,,,,,,,,,,,left.png,,w,left,616f0823ca981b3ebf4bfcac,2021-10-27_12h32.25.355,arrow_simon_punish,2021.1.2,Win32,59.95922773,,,,,,,,,,,,,,w,1,1.69,2.498044046,1,5,8,3,35,2,1,,,,,,,,,,,,,,
,,,,,,,,,,,right.png,,p,right,616f0823ca981b3ebf4bfcac,2021-10-27_12h32.25.355,arrow_simon_punish,2021.1.2,Win32,59.95922773,,,,,,,,,,,,,,p,1,1.5723,2.310716917,0,5,9,0,36,1,1,,,,,,,,,,,,,,
,,,,,,,,,,,right.png,,p,right,616f0823ca981b3ebf4bfcac,2021-10-27_12h32.25.355,arrow_simon_punish,2021.1.2,Win32,59.95922773,,,,,,,,,,,,,,p,1,1.4374,1.632006082,0,5,9,1,37,1,1,,,,,,,,,,,,,,
,,,,,,,,,,,right.png,,p,left,616f0823ca981b3ebf4bfcac,2021-10-27_12h32.25.355,arrow_simon_punish,2021.1.2,Win32,59.95922773,,,,,,,,,,,,,,p,1,1.4008,1.552092675,0,5,9,2,38,0,1,,,,,,,,,,,,,,
,,,,,,,,,,,right.png,,p,left,616f0823ca981b3ebf4bfcac,2021-10-27_12h32.25.355,arrow_simon_punish,2021.1.2,Win32,59.95922773,,,,,,,,,,,,,,p,1,1.4239,1.629619587,0,5,9,3,39,0,1,,,,,,,,,,,,,,
,,,,,,,,,,,right.png,,p,right,616f0823ca981b3ebf4bfcac,2021-10-27_12h32.25.355,arrow_simon_punish,2021.1.2,Win32,59.95922773,,,,,,,,,,,,,,p,1,1.757,2.488626791,1,5,10,0,40,1,1,,,,,,,,,,,,,,
,,,,,,,,,,,left.png,,w,left,616f0823ca981b3ebf4bfcac,2021-10-27_12h32.25.355,arrow_simon_punish,2021.1.2,Win32,59.95922773,,,,,,,,,,,,,,w,1,1.5275,2.312360489,0,5,10,1,41,2,1,,,,,,,,,,,,,,
,,,,,,,,,,,left.png,,w,left,616f0823ca981b3ebf4bfcac,2021-10-27_12h32.25.355,arrow_simon_punish,2021.1.2,Win32,59.95922773,,,,,,,,,,,,,,w,1,1.4189,1.543912123,0,5,10,2,42,2,1,,,,,,,,,,,,,,
,,,,,,,,,,,left.png,,w,left,616f0823ca981b3ebf4bfcac,2021-10-27_12h32.25.355,arrow_simon_punish,2021.1.2,Win32,59.95922773,,,,,,,,,,,,,,p,0,1.5585,2.473582742,1,5,10,3,43,2,1,,,,,,,,,,,,,,
,,,,,,,,,,,left.png,,w,left,616f0823ca981b3ebf4bfcac,2021-10-27_12h32.25.355,arrow_simon_punish,2021.1.2,Win32,59.95922773,,,,,,,,,,,,,,w,1,1.5402,1.880243547,0,5,11,0,44,2,1,,,,,,,,,,,,,,
,,,,,,,,,,,right.png,,p,left,616f0823ca981b3ebf4bfcac,2021-10-27_12h32.25.355,arrow_simon_punish,2021.1.2,Win32,59.95922773,,,,,,,,,,,,,,p,1,1.5002,2.103409421,0,5,11,1,45,0,1,,,,,,,,,,,,,,
,,,,,,,,,,,left.png,,w,right,616f0823ca981b3ebf4bfcac,2021-10-27_12h32.25.355,arrow_simon_punish,2021.1.2,Win32,59.95922773,,,,,,,,,,,,,,w,1,1.4013,1.591218257,0,5,11,2,46,3,1,,,,,,,,,,,,,,
,,,,,,,,,,,right.png,,p,right,616f0823ca981b3ebf4bfcac,2021-10-27_12h32.25.355,arrow_simon_punish,2021.1.2,Win32,59.95922773,,,,,,,,,,,,,,p,1,1.5063,1.575779252,0,5,11,3,47,1,1,,,,,,,,,,,,,,
,,,,,,,,,,,left.png,,w,right,616f0823ca981b3ebf4bfcac,2021-10-27_12h32.25.355,arrow_simon_punish,2021.1.2,Win32,59.95922773,,,,,,,,,,,,,,w,1,1.4841,1.57094139,0,5,12,0,48,3,1,,,,,,,,,,,,,,
,,,,,,,,,,,left.png,,w,right,616f0823ca981b3ebf4bfcac,2021-10-27_12h32.25.355,arrow_simon_punish,2021.1.2,Win32,59.95922773,,,,,,,,,,,,,,p,0,1.4534,2.155786264,1,5,12,1,49,3,1,,,,,,,,,,,,,,
,,,,,,,,,,,right.png,,p,left,616f0823ca981b3ebf4bfcac,2021-10-27_12h32.25.355,arrow_simon_punish,2021.1.2,Win32,59.95922773,,,,,,,,,,,,,,p,1,1.4128,1.623782677,0,5,12,2,50,0,1,,,,,,,,,,,,,,
,,,,,,,,,,,left.png,,w,left,616f0823ca981b3ebf4bfcac,2021-10-27_12h32.25.355,arrow_simon_punish,2021.1.2,Win32,59.95922773,,,,,,,,,,,,,,w,1,1.7007,2.375780357,1,5,12,3,51,2,1,,,,,,,,,,,,,,
,,,,,,,,,,,right.png,,p,right,616f0823ca981b3ebf4bfcac,2021-10-27_12h32.25.355,arrow_simon_punish,2021.1.2,Win32,59.95922773,,,,,,,,,,,,,,p,1,1.5031,2.230556226,0,5,13,0,52,1,1,,,,,,,,,,,,,,
,,,,,,,,,,,left.png,,w,left,616f0823ca981b3ebf4bfcac,2021-10-27_12h32.25.355,arrow_simon_punish,2021.1.2,Win32,59.95922773,,,,,,,,,,,,,,w,1,1.523,2.152930348,0,5,13,1,53,2,1,,,,,,,,,,,,,,
,,,,,,,,,,,right.png,,p,right,616f0823ca981b3ebf4bfcac,2021-10-27_12h32.25.355,arrow_simon_punish,2021.1.2,Win32,59.95922773,,,,,,,,,,,,,,p,1,1.4458,2.084329684,0,5,13,2,54,1,1,,,,,,,,,,,,,,
,,,,,,,,,,,left.png,,w,left,616f0823ca981b3ebf4bfcac,2021-10-27_12h32.25.355,arrow_simon_punish,2021.1.2,Win32,59.95922773,,,,,,,,,,,,,,w,1,1.4446,1.656974615,0,5,13,3,55,2,1,,,,,,,,,,,,,,
,,,,,,,,,,,right.png,,p,left,616f0823ca981b3ebf4bfcac,2021-10-27_12h32.25.355,arrow_simon_punish,2021.1.2,Win32,59.95922773,,,,,,,,,,,,,,w,0,1.6422,2.317413079,1,5,14,0,56,0,1,,,,,,,,,,,,,,
,,,,,,,,,,,right.png,,p,left,616f0823ca981b3ebf4bfcac,2021-10-27_12h32.25.355,arrow_simon_punish,2021.1.2,Win32,59.95922773,,,,,,,,,,,,,,p,1,1.4725,1.631679062,0,5,14,1,57,0,1,,,,,,,,,,,,,,
,,,,,,,,,,,right.png,,p,left,616f0823ca981b3ebf4bfcac,2021-10-27_12h32.25.355,arrow_simon_punish,2021.1.2,Win32,59.95922773,,,,,,,,,,,,,,p,1,1.4038,1.935128284,0,5,14,2,58,0,1,,,,,,,,,,,,,,
,,,,,,,,,,,right.png,,p,right,616f0823ca981b3ebf4bfcac,2021-10-27_12h32.25.355,arrow_simon_punish,2021.1.2,Win32,59.95922773,,,,,,,,,,,,,,p,1,1.4947,1.807499263,0,5,14,3,59,1,1,,,,,,,,,,,,,,
,,,,,,,,,,,,,,,616f0823ca981b3ebf4bfcac,2021-10-27_12h32.25.355,arrow_simon_punish,2021.1.2,Win32,59.95922773,,,,,,,,,,,,,,,,,,,,,,,,,space,2.3121,7,2,1,5,1,1,5,,,,,
,,,,,,,,,,,left.png,,w,left,616f0823ca981b3ebf4bfcac,2021-10-27_12h32.25.355,arrow_simon_punish,2021.1.2,Win32,59.95922773,,,,,,,,,,,,,,w,1,1.4843,2.102801194,0,1,0,0,0,2,1,,,,,,,,,,,,,,
,,,,,,,,,,,left.png,,w,right,616f0823ca981b3ebf4bfcac,2021-10-27_12h32.25.355,arrow_simon_punish,2021.1.2,Win32,59.95922773,,,,,,,,,,,,,,w,1,1.4506,2.048581975,0,1,0,1,1,3,1,,,,,,,,,,,,,,
,,,,,,,,,,,right.png,,p,right,616f0823ca981b3ebf4bfcac,2021-10-27_12h32.25.355,arrow_simon_punish,2021.1.2,Win32,59.95922773,,,,,,,,,,,,,,w,0,1.5959,2.323681981,1,1,0,2,2,1,1,,,,,,,,,,,,,,
,,,,,,,,,,,right.png,,p,right,616f0823ca981b3ebf4bfcac,2021-10-27_12h32.25.355,arrow_simon_punish,2021.1.2,Win32,59.95922773,,,,,,,,,,,,,,p,1,1.5844,2.339310927,0,1,0,3,3,1,1,,,,,,,,,,,,,,
,,,,,,,,,,,left.png,,w,left,616f0823ca981b3ebf4bfcac,2021-10-27_12h32.25.355,arrow_simon_punish,2021.1.2,Win32,59.95922773,,,,,,,,,,,,,,w,1,1.3954,1.798396284,1,1,1,0,4,2,1,,,,,,,,,,,,,,
,,,,,,,,,,,right.png,,p,right,616f0823ca981b3ebf4bfcac,2021-10-27_12h32.25.355,arrow_simon_punish,2021.1.2,Win32,59.95922773,,,,,,,,,,,,,,p,1,1.4863,2.04121084,0,1,1,1,5,1,1,,,,,,,,,,,,,,
,,,,,,,,,,,right.png,,p,right,616f0823ca981b3ebf4bfcac,2021-10-27_12h32.25.355,arrow_simon_punish,2021.1.2,Win32,59.95922773,,,,,,,,,,,,,,p,1,1.4341,1.858545046,0,1,1,2,6,1,1,,,,,,,,,,,,,,
,,,,,,,,,,,right.png,,p,left,616f0823ca981b3ebf4bfcac,2021-10-27_12h32.25.355,arrow_simon_punish,2021.1.2,Win32,59.95922773,,,,,,,,,,,,,,p,1,1.4543,1.596536687,0,1,1,3,7,0,1,,,,,,,,,,,,,,
,,,,,,,,,,,right.png,,p,left,616f0823ca981b3ebf4bfcac,2021-10-27_12h32.25.355,arrow_simon_punish,2021.1.2,Win32,59.95922773,,,,,,,,,,,,,,p,1,1.5036,1.895114752,0,1,2,0,8,0,1,,,,,,,,,,,,,,
,,,,,,,,,,,left.png,,w,right,616f0823ca981b3ebf4bfcac,2021-10-27_12h32.25.355,arrow_simon_punish,2021.1.2,Win32,59.95922773,,,,,,,,,,,,,,w,1,1.4542,1.604006981,0,1,2,1,9,3,1,,,,,,,,,,,,,,
,,,,,,,,,,,left.png,,w,right,616f0823ca981b3ebf4bfcac,2021-10-27_12h32.25.355,arrow_simon_punish,2021.1.2,Win32,59.95922773,,,,,,,,,,,,,,w,1,1.3964,1.9670757,1,1,2,2,10,3,1,,,,,,,,,,,,,,
,,,,,,,,,,,left.png,,w,right,616f0823ca981b3ebf4bfcac,2021-10-27_12h32.25.355,arrow_simon_punish,2021.1.2,Win32,59.95922773,,,,,,,,,,,,,,w,1,1.4105,1.559762329,0,1,2,3,11,3,1,,,,,,,,,,,,,,
,,,,,,,,,,,left.png,,w,right,616f0823ca981b3ebf4bfcac,2021-10-27_12h32.25.355,arrow_simon_punish,2021.1.2,Win32,59.95922773,,,,,,,,,,,,,,p,0,1.5382,2.339515702,1,1,3,0,12,3,1,,,,,,,,,,,,,,
,,,,,,,,,,,right.png,,p,right,616f0823ca981b3ebf4bfcac,2021-10-27_12h32.25.355,arrow_simon_punish,2021.1.2,Win32,59.95922773,,,,,,,,,,,,,,p,1,1.5017,1.967233592,0,1,3,1,13,1,1,,,,,,,,,,,,,,
,,,,,,,,,,,left.png,,w,left,616f0823ca981b3ebf4bfcac,2021-10-27_12h32.25.355,arrow_simon_punish,2021.1.2,Win32,59.95922773,,,,,,,,,,,,,,p,0,1.5559,2.270907016,1,1,3,2,14,2,1,,,,,,,,,,,,,,
,,,,,,,,,,,right.png,,p,right,616f0823ca981b3ebf4bfcac,2021-10-27_12h32.25.355,arrow_simon_punish,2021.1.2,Win32,59.95922773,,,,,,,,,,,,,,p,1,1.6509,2.364635499,1,1,3,3,15,1,1,,,,,,,,,,,,,,
,,,,,,,,,,,left.png,,w,left,616f0823ca981b3ebf4bfcac,2021-10-27_12h32.25.355,arrow_simon_punish,2021.1.2,Win32,59.95922773,,,,,,,,,,,,,,w,1,1.4357,1.936080605,0,1,4,0,16,2,1,,,,,,,,,,,,,,
,,,,,,,,,,,left.png,,w,left,616f0823ca981b3ebf4bfcac,2021-10-27_12h32.25.355,arrow_simon_punish,2021.1.2,Win32,59.95922773,,,,,,,,,,,,,,w,1,1.4642,1.694669667,0,1,4,1,17,2,1,,,,,,,,,,,,,,
,,,,,,,,,,,left.png,,w,right,616f0823ca981b3ebf4bfcac,2021-10-27_12h32.25.355,arrow_simon_punish,2021.1.2,Win32,59.95922773,,,,,,,,,,,,,,w,1,1.5091,2.043674381,0,1,4,2,18,3,1,,,,,,,,,,,,,,
,,,,,,,,,,,left.png,,w,right,616f0823ca981b3ebf4bfcac,2021-10-27_12h32.25.355,arrow_simon_punish,2021.1.2,Win32,59.95922773,,,,,,,,,,,,,,p,0,1.5844,2.403920485,1,1,4,3,19,3,1,,,,,,,,,,,,,,
,,,,,,,,,,,left.png,,w,left,616f0823ca981b3ebf4bfcac,2021-10-27_12h32.25.355,arrow_simon_punish,2021.1.2,Win32,59.95922773,,,,,,,,,,,,,,w,1,1.5279,2.267094236,0,1,5,0,20,2,1,,,,,,,,,,,,,,
,,,,,,,,,,,right.png,,p,right,616f0823ca981b3ebf4bfcac,2021-10-27_12h32.25.355,arrow_simon_punish,2021.1.2,Win32,59.95922773,,,,,,,,,,,,,,p,1,1.4863,1.698405284,0,1,5,1,21,1,1,,,,,,,,,,,,,,
,,,,,,,,,,,left.png,,w,right,616f0823ca981b3ebf4bfcac,2021-10-27_12h32.25.355,arrow_simon_punish,2021.1.2,Win32,59.95922773,,,,,,,,,,,,,,w,1,1.4296,1.53706278,0,1,5,2,22,3,1,,,,,,,,,,,,,,
,,,,,,,,,,,right.png,,p,left,616f0823ca981b3ebf4bfcac,2021-10-27_12h32.25.355,arrow_simon_punish,2021.1.2,Win32,59.95922773,,,,,,,,,,,,,,p,1,1.4742,1.928440215,0,1,5,3,23,0,1,,,,,,,,,,,,,,
,,,,,,,,,,,right.png,,p,left,616f0823ca981b3ebf4bfcac,2021-10-27_12h32.25.355,arrow_simon_punish,2021.1.2,Win32,59.95922773,,,,,,,,,,,,,,p,1,1.4358,2.079089103,0,1,6,0,24,0,1,,,,,,,,,,,,,,
,,,,,,,,,,,left.png,,w,right,616f0823ca981b3ebf4bfcac,2021-10-27_12h32.25.355,arrow_simon_punish,2021.1.2,Win32,59.95922773,,,,,,,,,,,,,,w,1,1.3059,1.851690707,1,1,6,1,25,3,1,,,,,,,,,,,,,,
,,,,,,,,,,,left.png,,w,left,616f0823ca981b3ebf4bfcac,2021-10-27_12h32.25.355,arrow_simon_punish,2021.1.2,Win32,59.95922773,,,,,,,,,,,,,,w,1,1.4749,2.061989686,0,1,6,2,26,2,1,,,,,,,,,,,,,,
,,,,,,,,,,,right.png,,p,left,616f0823ca981b3ebf4bfcac,2021-10-27_12h32.25.355,arrow_simon_punish,2021.1.2,Win32,59.95922773,,,,,,,,,,,,,,p,1,1.4601,1.695109827,0,1,6,3,27,0,1,,,,,,,,,,,,,,
,,,,,,,,,,,right.png,,p,right,616f0823ca981b3ebf4bfcac,2021-10-27_12h32.25.355,arrow_simon_punish,2021.1.2,Win32,59.95922773,,,,,,,,,,,,,,w,0,1.4367,2.260890044,1,1,7,0,28,1,1,,,,,,,,,,,,,,
,,,,,,,,,,,left.png,,w,left,616f0823ca981b3ebf4bfcac,2021-10-27_12h32.25.355,arrow_simon_punish,2021.1.2,Win32,59.95922773,,,,,,,,,,,,,,w,1,1.4539,1.76019515,0,1,7,1,29,2,1,,,,,,,,,,,,,,
,,,,,,,,,,,right.png,,p,right,616f0823ca981b3ebf4bfcac,2021-10-27_12h32.25.355,arrow_simon_punish,2021.1.2,Win32,59.95922773,,,,,,,,,,,,,,p,1,1.6346,2.467734869,1,1,7,2,30,1,1,,,,,,,,,,,,,,
,,,,,,,,,,,left.png,,w,left,616f0823ca981b3ebf4bfcac,2021-10-27_12h32.25.355,arrow_simon_punish,2021.1.2,Win32,59.95922773,,,,,,,,,,,,,,w,1,1.5291,2.266650495,0,1,7,3,31,2,1,,,,,,,,,,,,,,
,,,,,,,,,,,right.png,,p,left,616f0823ca981b3ebf4bfcac,2021-10-27_12h32.25.355,arrow_simon_punish,2021.1.2,Win32,59.95922773,,,,,,,,,,,,,,p,1,1.5245,2.12119223,0,1,8,0,32,0,1,,,,,,,,,,,,,,
,,,,,,,,,,,left.png,,w,left,616f0823ca981b3ebf4bfcac,2021-10-27_12h32.25.355,arrow_simon_punish,2021.1.2,Win32,59.95922773,,,,,,,,,,,,,,p,0,1.4802,2.270639678,1,1,8,1,33,2,1,,,,,,,,,,,,,,
,,,,,,,,,,,right.png,,p,left,616f0823ca981b3ebf4bfcac,2021-10-27_12h32.25.355,arrow_simon_punish,2021.1.2,Win32,59.95922773,,,,,,,,,,,,,,w,0,1.6778,2.347504337,1,1,8,2,34,0,1,,,,,,,,,,,,,,
,,,,,,,,,,,left.png,,w,left,616f0823ca981b3ebf4bfcac,2021-10-27_12h32.25.355,arrow_simon_punish,2021.1.2,Win32,59.95922773,,,,,,,,,,,,,,w,1,1.7006,2.335430837,1,1,8,3,35,2,1,,,,,,,,,,,,,,
,,,,,,,,,,,right.png,,p,left,616f0823ca981b3ebf4bfcac,2021-10-27_12h32.25.355,arrow_simon_punish,2021.1.2,Win32,59.95922773,,,,,,,,,,,,,,p,1,1.5911,2.029693799,0,1,9,0,36,0,1,,,,,,,,,,,,,,
,,,,,,,,,,,left.png,,w,right,616f0823ca981b3ebf4bfcac,2021-10-27_12h32.25.355,arrow_simon_punish,2021.1.2,Win32,59.95922773,,,,,,,,,,,,,,p,0,1.5105,2.188819457,1,1,9,1,37,3,1,,,,,,,,,,,,,,
,,,,,,,,,,,right.png,,p,left,616f0823ca981b3ebf4bfcac,2021-10-27_12h32.25.355,arrow_simon_punish,2021.1.2,Win32,59.95922773,,,,,,,,,,,,,,p,1,1.4619,1.9543715,0,1,9,2,38,0,1,,,,,,,,,,,,,,
,,,,,,,,,,,right.png,,p,left,616f0823ca981b3ebf4bfcac,2021-10-27_12h32.25.355,arrow_simon_punish,2021.1.2,Win32,59.95922773,,,,,,,,,,,,,,p,1,1.3929,1.948397543,1,1,9,3,39,0,1,,,,,,,,,,,,,,
,,,,,,,,,,,left.png,,w,left,616f0823ca981b3ebf4bfcac,2021-10-27_12h32.25.355,arrow_simon_punish,2021.1.2,Win32,59.95922773,,,,,,,,,,,,,,w,1,1.3682,1.91794332,1,1,10,0,40,2,1,,,,,,,,,,,,,,
,,,,,,,,,,,right.png,,p,right,616f0823ca981b3ebf4bfcac,2021-10-27_12h32.25.355,arrow_simon_punish,2021.1.2,Win32,59.95922773,,,,,,,,,,,,,,p,1,1.4731,1.522020229,0,1,10,1,41,1,1,,,,,,,,,,,,,,
,,,,,,,,,,,left.png,,w,left,616f0823ca981b3ebf4bfcac,2021-10-27_12h32.25.355,arrow_simon_punish,2021.1.2,Win32,59.95922773,,,,,,,,,,,,,,w,1,1.4699,1.603849201,0,1,10,2,42,2,1,,,,,,,,,,,,,,
,,,,,,,,,,,right.png,,p,right,616f0823ca981b3ebf4bfcac,2021-10-27_12h32.25.355,arrow_simon_punish,2021.1.2,Win32,59.95922773,,,,,,,,,,,,,,p,1,1.4703,1.732645341,0,1,10,3,43,1,1,,,,,,,,,,,,,,
,,,,,,,,,,,right.png,,p,right,616f0823ca981b3ebf4bfcac,2021-10-27_12h32.25.355,arrow_simon_punish,2021.1.2,Win32,59.95922773,,,,,,,,,,,,,,p,1,1.518,1.874430701,0,1,11,0,44,1,1,,,,,,,,,,,,,,
,,,,,,,,,,,right.png,,p,right,616f0823ca981b3ebf4bfcac,2021-10-27_12h32.25.355,arrow_simon_punish,2021.1.2,Win32,59.95922773,,,,,,,,,,,,,,p,1,1.5443,2.34727701,0,1,11,1,45,1,1,,,,,,,,,,,,,,
,,,,,,,,,,,right.png,,p,left,616f0823ca981b3ebf4bfcac,2021-10-27_12h32.25.355,arrow_simon_punish,2021.1.2,Win32,59.95922773,,,,,,,,,,,,,,p,1,1.5116,1.695647478,0,1,11,2,46,0,1,,,,,,,,,,,,,,
,,,,,,,,,,,left.png,,w,right,616f0823ca981b3ebf4bfcac,2021-10-27_12h32.25.355,arrow_simon_punish,2021.1.2,Win32,59.95922773,,,,,,,,,,,,,,w,1,1.4402,1.858691179,0,1,11,3,47,3,1,,,,,,,,,,,,,,
,,,,,,,,,,,right.png,,p,left,616f0823ca981b3ebf4bfcac,2021-10-27_12h32.25.355,arrow_simon_punish,2021.1.2,Win32,59.95922773,,,,,,,,,,,,,,p,1,1.5197,2.23221644,0,1,12,0,48,0,1,,,,,,,,,,,,,,
,,,,,,,,,,,left.png,,w,left,616f0823ca981b3ebf4bfcac,2021-10-27_12h32.25.355,arrow_simon_punish,2021.1.2,Win32,59.95922773,,,,,,,,,,,,,,w,1,1.3691,2.074403024,1,1,12,1,49,2,1,,,,,,,,,,,,,,
,,,,,,,,,,,left.png,,w,right,616f0823ca981b3ebf4bfcac,2021-10-27_12h32.25.355,arrow_simon_punish,2021.1.2,Win32,59.95922773,,,,,,,,,,,,,,w,1,1.4771,2.037612852,0,1,12,2,50,3,1,,,,,,,,,,,,,,
,,,,,,,,,,,right.png,,p,left,616f0823ca981b3ebf4bfcac,2021-10-27_12h32.25.355,arrow_simon_punish,2021.1.2,Win32,59.95922773,,,,,,,,,,,,,,p,1,1.3548,1.914024514,1,1,12,3,51,0,1,,,,,,,,,,,,,,
,,,,,,,,,,,right.png,,p,left,616f0823ca981b3ebf4bfcac,2021-10-27_12h32.25.355,arrow_simon_punish,2021.1.2,Win32,59.95922773,,,,,,,,,,,,,,p,1,1.9541,1.978485546,1,1,13,0,52,0,1,,,,,,,,,,,,,,
,,,,,,,,,,,right.png,,p,right,616f0823ca981b3ebf4bfcac,2021-10-27_12h32.25.355,arrow_simon_punish,2021.1.2,Win32,59.95922773,,,,,,,,,,,,,,p,1,1.467,2.085457763,0,1,13,1,53,1,1,,,,,,,,,,,,,,
,,,,,,,,,,,right.png,,p,left,616f0823ca981b3ebf4bfcac,2021-10-27_12h32.25.355,arrow_simon_punish,2021.1.2,Win32,59.95922773,,,,,,,,,,,,,,p,1,1.4109,2.002820762,0,1,13,2,54,0,1,,,,,,,,,,,,,,
,,,,,,,,,,,right.png,,p,right,616f0823ca981b3ebf4bfcac,2021-10-27_12h32.25.355,arrow_simon_punish,2021.1.2,Win32,59.95922773,,,,,,,,,,,,,,p,1,1.7463,2.392088703,1,1,13,3,55,1,1,,,,,,,,,,,,,,
,,,,,,,,,,,left.png,,w,right,616f0823ca981b3ebf4bfcac,2021-10-27_12h32.25.355,arrow_simon_punish,2021.1.2,Win32,59.95922773,,,,,,,,,,,,,,w,1,1.872,2.474766905,1,1,14,0,56,3,1,,,,,,,,,,,,,,
,,,,,,,,,,,left.png,,w,left,616f0823ca981b3ebf4bfcac,2021-10-27_12h32.25.355,arrow_simon_punish,2021.1.2,Win32,59.95922773,,,,,,,,,,,,,,w,1,1.2341,1.839037555,1,1,14,1,57,2,1,,,,,,,,,,,,,,
,,,,,,,,,,,left.png,,w,right,616f0823ca981b3ebf4bfcac,2021-10-27_12h32.25.355,arrow_simon_punish,2021.1.2,Win32,59.95922773,,,,,,,,,,,,,,w,1,1.5216,1.709389986,0,1,14,2,58,3,1,,,,,,,,,,,,,,
,,,,,,,,,,,left.png,,w,right,616f0823ca981b3ebf4bfcac,2021-10-27_12h32.25.355,arrow_simon_punish,2021.1.2,Win32,59.95922773,,,,,,,,,,,,,,p,0,1.6726,2.393167517,1,1,14,3,59,3,1,,,,,,,,,,,,,,
,,,,,,,,,,,,,,,616f0823ca981b3ebf4bfcac,2021-10-27_12h32.25.355,arrow_simon_punish,2021.1.2,Win32,59.95922773,,,,,,,,,,,,,,,,,,,,,,,,,space,17.533,8,3,0,6,0,1,1,,,,,
,,,,,,,,,,,left.png,,w,right,616f0823ca981b3ebf4bfcac,2021-10-27_12h32.25.355,arrow_simon_punish,2021.1.2,Win32,59.95922773,,,,,,,,,,,,,,p,0,1.4109,2.13633184,1,5,0,0,0,3,1,,,,,,,,,,,,,,
,,,,,,,,,,,right.png,,p,left,616f0823ca981b3ebf4bfcac,2021-10-27_12h32.25.355,arrow_simon_punish,2021.1.2,Win32,59.95922773,,,,,,,,,,,,,,w,0,1.6841,2.414837957,1,5,0,1,1,0,1,,,,,,,,,,,,,,
,,,,,,,,,,,left.png,,w,left,616f0823ca981b3ebf4bfcac,2021-10-27_12h32.25.355,arrow_simon_punish,2021.1.2,Win32,59.95922773,,,,,,,,,,,,,,w,1,1.5181,1.946020803,0,5,0,2,2,2,1,,,,,,,,,,,,,,
,,,,,,,,,,,right.png,,p,left,616f0823ca981b3ebf4bfcac,2021-10-27_12h32.25.355,arrow_simon_punish,2021.1.2,Win32,59.95922773,,,,,,,,,,,,,,p,1,1.5559,2.025666799,0,5,0,3,3,0,1,,,,,,,,,,,,,,
,,,,,,,,,,,left.png,,w,right,616f0823ca981b3ebf4bfcac,2021-10-27_12h32.25.355,arrow_simon_punish,2021.1.2,Win32,59.95922773,,,,,,,,,,,,,,p,0,1.5018,2.349814746,1,5,1,0,4,3,1,,,,,,,,,,,,,,
,,,,,,,,,,,left.png,,w,left,616f0823ca981b3ebf4bfcac,2021-10-27_12h32.25.355,arrow_simon_punish,2021.1.2,Win32,59.95922773,,,,,,,,,,,,,,w,1,1.7045,2.437267433,1,5,1,1,5,2,1,,,,,,,,,,,,,,
,,,,,,,,,,,right.png,,p,left,616f0823ca981b3ebf4bfcac,2021-10-27_12h32.25.355,arrow_simon_punish,2021.1.2,Win32,59.95922773,,,,,,,,,,,,,,p,1,1.5067,2.069132846,0,5,1,2,6,0,1,,,,,,,,,,,,,,
,,,,,,,,,,,left.png,,w,left,616f0823ca981b3ebf4bfcac,2021-10-27_12h32.25.355,arrow_simon_punish,2021.1.2,Win32,59.95922773,,,,,,,,,,,,,,w,1,1.4671,1.649300102,0,5,1,3,7,2,1,,,,,,,,,,,,,,
,,,,,,,,,,,left.png,,w,left,616f0823ca981b3ebf4bfcac,2021-10-27_12h32.25.355,arrow_simon_punish,2021.1.2,Win32,59.95922773,,,,,,,,,,,,,,w,1,1.4585,2.104612108,0,5,2,0,8,2,1,,,,,,,,,,,,,,
