instruct_resp_simon.keys,instruct_resp_simon.corr,instruct_resp_simon.rt,trial_resp_simon.keys,trial_resp_simon.corr,trial_resp_simon.rt,trials_train_simon.thisRepN,trials_train_simon.thisTrialN,trials_train_simon.thisN,trials_train_simon.thisIndex,trials_train_simon.ran,target_file,target_pos,target_resp,target_side,participant,date,expName,psychopyVersion,OS,frameRate,instruct_resp_timing.keys,instruct_resp_timing.corr,instruct_resp_timing.rt,trial_resp_timing.keys,trial_resp_timing.rt,trials_train_timing.thisRepN,trials_train_timing.thisTrialN,trials_train_timing.thisN,trials_train_timing.thisIndex,trials_train_timing.ran,instruct_resp.keys,instruct_resp.corr,instruct_resp.rt,trial_resp.keys,trial_resp.corr,trial_resp.rt,target_onset,err,pun,trials.thisRepN,trials.thisTrialN,trials.thisN,trials.thisIndex,trials.ran,block_note_resp.keys,block_note_resp.rt,block_num,blocks.thisRepN,blocks.thisTrialN,blocks.thisN,blocks.thisIndex,blocks.ran,punish,complete_resp.keys,complete_resp.rt,raffle_trial,raffle_err,raffle_rew
space,0,49.7774,p,1,0.9728,0,0,0,0,1,right.png,,p,left,616f163158768db6c71b4a65,2021-10-21_14h28.59.907,arrow_simon_punish,2021.1.2,Win32,60.24459305,,,,,,,,,,,,,,,,,,,,,,,,,,,,,,,,,,,,,,
,,,w,0,0.8719,0,1,1,1,1,right.png,,p,right,616f163158768db6c71b4a65,2021-10-21_14h28.59.907,arrow_simon_punish,2021.1.2,Win32,60.24459305,,,,,,,,,,,,,,,,,,,,,,,,,,,,,,,,,,,,,,
,,,w,1,1.191,0,2,2,3,1,left.png,,w,right,616f163158768db6c71b4a65,2021-10-21_14h28.59.907,arrow_simon_punish,2021.1.2,Win32,60.24459305,,,,,,,,,,,,,,,,,,,,,,,,,,,,,,,,,,,,,,
,,,w,1,1.2829,0,3,3,2,1,left.png,,w,left,616f163158768db6c71b4a65,2021-10-21_14h28.59.907,arrow_simon_punish,2021.1.2,Win32,60.24459305,,,,,,,,,,,,,,,,,,,,,,,,,,,,,,,,,,,,,,
,,,p,1,1.1102,1,0,4,1,1,right.png,,p,right,616f163158768db6c71b4a65,2021-10-21_14h28.59.907,arrow_simon_punish,2021.1.2,Win32,60.24459305,,,,,,,,,,,,,,,,,,,,,,,,,,,,,,,,,,,,,,
,,,w,1,1.0162,1,1,5,2,1,left.png,,w,left,616f163158768db6c71b4a65,2021-10-21_14h28.59.907,arrow_simon_punish,2021.1.2,Win32,60.24459305,,,,,,,,,,,,,,,,,,,,,,,,,,,,,,,,,,,,,,
,,,p,0,0.9508,1,2,6,3,1,left.png,,w,right,616f163158768db6c71b4a65,2021-10-21_14h28.59.907,arrow_simon_punish,2021.1.2,Win32,60.24459305,,,,,,,,,,,,,,,,,,,,,,,,,,,,,,,,,,,,,,
,,,p,1,1.3704,1,3,7,0,1,right.png,,p,left,616f163158768db6c71b4a65,2021-10-21_14h28.59.907,arrow_simon_punish,2021.1.2,Win32,60.24459305,,,,,,,,,,,,,,,,,,,,,,,,,,,,,,,,,,,,,,
,,,p,1,0.7827,2,0,8,1,1,right.png,,p,right,616f163158768db6c71b4a65,2021-10-21_14h28.59.907,arrow_simon_punish,2021.1.2,Win32,60.24459305,,,,,,,,,,,,,,,,,,,,,,,,,,,,,,,,,,,,,,
,,,w,0,0.7173,2,1,9,0,1,right.png,,p,left,616f163158768db6c71b4a65,2021-10-21_14h28.59.907,arrow_simon_punish,2021.1.2,Win32,60.24459305,,,,,,,,,,,,,,,,,,,,,,,,,,,,,,,,,,,,,,
,,,w,1,0.8867,2,2,10,2,1,left.png,,w,left,616f163158768db6c71b4a65,2021-10-21_14h28.59.907,arrow_simon_punish,2021.1.2,Win32,60.24459305,,,,,,,,,,,,,,,,,,,,,,,,,,,,,,,,,,,,,,
,,,p,0,0.8913,2,3,11,3,1,left.png,,w,right,616f163158768db6c71b4a65,2021-10-21_14h28.59.907,arrow_simon_punish,2021.1.2,Win32,60.24459305,,,,,,,,,,,,,,,,,,,,,,,,,,,,,,,,,,,,,,
,,,p,1,0.8071,3,0,12,1,1,right.png,,p,right,616f163158768db6c71b4a65,2021-10-21_14h28.59.907,arrow_simon_punish,2021.1.2,Win32,60.24459305,,,,,,,,,,,,,,,,,,,,,,,,,,,,,,,,,,,,,,
,,,w,1,0.5546,3,1,13,2,1,left.png,,w,left,616f163158768db6c71b4a65,2021-10-21_14h28.59.907,arrow_simon_punish,2021.1.2,Win32,60.24459305,,,,,,,,,,,,,,,,,,,,,,,,,,,,,,,,,,,,,,
,,,w,1,0.9387,3,2,14,3,1,left.png,,w,right,616f163158768db6c71b4a65,2021-10-21_14h28.59.907,arrow_simon_punish,2021.1.2,Win32,60.24459305,,,,,,,,,,,,,,,,,,,,,,,,,,,,,,,,,,,,,,
,,,p,1,1.2499,3,3,15,0,1,right.png,,p,left,616f163158768db6c71b4a65,2021-10-21_14h28.59.907,arrow_simon_punish,2021.1.2,Win32,60.24459305,,,,,,,,,,,,,,,,,,,,,,,,,,,,,,,,,,,,,,
,,,p,0,1.3323,4,0,16,2,1,left.png,,w,left,616f163158768db6c71b4a65,2021-10-21_14h28.59.907,arrow_simon_punish,2021.1.2,Win32,60.24459305,,,,,,,,,,,,,,,,,,,,,,,,,,,,,,,,,,,,,,
,,,p,0,0.7334,4,1,17,3,1,left.png,,w,right,616f163158768db6c71b4a65,2021-10-21_14h28.59.907,arrow_simon_punish,2021.1.2,Win32,60.24459305,,,,,,,,,,,,,,,,,,,,,,,,,,,,,,,,,,,,,,
,,,p,1,0.8987,4,2,18,0,1,right.png,,p,left,616f163158768db6c71b4a65,2021-10-21_14h28.59.907,arrow_simon_punish,2021.1.2,Win32,60.24459305,,,,,,,,,,,,,,,,,,,,,,,,,,,,,,,,,,,,,,
,,,p,1,0.914,4,3,19,1,1,right.png,,p,right,616f163158768db6c71b4a65,2021-10-21_14h28.59.907,arrow_simon_punish,2021.1.2,Win32,60.24459305,,,,,,,,,,,,,,,,,,,,,,,,,,,,,,,,,,,,,,
,,,p,1,0.5887,5,0,20,1,1,right.png,,p,right,616f163158768db6c71b4a65,2021-10-21_14h28.59.907,arrow_simon_punish,2021.1.2,Win32,60.24459305,,,,,,,,,,,,,,,,,,,,,,,,,,,,,,,,,,,,,,
,,,w,0,0.771,5,1,21,0,1,right.png,,p,left,616f163158768db6c71b4a65,2021-10-21_14h28.59.907,arrow_simon_punish,2021.1.2,Win32,60.24459305,,,,,,,,,,,,,,,,,,,,,,,,,,,,,,,,,,,,,,
,,,w,1,1.0912,5,2,22,2,1,left.png,,w,left,616f163158768db6c71b4a65,2021-10-21_14h28.59.907,arrow_simon_punish,2021.1.2,Win32,60.24459305,,,,,,,,,,,,,,,,,,,,,,,,,,,,,,,,,,,,,,
,,,w,1,0.8002,5,3,23,3,1,left.png,,w,right,616f163158768db6c71b4a65,2021-10-21_14h28.59.907,arrow_simon_punish,2021.1.2,Win32,60.24459305,,,,,,,,,,,,,,,,,,,,,,,,,,,,,,,,,,,,,,
,,,p,1,1.184,6,0,24,0,1,right.png,,p,left,616f163158768db6c71b4a65,2021-10-21_14h28.59.907,arrow_simon_punish,2021.1.2,Win32,60.24459305,,,,,,,,,,,,,,,,,,,,,,,,,,,,,,,,,,,,,,
,,,p,0,1.385,6,1,25,2,1,left.png,,w,left,616f163158768db6c71b4a65,2021-10-21_14h28.59.907,arrow_simon_punish,2021.1.2,Win32,60.24459305,,,,,,,,,,,,,,,,,,,,,,,,,,,,,,,,,,,,,,
,,,p,1,0.7008,6,2,26,1,1,right.png,,p,right,616f163158768db6c71b4a65,2021-10-21_14h28.59.907,arrow_simon_punish,2021.1.2,Win32,60.24459305,,,,,,,,,,,,,,,,,,,,,,,,,,,,,,,,,,,,,,
,,,w,1,1.0377,6,3,27,3,1,left.png,,w,right,616f163158768db6c71b4a65,2021-10-21_14h28.59.907,arrow_simon_punish,2021.1.2,Win32,60.24459305,,,,,,,,,,,,,,,,,,,,,,,,,,,,,,,,,,,,,,
,,,p,1,1.3348,7,0,28,0,1,right.png,,p,left,616f163158768db6c71b4a65,2021-10-21_14h28.59.907,arrow_simon_punish,2021.1.2,Win32,60.24459305,,,,,,,,,,,,,,,,,,,,,,,,,,,,,,,,,,,,,,
,,,p,1,1.3864,7,1,29,1,1,right.png,,p,right,616f163158768db6c71b4a65,2021-10-21_14h28.59.907,arrow_simon_punish,2021.1.2,Win32,60.24459305,,,,,,,,,,,,,,,,,,,,,,,,,,,,,,,,,,,,,,
,,,w,1,1.3681,7,2,30,2,1,left.png,,w,left,616f163158768db6c71b4a65,2021-10-21_14h28.59.907,arrow_simon_punish,2021.1.2,Win32,60.24459305,,,,,,,,,,,,,,,,,,,,,,,,,,,,,,,,,,,,,,
,,,p,0,1.1326,7,3,31,3,1,left.png,,w,right,616f163158768db6c71b4a65,2021-10-21_14h28.59.907,arrow_simon_punish,2021.1.2,Win32,60.24459305,,,,,,,,,,,,,,,,,,,,,,,,,,,,,,,,,,,,,,
,,,p,1,0.843,8,0,32,1,1,right.png,,p,right,616f163158768db6c71b4a65,2021-10-21_14h28.59.907,arrow_simon_punish,2021.1.2,Win32,60.24459305,,,,,,,,,,,,,,,,,,,,,,,,,,,,,,,,,,,,,,
,,,p,1,1.4203,8,1,33,0,1,right.png,,p,left,616f163158768db6c71b4a65,2021-10-21_14h28.59.907,arrow_simon_punish,2021.1.2,Win32,60.24459305,,,,,,,,,,,,,,,,,,,,,,,,,,,,,,,,,,,,,,
,,,w,1,1.1561,8,2,34,3,1,left.png,,w,right,616f163158768db6c71b4a65,2021-10-21_14h28.59.907,arrow_simon_punish,2021.1.2,Win32,60.24459305,,,,,,,,,,,,,,,,,,,,,,,,,,,,,,,,,,,,,,
,,,w,1,1.3028,8,3,35,2,1,left.png,,w,left,616f163158768db6c71b4a65,2021-10-21_14h28.59.907,arrow_simon_punish,2021.1.2,Win32,60.24459305,,,,,,,,,,,,,,,,,,,,,,,,,,,,,,,,,,,,,,
,,,w,1,1.1828,9,0,36,3,1,left.png,,w,right,616f163158768db6c71b4a65,2021-10-21_14h28.59.907,arrow_simon_punish,2021.1.2,Win32,60.24459305,,,,,,,,,,,,,,,,,,,,,,,,,,,,,,,,,,,,,,
,,,w,1,0.6176,9,1,37,2,1,left.png,,w,left,616f163158768db6c71b4a65,2021-10-21_14h28.59.907,arrow_simon_punish,2021.1.2,Win32,60.24459305,,,,,,,,,,,,,,,,,,,,,,,,,,,,,,,,,,,,,,
,,,p,1,1.1391,9,2,38,1,1,right.png,,p,right,616f163158768db6c71b4a65,2021-10-21_14h28.59.907,arrow_simon_punish,2021.1.2,Win32,60.24459305,,,,,,,,,,,,,,,,,,,,,,,,,,,,,,,,,,,,,,
,,,p,1,1.3326,9,3,39,0,1,right.png,,p,left,616f163158768db6c71b4a65,2021-10-21_14h28.59.907,arrow_simon_punish,2021.1.2,Win32,60.24459305,,,,,,,,,,,,,,,,,,,,,,,,,,,,,,,,,,,,,,
,,,,,,,,,,,,,,,616f163158768db6c71b4a65,2021-10-21_14h28.59.907,arrow_simon_punish,2021.1.2,Win32,60.24459305,space,0,37.103,p,1.5465,0,0,0,0,1,,,,,,,,,,,,,,,,,,,,,,,,,,,,
,,,,,,,,,,,,,,,616f163158768db6c71b4a65,2021-10-21_14h28.59.907,arrow_simon_punish,2021.1.2,Win32,60.24459305,,,,p,2.4828,1,0,1,0,1,,,,,,,,,,,,,,,,,,,,,,,,,,,,
,,,,,,,,,,,,,,,616f163158768db6c71b4a65,2021-10-21_14h28.59.907,arrow_simon_punish,2021.1.2,Win32,60.24459305,,,,p,2.2981,2,0,2,0,1,,,,,,,,,,,,,,,,,,,,,,,,,,,,
,,,,,,,,,,,,,,,616f163158768db6c71b4a65,2021-10-21_14h28.59.907,arrow_simon_punish,2021.1.2,Win32,60.24459305,,,,p,2.3264,3,0,3,0,1,,,,,,,,,,,,,,,,,,,,,,,,,,,,
,,,,,,,,,,,,,,,616f163158768db6c71b4a65,2021-10-21_14h28.59.907,arrow_simon_punish,2021.1.2,Win32,60.24459305,,,,p,2.4161,4,0,4,0,1,,,,,,,,,,,,,,,,,,,,,,,,,,,,
,,,,,,,,,,,,,,,616f163158768db6c71b4a65,2021-10-21_14h28.59.907,arrow_simon_punish,2021.1.2,Win32,60.24459305,,,,p,2.3863,5,0,5,0,1,,,,,,,,,,,,,,,,,,,,,,,,,,,,
,,,,,,,,,,,,,,,616f163158768db6c71b4a65,2021-10-21_14h28.59.907,arrow_simon_punish,2021.1.2,Win32,60.24459305,,,,p,2.601,6,0,6,0,1,,,,,,,,,,,,,,,,,,,,,,,,,,,,
,,,,,,,,,,,,,,,616f163158768db6c71b4a65,2021-10-21_14h28.59.907,arrow_simon_punish,2021.1.2,Win32,60.24459305,,,,p,2.4681,7,0,7,0,1,,,,,,,,,,,,,,,,,,,,,,,,,,,,
,,,,,,,,,,,,,,,616f163158768db6c71b4a65,2021-10-21_14h28.59.907,arrow_simon_punish,2021.1.2,Win32,60.24459305,,,,p,2.3862,8,0,8,0,1,,,,,,,,,,,,,,,,,,,,,,,,,,,,
,,,,,,,,,,,,,,,616f163158768db6c71b4a65,2021-10-21_14h28.59.907,arrow_simon_punish,2021.1.2,Win32,60.24459305,,,,p,2.5041,9,0,9,0,1,,,,,,,,,,,,,,,,,,,,,,,,,,,,
,,,,,,,,,,,,,,,616f163158768db6c71b4a65,2021-10-21_14h28.59.907,arrow_simon_punish,2021.1.2,Win32,60.24459305,,,,p,2.4268,10,0,10,0,1,,,,,,,,,,,,,,,,,,,,,,,,,,,,
,,,,,,,,,,,,,,,616f163158768db6c71b4a65,2021-10-21_14h28.59.907,arrow_simon_punish,2021.1.2,Win32,60.24459305,,,,p,2.4347,11,0,11,0,1,,,,,,,,,,,,,,,,,,,,,,,,,,,,
,,,,,,,,,,,,,,,616f163158768db6c71b4a65,2021-10-21_14h28.59.907,arrow_simon_punish,2021.1.2,Win32,60.24459305,,,,p,2.3938,12,0,12,0,1,,,,,,,,,,,,,,,,,,,,,,,,,,,,
,,,,,,,,,,,,,,,616f163158768db6c71b4a65,2021-10-21_14h28.59.907,arrow_simon_punish,2021.1.2,Win32,60.24459305,,,,p,2.3808,13,0,13,0,1,,,,,,,,,,,,,,,,,,,,,,,,,,,,
,,,,,,,,,,,,,,,616f163158768db6c71b4a65,2021-10-21_14h28.59.907,arrow_simon_punish,2021.1.2,Win32,60.24459305,,,,p,2.5514,14,0,14,0,1,,,,,,,,,,,,,,,,,,,,,,,,,,,,
,,,,,,,,,,,,,,,616f163158768db6c71b4a65,2021-10-21_14h28.59.907,arrow_simon_punish,2021.1.2,Win32,60.24459305,,,,p,2.4016,15,0,15,0,1,,,,,,,,,,,,,,,,,,,,,,,,,,,,
,,,,,,,,,,,,,,,616f163158768db6c71b4a65,2021-10-21_14h28.59.907,arrow_simon_punish,2021.1.2,Win32,60.24459305,,,,p,2.4179,16,0,16,0,1,,,,,,,,,,,,,,,,,,,,,,,,,,,,
,,,,,,,,,,,,,,,616f163158768db6c71b4a65,2021-10-21_14h28.59.907,arrow_simon_punish,2021.1.2,Win32,60.24459305,,,,p,2.3846,17,0,17,0,1,,,,,,,,,,,,,,,,,,,,,,,,,,,,
,,,,,,,,,,,,,,,616f163158768db6c71b4a65,2021-10-21_14h28.59.907,arrow_simon_punish,2021.1.2,Win32,60.24459305,,,,p,2.567,18,0,18,0,1,,,,,,,,,,,,,,,,,,,,,,,,,,,,
,,,,,,,,,,,,,,,616f163158768db6c71b4a65,2021-10-21_14h28.59.907,arrow_simon_punish,2021.1.2,Win32,60.24459305,,,,p,2.357,19,0,19,0,1,,,,,,,,,,,,,,,,,,,,,,,,,,,,
,,,,,,,,,,,,,,,616f163158768db6c71b4a65,2021-10-21_14h28.59.907,arrow_simon_punish,2021.1.2,Win32,60.24459305,,,,p,2.4179,20,0,20,0,1,,,,,,,,,,,,,,,,,,,,,,,,,,,,
,,,,,,,,,,,,,,,616f163158768db6c71b4a65,2021-10-21_14h28.59.907,arrow_simon_punish,2021.1.2,Win32,60.24459305,,,,p,2.2334,21,0,21,0,1,,,,,,,,,,,,,,,,,,,,,,,,,,,,
,,,,,,,,,,,,,,,616f163158768db6c71b4a65,2021-10-21_14h28.59.907,arrow_simon_punish,2021.1.2,Win32,60.24459305,,,,p,2.3592,22,0,22,0,1,,,,,,,,,,,,,,,,,,,,,,,,,,,,
,,,,,,,,,,,,,,,616f163158768db6c71b4a65,2021-10-21_14h28.59.907,arrow_simon_punish,2021.1.2,Win32,60.24459305,,,,p,2.4528,23,0,23,0,1,,,,,,,,,,,,,,,,,,,,,,,,,,,,
,,,,,,,,,,,,,,,616f163158768db6c71b4a65,2021-10-21_14h28.59.907,arrow_simon_punish,2021.1.2,Win32,60.24459305,,,,p,2.4678,24,0,24,0,1,,,,,,,,,,,,,,,,,,,,,,,,,,,,
,,,,,,,,,,,,,,,616f163158768db6c71b4a65,2021-10-21_14h28.59.907,arrow_simon_punish,2021.1.2,Win32,60.24459305,,,,p,2.3609,25,0,25,0,1,,,,,,,,,,,,,,,,,,,,,,,,,,,,
,,,,,,,,,,,,,,,616f163158768db6c71b4a65,2021-10-21_14h28.59.907,arrow_simon_punish,2021.1.2,Win32,60.24459305,,,,p,2.454,26,0,26,0,1,,,,,,,,,,,,,,,,,,,,,,,,,,,,
,,,,,,,,,,,,,,,616f163158768db6c71b4a65,2021-10-21_14h28.59.907,arrow_simon_punish,2021.1.2,Win32,60.24459305,,,,p,2.3768,27,0,27,0,1,,,,,,,,,,,,,,,,,,,,,,,,,,,,
,,,,,,,,,,,,,,,616f163158768db6c71b4a65,2021-10-21_14h28.59.907,arrow_simon_punish,2021.1.2,Win32,60.24459305,,,,p,2.4538,28,0,28,0,1,,,,,,,,,,,,,,,,,,,,,,,,,,,,
,,,,,,,,,,,,,,,616f163158768db6c71b4a65,2021-10-21_14h28.59.907,arrow_simon_punish,2021.1.2,Win32,60.24459305,,,,p,2.3474,29,0,29,0,1,,,,,,,,,,,,,,,,,,,,,,,,,,,,
,,,,,,,,,,,,,,,616f163158768db6c71b4a65,2021-10-21_14h28.59.907,arrow_simon_punish,2021.1.2,Win32,60.24459305,,,,p,2.5013,30,0,30,0,1,,,,,,,,,,,,,,,,,,,,,,,,,,,,
,,,,,,,,,,,,,,,616f163158768db6c71b4a65,2021-10-21_14h28.59.907,arrow_simon_punish,2021.1.2,Win32,60.24459305,,,,p,2.4023,31,0,31,0,1,,,,,,,,,,,,,,,,,,,,,,,,,,,,
,,,,,,,,,,,,,,,616f163158768db6c71b4a65,2021-10-21_14h28.59.907,arrow_simon_punish,2021.1.2,Win32,60.24459305,,,,p,2.3014,32,0,32,0,1,,,,,,,,,,,,,,,,,,,,,,,,,,,,
,,,,,,,,,,,,,,,616f163158768db6c71b4a65,2021-10-21_14h28.59.907,arrow_simon_punish,2021.1.2,Win32,60.24459305,,,,p,2.4846,33,0,33,0,1,,,,,,,,,,,,,,,,,,,,,,,,,,,,
,,,,,,,,,,,,,,,616f163158768db6c71b4a65,2021-10-21_14h28.59.907,arrow_simon_punish,2021.1.2,Win32,60.24459305,,,,p,2.4016,34,0,34,0,1,,,,,,,,,,,,,,,,,,,,,,,,,,,,
,,,,,,,,,,,,,,,616f163158768db6c71b4a65,2021-10-21_14h28.59.907,arrow_simon_punish,2021.1.2,Win32,60.24459305,,,,p,2.4251,35,0,35,0,1,,,,,,,,,,,,,,,,,,,,,,,,,,,,
,,,,,,,,,,,,,,,616f163158768db6c71b4a65,2021-10-21_14h28.59.907,arrow_simon_punish,2021.1.2,Win32,60.24459305,,,,p,2.5407,36,0,36,0,1,,,,,,,,,,,,,,,,,,,,,,,,,,,,
,,,,,,,,,,,,,,,616f163158768db6c71b4a65,2021-10-21_14h28.59.907,arrow_simon_punish,2021.1.2,Win32,60.24459305,,,,p,2.1453,37,0,37,0,1,,,,,,,,,,,,,,,,,,,,,,,,,,,,
,,,,,,,,,,,,,,,616f163158768db6c71b4a65,2021-10-21_14h28.59.907,arrow_simon_punish,2021.1.2,Win32,60.24459305,,,,p,2.5069,38,0,38,0,1,,,,,,,,,,,,,,,,,,,,,,,,,,,,
,,,,,,,,,,,,,,,616f163158768db6c71b4a65,2021-10-21_14h28.59.907,arrow_simon_punish,2021.1.2,Win32,60.24459305,,,,p,2.604,39,0,39,0,1,,,,,,,,,,,,,,,,,,,,,,,,,,,,
,,,,,,,,,,,,,,,616f163158768db6c71b4a65,2021-10-21_14h28.59.907,arrow_simon_punish,2021.1.2,Win32,60.24459305,,,,p,2.446,40,0,40,0,1,,,,,,,,,,,,,,,,,,,,,,,,,,,,
,,,,,,,,,,,,,,,616f163158768db6c71b4a65,2021-10-21_14h28.59.907,arrow_simon_punish,2021.1.2,Win32,60.24459305,,,,p,2.4907,41,0,41,0,1,,,,,,,,,,,,,,,,,,,,,,,,,,,,
,,,,,,,,,,,,,,,616f163158768db6c71b4a65,2021-10-21_14h28.59.907,arrow_simon_punish,2021.1.2,Win32,60.24459305,,,,p,2.5371,42,0,42,0,1,,,,,,,,,,,,,,,,,,,,,,,,,,,,
,,,,,,,,,,,,,,,616f163158768db6c71b4a65,2021-10-21_14h28.59.907,arrow_simon_punish,2021.1.2,Win32,60.24459305,,,,p,2.5354,43,0,43,0,1,,,,,,,,,,,,,,,,,,,,,,,,,,,,
,,,,,,,,,,,,,,,616f163158768db6c71b4a65,2021-10-21_14h28.59.907,arrow_simon_punish,2021.1.2,Win32,60.24459305,,,,p,2.6108,44,0,44,0,1,,,,,,,,,,,,,,,,,,,,,,,,,,,,
,,,,,,,,,,,,,,,616f163158768db6c71b4a65,2021-10-21_14h28.59.907,arrow_simon_punish,2021.1.2,Win32,60.24459305,,,,p,2.4885,45,0,45,0,1,,,,,,,,,,,,,,,,,,,,,,,,,,,,
,,,,,,,,,,,,,,,616f163158768db6c71b4a65,2021-10-21_14h28.59.907,arrow_simon_punish,2021.1.2,Win32,60.24459305,,,,p,2.4513,46,0,46,0,1,,,,,,,,,,,,,,,,,,,,,,,,,,,,
,,,,,,,,,,,,,,,616f163158768db6c71b4a65,2021-10-21_14h28.59.907,arrow_simon_punish,2021.1.2,Win32,60.24459305,,,,p,2.3179,47,0,47,0,1,,,,,,,,,,,,,,,,,,,,,,,,,,,,
,,,,,,,,,,,,,,,616f163158768db6c71b4a65,2021-10-21_14h28.59.907,arrow_simon_punish,2021.1.2,Win32,60.24459305,,,,p,2.3682,48,0,48,0,1,,,,,,,,,,,,,,,,,,,,,,,,,,,,
,,,,,,,,,,,,,,,616f163158768db6c71b4a65,2021-10-21_14h28.59.907,arrow_simon_punish,2021.1.2,Win32,60.24459305,,,,p,2.404,49,0,49,0,1,,,,,,,,,,,,,,,,,,,,,,,,,,,,
,,,,,,,,,,,,,,,616f163158768db6c71b4a65,2021-10-21_14h28.59.907,arrow_simon_punish,2021.1.2,Win32,60.24459305,,,,p,2.3607,50,0,50,0,1,,,,,,,,,,,,,,,,,,,,,,,,,,,,
,,,,,,,,,,,,,,,616f163158768db6c71b4a65,2021-10-21_14h28.59.907,arrow_simon_punish,2021.1.2,Win32,60.24459305,,,,p,2.2616,51,0,51,0,1,,,,,,,,,,,,,,,,,,,,,,,,,,,,
,,,,,,,,,,,,,,,616f163158768db6c71b4a65,2021-10-21_14h28.59.907,arrow_simon_punish,2021.1.2,Win32,60.24459305,,,,p,2.3378,52,0,52,0,1,,,,,,,,,,,,,,,,,,,,,,,,,,,,
,,,,,,,,,,,,,,,616f163158768db6c71b4a65,2021-10-21_14h28.59.907,arrow_simon_punish,2021.1.2,Win32,60.24459305,,,,p,2.4141,53,0,53,0,1,,,,,,,,,,,,,,,,,,,,,,,,,,,,
,,,,,,,,,,,,,,,616f163158768db6c71b4a65,2021-10-21_14h28.59.907,arrow_simon_punish,2021.1.2,Win32,60.24459305,,,,p,2.3545,54,0,54,0,1,,,,,,,,,,,,,,,,,,,,,,,,,,,,
,,,,,,,,,,,,,,,616f163158768db6c71b4a65,2021-10-21_14h28.59.907,arrow_simon_punish,2021.1.2,Win32,60.24459305,,,,p,2.396,55,0,55,0,1,,,,,,,,,,,,,,,,,,,,,,,,,,,,
,,,,,,,,,,,,,,,616f163158768db6c71b4a65,2021-10-21_14h28.59.907,arrow_simon_punish,2021.1.2,Win32,60.24459305,,,,p,2.4678,56,0,56,0,1,,,,,,,,,,,,,,,,,,,,,,,,,,,,
,,,,,,,,,,,,,,,616f163158768db6c71b4a65,2021-10-21_14h28.59.907,arrow_simon_punish,2021.1.2,Win32,60.24459305,,,,p,2.4679,57,0,57,0,1,,,,,,,,,,,,,,,,,,,,,,,,,,,,
,,,,,,,,,,,,,,,616f163158768db6c71b4a65,2021-10-21_14h28.59.907,arrow_simon_punish,2021.1.2,Win32,60.24459305,,,,p,2.4285,58,0,58,0,1,,,,,,,,,,,,,,,,,,,,,,,,,,,,
,,,,,,,,,,,,,,,616f163158768db6c71b4a65,2021-10-21_14h28.59.907,arrow_simon_punish,2021.1.2,Win32,60.24459305,,,,p,2.4567,59,0,59,0,1,,,,,,,,,,,,,,,,,,,,,,,,,,,,
,,,,,,,,,,,left.png,,w,left,616f163158768db6c71b4a65,2021-10-21_14h28.59.907,arrow_simon_punish,2021.1.2,Win32,60.24459305,,,,,,,,,,,space,0,131.6051,w,1,0.8682,1.817388028,1,1,0,0,0,2,1,,,,,,,,,,,,,,
,,,,,,,,,,,right.png,,p,left,616f163158768db6c71b4a65,2021-10-21_14h28.59.907,arrow_simon_punish,2021.1.2,Win32,60.24459305,,,,,,,,,,,,,,w,0,0.3943,1.56238969,1,1,0,1,1,0,1,,,,,,,,,,,,,,
,,,,,,,,,,,left.png,,w,right,616f163158768db6c71b4a65,2021-10-21_14h28.59.907,arrow_simon_punish,2021.1.2,Win32,60.24459305,,,,,,,,,,,,,,p,0,0.6113,1.827989711,1,1,0,2,2,3,1,,,,,,,,,,,,,,
,,,,,,,,,,,right.png,,p,left,616f163158768db6c71b4a65,2021-10-21_14h28.59.907,arrow_simon_punish,2021.1.2,Win32,60.24459305,,,,,,,,,,,,,,p,1,1.0463,2.205657931,1,1,0,3,3,0,1,,,,,,,,,,,,,,
,,,,,,,,,,,left.png,,w,right,616f163158768db6c71b4a65,2021-10-21_14h28.59.907,arrow_simon_punish,2021.1.2,Win32,60.24459305,,,,,,,,,,,,,,w,1,0.753,1.952856093,1,1,1,0,4,3,1,,,,,,,,,,,,,,
,,,,,,,,,,,right.png,,p,right,616f163158768db6c71b4a65,2021-10-21_14h28.59.907,arrow_simon_punish,2021.1.2,Win32,60.24459305,,,,,,,,,,,,,,p,1,0.6163,2.28877213,1,1,1,1,5,1,1,,,,,,,,,,,,,,
,,,,,,,,,,,left.png,,w,left,616f163158768db6c71b4a65,2021-10-21_14h28.59.907,arrow_simon_punish,2021.1.2,Win32,60.24459305,,,,,,,,,,,,,,w,1,1.1683,2.236818791,1,1,1,2,6,2,1,,,,,,,,,,,,,,
,,,,,,,,,,,right.png,,p,left,616f163158768db6c71b4a65,2021-10-21_14h28.59.907,arrow_simon_punish,2021.1.2,Win32,60.24459305,,,,,,,,,,,,,,p,1,0.505,1.554357995,1,1,1,3,7,0,1,,,,,,,,,,,,,,
,,,,,,,,,,,left.png,,w,left,616f163158768db6c71b4a65,2021-10-21_14h28.59.907,arrow_simon_punish,2021.1.2,Win32,60.24459305,,,,,,,,,,,,,,w,1,1.167,2.157352766,1,1,2,0,8,2,1,,,,,,,,,,,,,,
,,,,,,,,,,,right.png,,p,left,616f163158768db6c71b4a65,2021-10-21_14h28.59.907,arrow_simon_punish,2021.1.2,Win32,60.24459305,,,,,,,,,,,,,,p,1,1.0382,1.650855853,1,1,2,1,9,0,1,,,,,,,,,,,,,,
,,,,,,,,,,,left.png,,w,left,616f163158768db6c71b4a65,2021-10-21_14h28.59.907,arrow_simon_punish,2021.1.2,Win32,60.24459305,,,,,,,,,,,,,,w,1,1.0552,2.010983135,1,1,2,2,10,2,1,,,,,,,,,,,,,,
,,,,,,,,,,,left.png,,w,right,616f163158768db6c71b4a65,2021-10-21_14h28.59.907,arrow_simon_punish,2021.1.2,Win32,60.24459305,,,,,,,,,,,,,,w,1,0.7223,1.803880797,1,1,2,3,11,3,1,,,,,,,,,,,,,,
,,,,,,,,,,,right.png,,p,left,616f163158768db6c71b4a65,2021-10-21_14h28.59.907,arrow_simon_punish,2021.1.2,Win32,60.24459305,,,,,,,,,,,,,,p,1,1.0376,2.149311275,1,1,3,0,12,0,1,,,,,,,,,,,,,,
,,,,,,,,,,,right.png,,p,left,616f163158768db6c71b4a65,2021-10-21_14h28.59.907,arrow_simon_punish,2021.1.2,Win32,60.24459305,,,,,,,,,,,,,,p,1,1.1375,2.036127403,1,1,3,1,13,0,1,,,,,,,,,,,,,,
,,,,,,,,,,,right.png,,p,right,616f163158768db6c71b4a65,2021-10-21_14h28.59.907,arrow_simon_punish,2021.1.2,Win32,60.24459305,,,,,,,,,,,,,,p,1,0.9209,1.750313311,1,1,3,2,14,1,1,,,,,,,,,,,,,,
,,,,,,,,,,,left.png,,w,left,616f163158768db6c71b4a65,2021-10-21_14h28.59.907,arrow_simon_punish,2021.1.2,Win32,60.24459305,,,,,,,,,,,,,,w,1,0.9253,1.939121279,1,1,3,3,15,2,1,,,,,,,,,,,,,,
,,,,,,,,,,,left.png,,w,right,616f163158768db6c71b4a65,2021-10-21_14h28.59.907,arrow_simon_punish,2021.1.2,Win32,60.24459305,,,,,,,,,,,,,,p,0,1.0365,2.228466754,1,1,4,0,16,3,1,,,,,,,,,,,,,,
,,,,,,,,,,,left.png,,w,left,616f163158768db6c71b4a65,2021-10-21_14h28.59.907,arrow_simon_punish,2021.1.2,Win32,60.24459305,,,,,,,,,,,,,,w,1,1.9943,2.003997299,1,1,4,1,17,2,1,,,,,,,,,,,,,,
,,,,,,,,,,,right.png,,p,right,616f163158768db6c71b4a65,2021-10-21_14h28.59.907,arrow_simon_punish,2021.1.2,Win32,60.24459305,,,,,,,,,,,,,,p,1,1.1707,2.216740232,1,1,4,2,18,1,1,,,,,,,,,,,,,,
,,,,,,,,,,,right.png,,p,right,616f163158768db6c71b4a65,2021-10-21_14h28.59.907,arrow_simon_punish,2021.1.2,Win32,60.24459305,,,,,,,,,,,,,,p,1,1.2101,1.893938675,1,1,4,3,19,1,1,,,,,,,,,,,,,,
,,,,,,,,,,,right.png,,p,left,616f163158768db6c71b4a65,2021-10-21_14h28.59.907,arrow_simon_punish,2021.1.2,Win32,60.24459305,,,,,,,,,,,,,,p,1,1.9356,1.978114117,1,1,5,0,20,0,1,,,,,,,,,,,,,,
,,,,,,,,,,,right.png,,p,right,616f163158768db6c71b4a65,2021-10-21_14h28.59.907,arrow_simon_punish,2021.1.2,Win32,60.24459305,,,,,,,,,,,,,,p,1,1.686,2.229328555,1,1,5,1,21,1,1,,,,,,,,,,,,,,
,,,,,,,,,,,left.png,,w,right,616f163158768db6c71b4a65,2021-10-21_14h28.59.907,arrow_simon_punish,2021.1.2,Win32,60.24459305,,,,,,,,,,,,,,w,1,1.0705,2.026511425,1,1,5,2,22,3,1,,,,,,,,,,,,,,
,,,,,,,,,,,right.png,,p,left,616f163158768db6c71b4a65,2021-10-21_14h28.59.907,arrow_simon_punish,2021.1.2,Win32,60.24459305,,,,,,,,,,,,,,p,1,1.1123,2.163377071,1,1,5,3,23,0,1,,,,,,,,,,,,,,
,,,,,,,,,,,right.png,,p,left,616f163158768db6c71b4a65,2021-10-21_14h28.59.907,arrow_simon_punish,2021.1.2,Win32,60.24459305,,,,,,,,,,,,,,p,1,1.1707,2.297425675,1,1,6,0,24,0,1,,,,,,,,,,,,,,
,,,,,,,,,,,left.png,,w,right,616f163158768db6c71b4a65,2021-10-21_14h28.59.907,arrow_simon_punish,2021.1.2,Win32,60.24459305,,,,,,,,,,,,,,w,1,1.1374,1.561081991,1,1,6,1,25,3,1,,,,,,,,,,,,,,
,,,,,,,,,,,right.png,,p,right,616f163158768db6c71b4a65,2021-10-21_14h28.59.907,arrow_simon_punish,2021.1.2,Win32,60.24459305,,,,,,,,,,,,,,p,1,0.8236,1.775272906,1,1,6,2,26,1,1,,,,,,,,,,,,,,
,,,,,,,,,,,right.png,,p,right,616f163158768db6c71b4a65,2021-10-21_14h28.59.907,arrow_simon_punish,2021.1.2,Win32,60.24459305,,,,,,,,,,,,,,p,1,1.4186,1.615967187,0,1,6,3,27,1,1,,,,,,,,,,,,,,
,,,,,,,,,,,left.png,,w,right,616f163158768db6c71b4a65,2021-10-21_14h28.59.907,arrow_simon_punish,2021.1.2,Win32,60.24459305,,,,,,,,,,,,,,w,1,1.261,2.076395523,1,1,7,0,28,3,1,,,,,,,,,,,,,,
,,,,,,,,,,,left.png,,w,left,616f163158768db6c71b4a65,2021-10-21_14h28.59.907,arrow_simon_punish,2021.1.2,Win32,60.24459305,,,,,,,,,,,,,,w,1,1.5377,2.300208076,0,1,7,1,29,2,1,,,,,,,,,,,,,,
,,,,,,,,,,,right.png,,p,left,616f163158768db6c71b4a65,2021-10-21_14h28.59.907,arrow_simon_punish,2021.1.2,Win32,60.24459305,,,,,,,,,,,,,,p,1,0.8382,1.810881349,1,1,7,2,30,0,1,,,,,,,,,,,,,,
,,,,,,,,,,,left.png,,w,left,616f163158768db6c71b4a65,2021-10-21_14h28.59.907,arrow_simon_punish,2021.1.2,Win32,60.24459305,,,,,,,,,,,,,,w,1,1.4383,1.851447542,0,1,7,3,31,2,1,,,,,,,,,,,,,,
,,,,,,,,,,,right.png,,p,left,616f163158768db6c71b4a65,2021-10-21_14h28.59.907,arrow_simon_punish,2021.1.2,Win32,60.24459305,,,,,,,,,,,,,,p,1,1.1421,2.266009665,1,1,8,0,32,0,1,,,,,,,,,,,,,,
,,,,,,,,,,,right.png,,p,left,616f163158768db6c71b4a65,2021-10-21_14h28.59.907,arrow_simon_punish,2021.1.2,Win32,60.24459305,,,,,,,,,,,,,,p,1,4.172,1.908230551,1,1,8,1,33,0,1,,,,,,,,,,,,,,
,,,,,,,,,,,left.png,,w,right,616f163158768db6c71b4a65,2021-10-21_14h28.59.907,arrow_simon_punish,2021.1.2,Win32,60.24459305,,,,,,,,,,,,,,w,1,1.4719,2.000748307,0,1,8,2,34,3,1,,,,,,,,,,,,,,
,,,,,,,,,,,right.png,,p,right,616f163158768db6c71b4a65,2021-10-21_14h28.59.907,arrow_simon_punish,2021.1.2,Win32,60.24459305,,,,,,,,,,,,,,p,1,0.9876,1.932023467,1,1,8,3,35,1,1,,,,,,,,,,,,,,
,,,,,,,,,,,right.png,,p,left,616f163158768db6c71b4a65,2021-10-21_14h28.59.907,arrow_simon_punish,2021.1.2,Win32,60.24459305,,,,,,,,,,,,,,p,1,1.2526,1.674504479,1,1,9,0,36,0,1,,,,,,,,,,,,,,
,,,,,,,,,,,right.png,,p,right,616f163158768db6c71b4a65,2021-10-21_14h28.59.907,arrow_simon_punish,2021.1.2,Win32,60.24459305,,,,,,,,,,,,,,p,1,1.3205,1.66245482,1,1,9,1,37,1,1,,,,,,,,,,,,,,
,,,,,,,,,,,left.png,,w,left,616f163158768db6c71b4a65,2021-10-21_14h28.59.907,arrow_simon_punish,2021.1.2,Win32,60.24459305,,,,,,,,,,,,,,w,1,7.553,1.907793562,1,1,9,2,38,2,1,,,,,,,,,,,,,,
,,,,,,,,,,,right.png,,p,right,616f163158768db6c71b4a65,2021-10-21_14h28.59.907,arrow_simon_punish,2021.1.2,Win32,60.24459305,,,,,,,,,,,,,,p,1,1.026,1.705987524,1,1,9,3,39,1,1,,,,,,,,,,,,,,
,,,,,,,,,,,left.png,,w,right,616f163158768db6c71b4a65,2021-10-21_14h28.59.907,arrow_simon_punish,2021.1.2,Win32,60.24459305,,,,,,,,,,,,,,w,1,1.2858,2.101864612,1,1,10,0,40,3,1,,,,,,,,,,,,,,
,,,,,,,,,,,right.png,,p,right,616f163158768db6c71b4a65,2021-10-21_14h28.59.907,arrow_simon_punish,2021.1.2,Win32,60.24459305,,,,,,,,,,,,,,p,1,1.0194,2.151952923,1,1,10,1,41,1,1,,,,,,,,,,,,,,
,,,,,,,,,,,left.png,,w,right,616f163158768db6c71b4a65,2021-10-21_14h28.59.907,arrow_simon_punish,2021.1.2,Win32,60.24459305,,,,,,,,,,,,,,w,1,1.1781,2.200343231,1,1,10,2,42,3,1,,,,,,,,,,,,,,
,,,,,,,,,,,right.png,,p,right,616f163158768db6c71b4a65,2021-10-21_14h28.59.907,arrow_simon_punish,2021.1.2,Win32,60.24459305,,,,,,,,,,,,,,p,1,1.1379,1.917306732,1,1,10,3,43,1,1,,,,,,,,,,,,,,
,,,,,,,,,,,left.png,,w,left,616f163158768db6c71b4a65,2021-10-21_14h28.59.907,arrow_simon_punish,2021.1.2,Win32,60.24459305,,,,,,,,,,,,,,w,1,1.104,1.633534397,1,1,11,0,44,2,1,,,,,,,,,,,,,,
,,,,,,,,,,,right.png,,p,right,616f163158768db6c71b4a65,2021-10-21_14h28.59.907,arrow_simon_punish,2021.1.2,Win32,60.24459305,,,,,,,,,,,,,,p,1,1.8533,2.444921044,1,1,11,1,45,1,1,,,,,,,,,,,,,,
,,,,,,,,,,,left.png,,w,left,616f163158768db6c71b4a65,2021-10-21_14h28.59.907,arrow_simon_punish,2021.1.2,Win32,60.24459305,,,,,,,,,,,,,,w,1,1.3058,1.617361332,1,1,11,2,46,2,1,,,,,,,,,,,,,,
,,,,,,,,,,,left.png,,w,left,616f163158768db6c71b4a65,2021-10-21_14h28.59.907,arrow_simon_punish,2021.1.2,Win32,60.24459305,,,,,,,,,,,,,,w,1,1.4047,2.474296528,0,1,11,3,47,2,1,,,,,,,,,,,,,,
,,,,,,,,,,,left.png,,w,right,616f163158768db6c71b4a65,2021-10-21_14h28.59.907,arrow_simon_punish,2021.1.2,Win32,60.24459305,,,,,,,,,,,,,,w,1,1.1957,1.721106121,1,1,12,0,48,3,1,,,,,,,,,,,,,,
,,,,,,,,,,,right.png,,p,left,616f163158768db6c71b4a65,2021-10-21_14h28.59.907,arrow_simon_punish,2021.1.2,Win32,60.24459305,,,,,,,,,,,,,,p,1,0.8406,2.06336414,1,1,12,1,49,0,1,,,,,,,,,,,,,,
,,,,,,,,,,,left.png,,w,left,616f163158768db6c71b4a65,2021-10-21_14h28.59.907,arrow_simon_punish,2021.1.2,Win32,60.24459305,,,,,,,,,,,,,,w,1,1.0768,1.564720925,1,1,12,2,50,2,1,,,,,,,,,,,,,,
,,,,,,,,,,,right.png,,p,left,616f163158768db6c71b4a65,2021-10-21_14h28.59.907,arrow_simon_punish,2021.1.2,Win32,60.24459305,,,,,,,,,,,,,,p,1,1.3706,2.463045803,1,1,12,3,51,0,1,,,,,,,,,,,,,,
,,,,,,,,,,,left.png,,w,right,616f163158768db6c71b4a65,2021-10-21_14h28.59.907,arrow_simon_punish,2021.1.2,Win32,60.24459305,,,,,,,,,,,,,,p,0,1.3548,1.524098014,1,1,13,0,52,3,1,,,,,,,,,,,,,,
,,,,,,,,,,,right.png,,p,right,616f163158768db6c71b4a65,2021-10-21_14h28.59.907,arrow_simon_punish,2021.1.2,Win32,60.24459305,,,,,,,,,,,,,,p,1,1.2937,2.388727918,1,1,13,1,53,1,1,,,,,,,,,,,,,,
,,,,,,,,,,,right.png,,p,right,616f163158768db6c71b4a65,2021-10-21_14h28.59.907,arrow_simon_punish,2021.1.2,Win32,60.24459305,,,,,,,,,,,,,,p,1,1.0033,2.002139215,1,1,13,2,54,1,1,,,,,,,,,,,,,,
,,,,,,,,,,,left.png,,w,left,616f163158768db6c71b4a65,2021-10-21_14h28.59.907,arrow_simon_punish,2021.1.2,Win32,60.24459305,,,,,,,,,,,,,,w,1,0.8713,2.06482653,1,1,13,3,55,2,1,,,,,,,,,,,,,,
,,,,,,,,,,,left.png,,w,right,616f163158768db6c71b4a65,2021-10-21_14h28.59.907,arrow_simon_punish,2021.1.2,Win32,60.24459305,,,,,,,,,,,,,,p,0,1.4392,2.363597018,1,1,14,0,56,3,1,,,,,,,,,,,,,,
,,,,,,,,,,,left.png,,w,left,616f163158768db6c71b4a65,2021-10-21_14h28.59.907,arrow_simon_punish,2021.1.2,Win32,60.24459305,,,,,,,,,,,,,,w,1,1.3854,2.480569013,1,1,14,1,57,2,1,,,,,,,,,,,,,,
,,,,,,,,,,,left.png,,w,right,616f163158768db6c71b4a65,2021-10-21_14h28.59.907,arrow_simon_punish,2021.1.2,Win32,60.24459305,,,,,,,,,,,,,,p,0,1.0047,2.224037615,1,1,14,2,58,3,1,,,,,,,,,,,,,,
,,,,,,,,,,,left.png,,w,right,616f163158768db6c71b4a65,2021-10-21_14h28.59.907,arrow_simon_punish,2021.1.2,Win32,60.24459305,,,,,,,,,,,,,,w,1,1.2039,2.27144717,1,1,14,3,59,3,1,,,,,,,,,,,,,,
,,,,,,,,,,,,,,,616f163158768db6c71b4a65,2021-10-21_14h28.59.907,arrow_simon_punish,2021.1.2,Win32,60.24459305,,,,,,,,,,,,,,,,,,,,,,,,,space,20.8074,2,0,0,0,0,1,1,,,,,
,,,,,,,,,,,right.png,,p,right,616f163158768db6c71b4a65,2021-10-21_14h28.59.907,arrow_simon_punish,2021.1.2,Win32,60.24459305,,,,,,,,,,,,,,p,1,1.4406,1.614063526,0,5,0,0,0,1,1,,,,,,,,,,,,,,
,,,,,,,,,,,left.png,,w,right,616f163158768db6c71b4a65,2021-10-21_14h28.59.907,arrow_simon_punish,2021.1.2,Win32,60.24459305,,,,,,,,,,,,,,w,1,0.6292,1.703427497,1,5,0,1,1,3,1,,,,,,,,,,,,,,
,,,,,,,,,,,right.png,,p,left,616f163158768db6c71b4a65,2021-10-21_14h28.59.907,arrow_simon_punish,2021.1.2,Win32,60.24459305,,,,,,,,,,,,,,p,1,1.2206,2.250650911,1,5,0,2,2,0,1,,,,,,,,,,,,,,
,,,,,,,,,,,left.png,,w,right,616f163158768db6c71b4a65,2021-10-21_14h28.59.907,arrow_simon_punish,2021.1.2,Win32,60.24459305,,,,,,,,,,,,,,w,1,1.2205,1.808661358,1,5,0,3,3,3,1,,,,,,,,,,,,,,
,,,,,,,,,,,left.png,,w,left,616f163158768db6c71b4a65,2021-10-21_14h28.59.907,arrow_simon_punish,2021.1.2,Win32,60.24459305,,,,,,,,,,,,,,w,1,1.3581,2.396630773,1,5,1,0,4,2,1,,,,,,,,,,,,,,
,,,,,,,,,,,left.png,,w,left,616f163158768db6c71b4a65,2021-10-21_14h28.59.907,arrow_simon_punish,2021.1.2,Win32,60.24459305,,,,,,,,,,,,,,w,1,1.3444,1.91861854,1,5,1,1,5,2,1,,,,,,,,,,,,,,
,,,,,,,,,,,right.png,,p,left,616f163158768db6c71b4a65,2021-10-21_14h28.59.907,arrow_simon_punish,2021.1.2,Win32,60.24459305,,,,,,,,,,,,,,p,1,1.2698,1.89983166,1,5,1,2,6,0,1,,,,,,,,,,,,,,
,,,,,,,,,,,right.png,,p,right,616f163158768db6c71b4a65,2021-10-21_14h28.59.907,arrow_simon_punish,2021.1.2,Win32,60.24459305,,,,,,,,,,,,,,p,1,1.4933,2.390850433,0,5,1,3,7,1,1,,,,,,,,,,,,,,
,,,,,,,,,,,left.png,,w,left,616f163158768db6c71b4a65,2021-10-21_14h28.59.907,arrow_simon_punish,2021.1.2,Win32,60.24459305,,,,,,,,,,,,,,w,1,1.5044,2.237810113,0,5,2,0,8,2,1,,,,,,,,,,,,,,
,,,,,,,,,,,right.png,,p,right,616f163158768db6c71b4a65,2021-10-21_14h28.59.907,arrow_simon_punish,2021.1.2,Win32,60.24459305,,,,,,,,,,,,,,p,1,1.2939,1.597062333,1,5,2,1,9,1,1,,,,,,,,,,,,,,
,,,,,,,,,,,left.png,,w,left,616f163158768db6c71b4a65,2021-10-21_14h28.59.907,arrow_simon_punish,2021.1.2,Win32,60.24459305,,,,,,,,,,,,,,w,1,1.4694,1.637749928,0,5,2,2,10,2,1,,,,,,,,,,,,,,
,,,,,,,,,,,left.png,,w,left,616f163158768db6c71b4a65,2021-10-21_14h28.59.907,arrow_simon_punish,2021.1.2,Win32,60.24459305,,,,,,,,,,,,,,w,1,1.3905,2.298167812,1,5,2,3,11,2,1,,,,,,,,,,,,,,
,,,,,,,,,,,left.png,,w,left,616f163158768db6c71b4a65,2021-10-21_14h28.59.907,arrow_simon_punish,2021.1.2,Win32,60.24459305,,,,,,,,,,,,,,w,1,2.4381,2.021475412,1,5,3,0,12,2,1,,,,,,,,,,,,,,
,,,,,,,,,,,left.png,,w,left,616f163158768db6c71b4a65,2021-10-21_14h28.59.907,arrow_simon_punish,2021.1.2,Win32,60.24459305,,,,,,,,,,,,,,w,1,1.4057,2.237799998,0,5,3,1,13,2,1,,,,,,,,,,,,,,
,,,,,,,,,,,left.png,,w,right,616f163158768db6c71b4a65,2021-10-21_14h28.59.907,arrow_simon_punish,2021.1.2,Win32,60.24459305,,,,,,,,,,,,,,w,1,1.4376,2.36444844,0,5,3,2,14,3,1,,,,,,,,,,,,,,
,,,,,,,,,,,right.png,,p,left,616f163158768db6c71b4a65,2021-10-21_14h28.59.907,arrow_simon_punish,2021.1.2,Win32,60.24459305,,,,,,,,,,,,,,p,1,1.319,2.012653185,1,5,3,3,15,0,1,,,,,,,,,,,,,,
,,,,,,,,,,,left.png,,w,right,616f163158768db6c71b4a65,2021-10-21_14h28.59.907,arrow_simon_punish,2021.1.2,Win32,60.24459305,,,,,,,,,,,,,,w,1,1.4283,2.098438577,0,5,4,0,16,3,1,,,,,,,,,,,,,,
,,,,,,,,,,,right.png,,p,right,616f163158768db6c71b4a65,2021-10-21_14h28.59.907,arrow_simon_punish,2021.1.2,Win32,60.24459305,,,,,,,,,,,,,,p,1,1.0947,1.696092526,1,5,4,1,17,1,1,,,,,,,,,,,,,,
,,,,,,,,,,,right.png,,p,right,616f163158768db6c71b4a65,2021-10-21_14h28.59.907,arrow_simon_punish,2021.1.2,Win32,60.24459305,,,,,,,,,,,,,,p,1,1.1594,1.746092381,1,5,4,2,18,1,1,,,,,,,,,,,,,,
,,,,,,,,,,,right.png,,p,right,616f163158768db6c71b4a65,2021-10-21_14h28.59.907,arrow_simon_punish,2021.1.2,Win32,60.24459305,,,,,,,,,,,,,,p,1,1.322,2.346194525,1,5,4,3,19,1,1,,,,,,,,,,,,,,
,,,,,,,,,,,left.png,,w,right,616f163158768db6c71b4a65,2021-10-21_14h28.59.907,arrow_simon_punish,2021.1.2,Win32,60.24459305,,,,,,,,,,,,,,w,1,0.9592,1.651012422,1,5,5,0,20,3,1,,,,,,,,,,,,,,
,,,,,,,,,,,left.png,,w,right,616f163158768db6c71b4a65,2021-10-21_14h28.59.907,arrow_simon_punish,2021.1.2,Win32,60.24459305,,,,,,,,,,,,,,w,1,1.4556,2.451997978,0,5,5,1,21,3,1,,,,,,,,,,,,,,
,,,,,,,,,,,right.png,,p,left,616f163158768db6c71b4a65,2021-10-21_14h28.59.907,arrow_simon_punish,2021.1.2,Win32,60.24459305,,,,,,,,,,,,,,p,1,1.2066,2.238759246,1,5,5,2,22,0,1,,,,,,,,,,,,,,
,,,,,,,,,,,right.png,,p,left,616f163158768db6c71b4a65,2021-10-21_14h28.59.907,arrow_simon_punish,2021.1.2,Win32,60.24459305,,,,,,,,,,,,,,p,1,1.0583,1.812644644,1,5,5,3,23,0,1,,,,,,,,,,,,,,
,,,,,,,,,,,right.png,,p,left,616f163158768db6c71b4a65,2021-10-21_14h28.59.907,arrow_simon_punish,2021.1.2,Win32,60.24459305,,,,,,,,,,,,,,p,1,1.3238,2.205746792,1,5,6,0,24,0,1,,,,,,,,,,,,,,
,,,,,,,,,,,left.png,,w,left,616f163158768db6c71b4a65,2021-10-21_14h28.59.907,arrow_simon_punish,2021.1.2,Win32,60.24459305,,,,,,,,,,,,,,w,1,1.4795,2.391408274,0,5,6,1,25,2,1,,,,,,,,,,,,,,
,,,,,,,,,,,right.png,,p,right,616f163158768db6c71b4a65,2021-10-21_14h28.59.907,arrow_simon_punish,2021.1.2,Win32,60.24459305,,,,,,,,,,,,,,p,1,1.3334,1.937396362,1,5,6,2,26,1,1,,,,,,,,,,,,,,
,,,,,,,,,,,left.png,,w,right,616f163158768db6c71b4a65,2021-10-21_14h28.59.907,arrow_simon_punish,2021.1.2,Win32,60.24459305,,,,,,,,,,,,,,w,1,1.3391,1.515777736,1,5,6,3,27,3,1,,,,,,,,,,,,,,
,,,,,,,,,,,right.png,,p,right,616f163158768db6c71b4a65,2021-10-21_14h28.59.907,arrow_simon_punish,2021.1.2,Win32,60.24459305,,,,,,,,,,,,,,p,1,1.3763,1.926789305,1,5,7,0,28,1,1,,,,,,,,,,,,,,
,,,,,,,,,,,left.png,,w,right,616f163158768db6c71b4a65,2021-10-21_14h28.59.907,arrow_simon_punish,2021.1.2,Win32,60.24459305,,,,,,,,,,,,,,w,1,1.6241,2.483622956,1,5,7,1,29,3,1,,,,,,,,,,,,,,
,,,,,,,,,,,right.png,,p,right,616f163158768db6c71b4a65,2021-10-21_14h28.59.907,arrow_simon_punish,2021.1.2,Win32,60.24459305,,,,,,,,,,,,,,p,1,1.4004,1.63987831,0,5,7,2,30,1,1,,,,,,,,,,,,,,
,,,,,,,,,,,left.png,,w,left,616f163158768db6c71b4a65,2021-10-21_14h28.59.907,arrow_simon_punish,2021.1.2,Win32,60.24459305,,,,,,,,,,,,,,w,1,1.4595,1.992480857,0,5,7,3,31,2,1,,,,,,,,,,,,,,
,,,,,,,,,,,right.png,,p,left,616f163158768db6c71b4a65,2021-10-21_14h28.59.907,arrow_simon_punish,2021.1.2,Win32,60.24459305,,,,,,,,,,,,,,p,1,1.4018,2.433571331,0,5,8,0,32,0,1,,,,,,,,,,,,,,
,,,,,,,,,,,right.png,,p,left,616f163158768db6c71b4a65,2021-10-21_14h28.59.907,arrow_simon_punish,2021.1.2,Win32,60.24459305,,,,,,,,,,,,,,p,1,1.6032,2.311017047,1,5,8,1,33,0,1,,,,,,,,,,,,,,
,,,,,,,,,,,right.png,,p,right,616f163158768db6c71b4a65,2021-10-21_14h28.59.907,arrow_simon_punish,2021.1.2,Win32,60.24459305,,,,,,,,,,,,,,p,1,1.3532,1.594522929,1,5,8,2,34,1,1,,,,,,,,,,,,,,
,,,,,,,,,,,left.png,,w,left,616f163158768db6c71b4a65,2021-10-21_14h28.59.907,arrow_simon_punish,2021.1.2,Win32,60.24459305,,,,,,,,,,,,,,w,1,1.6364,2.442796942,1,5,8,3,35,2,1,,,,,,,,,,,,,,
,,,,,,,,,,,left.png,,w,left,616f163158768db6c71b4a65,2021-10-21_14h28.59.907,arrow_simon_punish,2021.1.2,Win32,60.24459305,,,,,,,,,,,,,,w,1,1.1876,2.121173521,1,5,9,0,36,2,1,,,,,,,,,,,,,,
,,,,,,,,,,,left.png,,w,right,616f163158768db6c71b4a65,2021-10-21_14h28.59.907,arrow_simon_punish,2021.1.2,Win32,60.24459305,,,,,,,,,,,,,,w,1,1.2402,1.972408528,1,5,9,1,37,3,1,,,,,,,,,,,,,,
,,,,,,,,,,,left.png,,w,left,616f163158768db6c71b4a65,2021-10-21_14h28.59.907,arrow_simon_punish,2021.1.2,Win32,60.24459305,,,,,,,,,,,,,,w,1,1.3117,2.100446809,1,5,9,2,38,2,1,,,,,,,,,,,,,,
,,,,,,,,,,,left.png,,w,right,616f163158768db6c71b4a65,2021-10-21_14h28.59.907,arrow_simon_punish,2021.1.2,Win32,60.24459305,,,,,,,,,,,,,,w,1,1.4208,2.129097809,0,5,9,3,39,3,1,,,,,,,,,,,,,,
,,,,,,,,,,,left.png,,w,left,616f163158768db6c71b4a65,2021-10-21_14h28.59.907,arrow_simon_punish,2021.1.2,Win32,60.24459305,,,,,,,,,,,,,,w,1,1.3942,2.396738597,1,5,10,0,40,2,1,,,,,,,,,,,,,,
,,,,,,,,,,,left.png,,w,right,616f163158768db6c71b4a65,2021-10-21_14h28.59.907,arrow_simon_punish,2021.1.2,Win32,60.24459305,,,,,,,,,,,,,,w,1,1.2933,2.247995122,1,5,10,1,41,3,1,,,,,,,,,,,,,,
,,,,,,,,,,,right.png,,p,right,616f163158768db6c71b4a65,2021-10-21_14h28.59.907,arrow_simon_punish,2021.1.2,Win32,60.24459305,,,,,,,,,,,,,,p,1,1.5083,2.434079565,0,5,10,2,42,1,1,,,,,,,,,,,,,,
,,,,,,,,,,,right.png,,p,left,616f163158768db6c71b4a65,2021-10-21_14h28.59.907,arrow_simon_punish,2021.1.2,Win32,60.24459305,,,,,,,,,,,,,,p,1,1.2962,1.872356707,1,5,10,3,43,0,1,,,,,,,,,,,,,,
,,,,,,,,,,,left.png,,w,right,616f163158768db6c71b4a65,2021-10-21_14h28.59.907,arrow_simon_punish,2021.1.2,Win32,60.24459305,,,,,,,,,,,,,,w,1,1.2707,2.405675028,1,5,11,0,44,3,1,,,,,,,,,,,,,,
,,,,,,,,,,,right.png,,p,right,616f163158768db6c71b4a65,2021-10-21_14h28.59.907,arrow_simon_punish,2021.1.2,Win32,60.24459305,,,,,,,,,,,,,,p,1,1.3066,1.591143422,1,5,11,1,45,1,1,,,,,,,,,,,,,,
,,,,,,,,,,,right.png,,p,left,616f163158768db6c71b4a65,2021-10-21_14h28.59.907,arrow_simon_punish,2021.1.2,Win32,60.24459305,,,,,,,,,,,,,,p,1,1.2385,2.160427895,1,5,11,2,46,0,1,,,,,,,,,,,,,,
,,,,,,,,,,,right.png,,p,left,616f163158768db6c71b4a65,2021-10-21_14h28.59.907,arrow_simon_punish,2021.1.2,Win32,60.24459305,,,,,,,,,,,,,,p,1,1.4024,1.783934564,0,5,11,3,47,0,1,,,,,,,,,,,,,,
,,,,,,,,,,,right.png,,p,left,616f163158768db6c71b4a65,2021-10-21_14h28.59.907,arrow_simon_punish,2021.1.2,Win32,60.24459305,,,,,,,,,,,,,,p,1,1.4418,1.908788474,0,5,12,0,48,0,1,,,,,,,,,,,,,,
,,,,,,,,,,,right.png,,p,left,616f163158768db6c71b4a65,2021-10-21_14h28.59.907,arrow_simon_punish,2021.1.2,Win32,60.24459305,,,,,,,,,,,,,,p,1,1.5713,2.338362093,0,5,12,1,49,0,1,,,,,,,,,,,,,,
,,,,,,,,,,,left.png,,w,right,616f163158768db6c71b4a65,2021-10-21_14h28.59.907,arrow_simon_punish,2021.1.2,Win32,60.24459305,,,,,,,,,,,,,,w,1,1.4608,2.120171159,0,5,12,2,50,3,1,,,,,,,,,,,,,,
,,,,,,,,,,,left.png,,w,left,616f163158768db6c71b4a65,2021-10-21_14h28.59.907,arrow_simon_punish,2021.1.2,Win32,60.24459305,,,,,,,,,,,,,,w,1,1.5436,2.040043791,0,5,12,3,51,2,1,,,,,,,,,,,,,,
,,,,,,,,,,,left.png,,w,right,616f163158768db6c71b4a65,2021-10-21_14h28.59.907,arrow_simon_punish,2021.1.2,Win32,60.24459305,,,,,,,,,,,,,,w,1,1.3866,2.008828859,1,5,13,0,52,3,1,,,,,,,,,,,,,,
,,,,,,,,,,,right.png,,p,right,616f163158768db6c71b4a65,2021-10-21_14h28.59.907,arrow_simon_punish,2021.1.2,Win32,60.24459305,,,,,,,,,,,,,,p,1,1.4557,2.227778104,0,5,13,1,53,1,1,,,,,,,,,,,,,,
,,,,,,,,,,,left.png,,w,right,616f163158768db6c71b4a65,2021-10-21_14h28.59.907,arrow_simon_punish,2021.1.2,Win32,60.24459305,,,,,,,,,,,,,,w,1,1.6857,2.453602192,1,5,13,2,54,3,1,,,,,,,,,,,,,,
,,,,,,,,,,,left.png,,w,left,616f163158768db6c71b4a65,2021-10-21_14h28.59.907,arrow_simon_punish,2021.1.2,Win32,60.24459305,,,,,,,,,,,,,,w,1,1.3544,2.171654488,1,5,13,3,55,2,1,,,,,,,,,,,,,,
,,,,,,,,,,,right.png,,p,right,616f163158768db6c71b4a65,2021-10-21_14h28.59.907,arrow_simon_punish,2021.1.2,Win32,60.24459305,,,,,,,,,,,,,,p,1,1.8883,1.871011346,1,5,14,0,56,1,1,,,,,,,,,,,,,,
,,,,,,,,,,,right.png,,p,left,616f163158768db6c71b4a65,2021-10-21_14h28.59.907,arrow_simon_punish,2021.1.2,Win32,60.24459305,,,,,,,,,,,,,,p,1,1.4912,1.615602673,0,5,14,1,57,0,1,,,,,,,,,,,,,,
,,,,,,,,,,,right.png,,p,right,616f163158768db6c71b4a65,2021-10-21_14h28.59.907,arrow_simon_punish,2021.1.2,Win32,60.24459305,,,,,,,,,,,,,,p,1,2.0197,1.928628351,1,5,14,2,58,1,1,,,,,,,,,,,,,,
,,,,,,,,,,,right.png,,p,left,616f163158768db6c71b4a65,2021-10-21_14h28.59.907,arrow_simon_punish,2021.1.2,Win32,60.24459305,,,,,,,,,,,,,,p,1,1.7195,1.880981268,1,5,14,3,59,0,1,,,,,,,,,,,,,,
,,,,,,,,,,,,,,,616f163158768db6c71b4a65,2021-10-21_14h28.59.907,arrow_simon_punish,2021.1.2,Win32,60.24459305,,,,,,,,,,,,,,,,,,,,,,,,,space,44.5384,3,0,1,1,1,1,5,,,,,
,,,,,,,,,,,left.png,,w,left,616f163158768db6c71b4a65,2021-10-21_14h28.59.907,arrow_simon_punish,2021.1.2,Win32,60.24459305,,,,,,,,,,,,,,w,1,1.3065,2.315551954,1,1,0,0,0,2,1,,,,,,,,,,,,,,
,,,,,,,,,,,right.png,,p,right,616f163158768db6c71b4a65,2021-10-21_14h28.59.907,arrow_simon_punish,2021.1.2,Win32,60.24459305,,,,,,,,,,,,,,p,1,1.4009,2.148638513,0,1,0,1,1,1,1,,,,,,,,,,,,,,
,,,,,,,,,,,right.png,,p,right,616f163158768db6c71b4a65,2021-10-21_14h28.59.907,arrow_simon_punish,2021.1.2,Win32,60.24459305,,,,,,,,,,,,,,p,1,1.3103,1.595976984,1,1,0,2,2,1,1,,,,,,,,,,,,,,
,,,,,,,,,,,right.png,,p,right,616f163158768db6c71b4a65,2021-10-21_14h28.59.907,arrow_simon_punish,2021.1.2,Win32,60.24459305,,,,,,,,,,,,,,p,1,1.4184,1.665764966,0,1,0,3,3,1,1,,,,,,,,,,,,,,
,,,,,,,,,,,right.png,,p,left,616f163158768db6c71b4a65,2021-10-21_14h28.59.907,arrow_simon_punish,2021.1.2,Win32,60.24459305,,,,,,,,,,,,,,p,1,1.2698,1.702600581,1,1,1,0,4,0,1,,,,,,,,,,,,,,
,,,,,,,,,,,right.png,,p,left,616f163158768db6c71b4a65,2021-10-21_14h28.59.907,arrow_simon_punish,2021.1.2,Win32,60.24459305,,,,,,,,,,,,,,p,1,1.4932,1.776409708,0,1,1,1,5,0,1,,,,,,,,,,,,,,
,,,,,,,,,,,right.png,,p,left,616f163158768db6c71b4a65,2021-10-21_14h28.59.907,arrow_simon_punish,2021.1.2,Win32,60.24459305,,,,,,,,,,,,,,p,1,1.4498,1.644698552,0,1,1,2,6,0,1,,,,,,,,,,,,,,
,,,,,,,,,,,left.png,,w,left,616f163158768db6c71b4a65,2021-10-21_14h28.59.907,arrow_simon_punish,2021.1.2,Win32,60.24459305,,,,,,,,,,,,,,w,1,1.4667,2.34278341,0,1,1,3,7,2,1,,,,,,,,,,,,,,
,,,,,,,,,,,left.png,,w,right,616f163158768db6c71b4a65,2021-10-21_14h28.59.907,arrow_simon_punish,2021.1.2,Win32,60.24459305,,,,,,,,,,,,,,w,1,1.4594,1.738730472,0,1,2,0,8,3,1,,,,,,,,,,,,,,
,,,,,,,,,,,right.png,,p,left,616f163158768db6c71b4a65,2021-10-21_14h28.59.907,arrow_simon_punish,2021.1.2,Win32,60.24459305,,,,,,,,,,,,,,p,1,1.3856,2.264638386,1,1,2,1,9,0,1,,,,,,,,,,,,,,
,,,,,,,,,,,right.png,,p,right,616f163158768db6c71b4a65,2021-10-21_14h28.59.907,arrow_simon_punish,2021.1.2,Win32,60.24459305,,,,,,,,,,,,,,p,1,1.5459,2.25924116,0,1,2,2,10,1,1,,,,,,,,,,,,,,
,,,,,,,,,,,left.png,,w,right,616f163158768db6c71b4a65,2021-10-21_14h28.59.907,arrow_simon_punish,2021.1.2,Win32,60.24459305,,,,,,,,,,,,,,w,1,1.5064,1.728572714,0,1,2,3,11,3,1,,,,,,,,,,,,,,
,,,,,,,,,,,left.png,,w,right,616f163158768db6c71b4a65,2021-10-21_14h28.59.907,arrow_simon_punish,2021.1.2,Win32,60.24459305,,,,,,,,,,,,,,w,1,1.3791,2.072077587,1,1,3,0,12,3,1,,,,,,,,,,,,,,
,,,,,,,,,,,left.png,,w,left,616f163158768db6c71b4a65,2021-10-21_14h28.59.907,arrow_simon_punish,2021.1.2,Win32,60.24459305,,,,,,,,,,,,,,w,1,1.3712,2.108470296,1,1,3,1,13,2,1,,,,,,,,,,,,,,
,,,,,,,,,,,right.png,,p,right,616f163158768db6c71b4a65,2021-10-21_14h28.59.907,arrow_simon_punish,2021.1.2,Win32,60.24459305,,,,,,,,,,,,,,p,1,0.9999,1.736487614,1,1,3,2,14,1,1,,,,,,,,,,,,,,
,,,,,,,,,,,right.png,,p,right,616f163158768db6c71b4a65,2021-10-21_14h28.59.907,arrow_simon_punish,2021.1.2,Win32,60.24459305,,,,,,,,,,,,,,p,1,1.4536,2.098655871,0,1,3,3,15,1,1,,,,,,,,,,,,,,
,,,,,,,,,,,right.png,,p,left,616f163158768db6c71b4a65,2021-10-21_14h28.59.907,arrow_simon_punish,2021.1.2,Win32,60.24459305,,,,,,,,,,,,,,p,1,1.4667,2.041713904,0,1,4,0,16,0,1,,,,,,,,,,,,,,
,,,,,,,,,,,left.png,,w,right,616f163158768db6c71b4a65,2021-10-21_14h28.59.907,arrow_simon_punish,2021.1.2,Win32,60.24459305,,,,,,,,,,,,,,w,1,1.3196,2.358870808,1,1,4,1,17,3,1,,,,,,,,,,,,,,
,,,,,,,,,,,left.png,,w,left,616f163158768db6c71b4a65,2021-10-21_14h28.59.907,arrow_simon_punish,2021.1.2,Win32,60.24459305,,,,,,,,,,,,,,w,1,1.5328,2.396479601,0,1,4,2,18,2,1,,,,,,,,,,,,,,
,,,,,,,,,,,left.png,,w,left,616f163158768db6c71b4a65,2021-10-21_14h28.59.907,arrow_simon_punish,2021.1.2,Win32,60.24459305,,,,,,,,,,,,,,w,1,1.5734,2.454510126,0,1,4,3,19,2,1,,,,,,,,,,,,,,
,,,,,,,,,,,left.png,,w,left,616f163158768db6c71b4a65,2021-10-21_14h28.59.907,arrow_simon_punish,2021.1.2,Win32,60.24459305,,,,,,,,,,,,,,w,1,1.4566,2.241452051,0,1,5,0,20,2,1,,,,,,,,,,,,,,
,,,,,,,,,,,left.png,,w,left,616f163158768db6c71b4a65,2021-10-21_14h28.59.907,arrow_simon_punish,2021.1.2,Win32,60.24459305,,,,,,,,,,,,,,w,1,1.7032,2.258179562,1,1,5,1,21,2,1,,,,,,,,,,,,,,
,,,,,,,,,,,right.png,,p,left,616f163158768db6c71b4a65,2021-10-21_14h28.59.907,arrow_simon_punish,2021.1.2,Win32,60.24459305,,,,,,,,,,,,,,p,1,1.7836,1.931110272,1,1,5,2,22,0,1,,,,,,,,,,,,,,
,,,,,,,,,,,right.png,,p,left,616f163158768db6c71b4a65,2021-10-21_14h28.59.907,arrow_simon_punish,2021.1.2,Win32,60.24459305,,,,,,,,,,,,,,p,1,1.5998,1.998153265,0,1,5,3,23,0,1,,,,,,,,,,,,,,
,,,,,,,,,,,right.png,,p,right,616f163158768db6c71b4a65,2021-10-21_14h28.59.907,arrow_simon_punish,2021.1.2,Win32,60.24459305,,,,,,,,,,,,,,p,1,1.7164,2.083966355,1,1,6,0,24,1,1,,,,,,,,,,,,,,
,,,,,,,,,,,right.png,,p,right,616f163158768db6c71b4a65,2021-10-21_14h28.59.907,arrow_simon_punish,2021.1.2,Win32,60.24459305,,,,,,,,,,,,,,p,1,2.1332,1.864551612,1,1,6,1,25,1,1,,,,,,,,,,,,,,
,,,,,,,,,,,left.png,,w,left,616f163158768db6c71b4a65,2021-10-21_14h28.59.907,arrow_simon_punish,2021.1.2,Win32,60.24459305,,,,,,,,,,,,,,w,1,1.5175,2.450127084,0,1,6,2,26,2,1,,,,,,,,,,,,,,
,,,,,,,,,,,right.png,,p,left,616f163158768db6c71b4a65,2021-10-21_14h28.59.907,arrow_simon_punish,2021.1.2,Win32,60.24459305,,,,,,,,,,,,,,p,1,1.4311,1.757282177,0,1,6,3,27,0,1,,,,,,,,,,,,,,
,,,,,,,,,,,right.png,,p,right,616f163158768db6c71b4a65,2021-10-21_14h28.59.907,arrow_simon_punish,2021.1.2,Win32,60.24459305,,,,,,,,,,,,,,p,1,1.5518,2.454140306,0,1,7,0,28,1,1,,,,,,,,,,,,,,
,,,,,,,,,,,left.png,,w,right,616f163158768db6c71b4a65,2021-10-21_14h28.59.907,arrow_simon_punish,2021.1.2,Win32,60.24459305,,,,,,,,,,,,,,w,1,1.2469,2.157127831,1,1,7,1,29,3,1,,,,,,,,,,,,,,
,,,,,,,,,,,right.png,,p,right,616f163158768db6c71b4a65,2021-10-21_14h28.59.907,arrow_simon_punish,2021.1.2,Win32,60.24459305,,,,,,,,,,,,,,p,1,1.5023,2.40723818,0,1,7,2,30,1,1,,,,,,,,,,,,,,
,,,,,,,,,,,left.png,,w,left,616f163158768db6c71b4a65,2021-10-21_14h28.59.907,arrow_simon_punish,2021.1.2,Win32,60.24459305,,,,,,,,,,,,,,w,1,1.4663,2.405095802,0,1,7,3,31,2,1,,,,,,,,,,,,,,
,,,,,,,,,,,left.png,,w,right,616f163158768db6c71b4a65,2021-10-21_14h28.59.907,arrow_simon_punish,2021.1.2,Win32,60.24459305,,,,,,,,,,,,,,w,1,1.2375,2.211915561,1,1,8,0,32,3,1,,,,,,,,,,,,,,
,,,,,,,,,,,left.png,,w,right,616f163158768db6c71b4a65,2021-10-21_14h28.59.907,arrow_simon_punish,2021.1.2,Win32,60.24459305,,,,,,,,,,,,,,w,1,1.4796,1.923459301,0,1,8,1,33,3,1,,,,,,,,,,,,,,
,,,,,,,,,,,left.png,,w,left,616f163158768db6c71b4a65,2021-10-21_14h28.59.907,arrow_simon_punish,2021.1.2,Win32,60.24459305,,,,,,,,,,,,,,w,1,1.4852,1.673661782,0,1,8,2,34,2,1,,,,,,,,,,,,,,
,,,,,,,,,,,right.png,,p,right,616f163158768db6c71b4a65,2021-10-21_14h28.59.907,arrow_simon_punish,2021.1.2,Win32,60.24459305,,,,,,,,,,,,,,p,1,1.4497,2.44611801,0,1,8,3,35,1,1,,,,,,,,,,,,,,
,,,,,,,,,,,left.png,,w,right,616f163158768db6c71b4a65,2021-10-21_14h28.59.907,arrow_simon_punish,2021.1.2,Win32,60.24459305,,,,,,,,,,,,,,w,1,1.2355,1.815249718,1,1,9,0,36,3,1,,,,,,,,,,,,,,
,,,,,,,,,,,left.png,,w,right,616f163158768db6c71b4a65,2021-10-21_14h28.59.907,arrow_simon_punish,2021.1.2,Win32,60.24459305,,,,,,,,,,,,,,w,1,1.4513,2.116656357,0,1,9,1,37,3,1,,,,,,,,,,,,,,
,,,,,,,,,,,right.png,,p,left,616f163158768db6c71b4a65,2021-10-21_14h28.59.907,arrow_simon_punish,2021.1.2,Win32,60.24459305,,,,,,,,,,,,,,p,1,1.5927,1.721696703,0,1,9,2,38,0,1,,,,,,,,,,,,,,
,,,,,,,,,,,right.png,,p,right,616f163158768db6c71b4a65,2021-10-21_14h28.59.907,arrow_simon_punish,2021.1.2,Win32,60.24459305,,,,,,,,,,,,,,p,1,1.4476,2.056855779,0,1,9,3,39,1,1,,,,,,,,,,,,,,
,,,,,,,,,,,left.png,,w,right,616f163158768db6c71b4a65,2021-10-21_14h28.59.907,arrow_simon_punish,2021.1.2,Win32,60.24459305,,,,,,,,,,,,,,w,1,1.4939,2.29385527,0,1,10,0,40,3,1,,,,,,,,,,,,,,
,,,,,,,,,,,right.png,,p,left,616f163158768db6c71b4a65,2021-10-21_14h28.59.907,arrow_simon_punish,2021.1.2,Win32,60.24459305,,,,,,,,,,,,,,p,1,1.4254,2.063206292,0,1,10,1,41,0,1,,,,,,,,,,,,,,
,,,,,,,,,,,right.png,,p,left,616f163158768db6c71b4a65,2021-10-21_14h28.59.907,arrow_simon_punish,2021.1.2,Win32,60.24459305,,,,,,,,,,,,,,p,1,1.5037,2.147255831,0,1,10,2,42,0,1,,,,,,,,,,,,,,
,,,,,,,,,,,right.png,,p,right,616f163158768db6c71b4a65,2021-10-21_14h28.59.907,arrow_simon_punish,2021.1.2,Win32,60.24459305,,,,,,,,,,,,,,p,1,1.3942,2.018268634,1,1,10,3,43,1,1,,,,,,,,,,,,,,
,,,,,,,,,,,left.png,,w,right,616f163158768db6c71b4a65,2021-10-21_14h28.59.907,arrow_simon_punish,2021.1.2,Win32,60.24459305,,,,,,,,,,,,,,w,1,1.3038,1.787234242,1,1,11,0,44,3,1,,,,,,,,,,,,,,
,,,,,,,,,,,right.png,,p,right,616f163158768db6c71b4a65,2021-10-21_14h28.59.907,arrow_simon_punish,2021.1.2,Win32,60.24459305,,,,,,,,,,,,,,p,1,1.5976,2.015781589,0,1,11,1,45,1,1,,,,,,,,,,,,,,
,,,,,,,,,,,left.png,,w,left,616f163158768db6c71b4a65,2021-10-21_14h28.59.907,arrow_simon_punish,2021.1.2,Win32,60.24459305,,,,,,,,,,,,,,w,1,1.3414,1.64311946,1,1,11,2,46,2,1,,,,,,,,,,,,,,
,,,,,,,,,,,right.png,,p,left,616f163158768db6c71b4a65,2021-10-21_14h28.59.907,arrow_simon_punish,2021.1.2,Win32,60.24459305,,,,,,,,,,,,,,p,1,1.5994,1.634617786,0,1,11,3,47,0,1,,,,,,,,,,,,,,
,,,,,,,,,,,right.png,,p,right,616f163158768db6c71b4a65,2021-10-21_14h28.59.907,arrow_simon_punish,2021.1.2,Win32,60.24459305,,,,,,,,,,,,,,p,1,1.6889,1.600866799,1,1,12,0,48,1,1,,,,,,,,,,,,,,
,,,,,,,,,,,left.png,,w,right,616f163158768db6c71b4a65,2021-10-21_14h28.59.907,arrow_simon_punish,2021.1.2,Win32,60.24459305,,,,,,,,,,,,,,w,1,2.2577,2.364276168,1,1,12,1,49,3,1,,,,,,,,,,,,,,
,,,,,,,,,,,left.png,,w,right,616f163158768db6c71b4a65,2021-10-21_14h28.59.907,arrow_simon_punish,2021.1.2,Win32,60.24459305,,,,,,,,,,,,,,w,1,1.3928,1.813012099,1,1,12,2,50,3,1,,,,,,,,,,,,,,
,,,,,,,,,,,left.png,,w,left,616f163158768db6c71b4a65,2021-10-21_14h28.59.907,arrow_simon_punish,2021.1.2,Win32,60.24459305,,,,,,,,,,,,,,w,1,1.5051,2.49363453,0,1,12,3,51,2,1,,,,,,,,,,,,,,
,,,,,,,,,,,right.png,,p,left,616f163158768db6c71b4a65,2021-10-21_14h28.59.907,arrow_simon_punish,2021.1.2,Win32,60.24459305,,,,,,,,,,,,,,p,1,1.3463,1.603515825,1,1,13,0,52,0,1,,,,,,,,,,,,,,
,,,,,,,,,,,right.png,,p,left,616f163158768db6c71b4a65,2021-10-21_14h28.59.907,arrow_simon_punish,2021.1.2,Win32,60.24459305,,,,,,,,,,,,,,p,1,1.4238,1.547284041,0,1,13,1,53,0,1,,,,,,,,,,,,,,
,,,,,,,,,,,left.png,,w,right,616f163158768db6c71b4a65,2021-10-21_14h28.59.907,arrow_simon_punish,2021.1.2,Win32,60.24459305,,,,,,,,,,,,,,w,1,1.2792,2.066157355,1,1,13,2,54,3,1,,,,,,,,,,,,,,
,,,,,,,,,,,left.png,,w,left,616f163158768db6c71b4a65,2021-10-21_14h28.59.907,arrow_simon_punish,2021.1.2,Win32,60.24459305,,,,,,,,,,,,,,w,1,1.5588,1.800918204,0,1,13,3,55,2,1,,,,,,,,,,,,,,
,,,,,,,,,,,left.png,,w,right,616f163158768db6c71b4a65,2021-10-21_14h28.59.907,arrow_simon_punish,2021.1.2,Win32,60.24459305,,,,,,,,,,,,,,w,1,1.7423,1.993230835,1,1,14,0,56,3,1,,,,,,,,,,,,,,
,,,,,,,,,,,left.png,,w,left,616f163158768db6c71b4a65,2021-10-21_14h28.59.907,arrow_simon_punish,2021.1.2,Win32,60.24459305,,,,,,,,,,,,,,w,1,1.3348,1.882372672,1,1,14,1,57,2,1,,,,,,,,,,,,,,
,,,,,,,,,,,right.png,,p,left,616f163158768db6c71b4a65,2021-10-21_14h28.59.907,arrow_simon_punish,2021.1.2,Win32,60.24459305,,,,,,,,,,,,,,p,1,1.2016,2.178600768,1,1,14,2,58,0,1,,,,,,,,,,,,,,
,,,,,,,,,,,left.png,,w,left,616f163158768db6c71b4a65,2021-10-21_14h28.59.907,arrow_simon_punish,2021.1.2,Win32,60.24459305,,,,,,,,,,,,,,w,1,0.95,1.638562807,1,1,14,3,59,2,1,,,,,,,,,,,,,,
,,,,,,,,,,,,,,,616f163158768db6c71b4a65,2021-10-21_14h28.59.907,arrow_simon_punish,2021.1.2,Win32,60.24459305,,,,,,,,,,,,,,,,,,,,,,,,,space,7.1006,4,1,0,2,0,1,1,,,,,
,,,,,,,,,,,left.png,,w,left,616f163158768db6c71b4a65,2021-10-21_14h28.59.907,arrow_simon_punish,2021.1.2,Win32,60.24459305,,,,,,,,,,,,,,w,1,1.2883,1.733826758,1,5,0,0,0,2,1,,,,,,,,,,,,,,
,,,,,,,,,,,right.png,,p,right,616f163158768db6c71b4a65,2021-10-21_14h28.59.907,arrow_simon_punish,2021.1.2,Win32,60.24459305,,,,,,,,,,,,,,p,1,1.2913,2.012335486,1,5,0,1,1,1,1,,,,,,,,,,,,,,
,,,,,,,,,,,right.png,,p,left,616f163158768db6c71b4a65,2021-10-21_14h28.59.907,arrow_simon_punish,2021.1.2,Win32,60.24459305,,,,,,,,,,,,,,p,1,1.5519,1.605567136,0,5,0,2,2,0,1,,,,,,,,,,,,,,
,,,,,,,,,,,right.png,,p,left,616f163158768db6c71b4a65,2021-10-21_14h28.59.907,arrow_simon_punish,2021.1.2,Win32,60.24459305,,,,,,,,,,,,,,p,1,1.4294,2.451522875,0,5,0,3,3,0,1,,,,,,,,,,,,,,
,,,,,,,,,,,left.png,,w,left,616f163158768db6c71b4a65,2021-10-21_14h28.59.907,arrow_simon_punish,2021.1.2,Win32,60.24459305,,,,,,,,,,,,,,w,1,1.2685,1.54119406,1,5,1,0,4,2,1,,,,,,,,,,,,,,
,,,,,,,,,,,right.png,,p,left,616f163158768db6c71b4a65,2021-10-21_14h28.59.907,arrow_simon_punish,2021.1.2,Win32,60.24459305,,,,,,,,,,,,,,p,1,1.2857,1.631181252,1,5,1,1,5,0,1,,,,,,,,,,,,,,
,,,,,,,,,,,right.png,,p,right,616f163158768db6c71b4a65,2021-10-21_14h28.59.907,arrow_simon_punish,2021.1.2,Win32,60.24459305,,,,,,,,,,,,,,p,1,1.3379,2.059008237,1,5,1,2,6,1,1,,,,,,,,,,,,,,
,,,,,,,,,,,left.png,,w,left,616f163158768db6c71b4a65,2021-10-21_14h28.59.907,arrow_simon_punish,2021.1.2,Win32,60.24459305,,,,,,,,,,,,,,w,1,1.3429,2.260876938,1,5,1,3,7,2,1,,,,,,,,,,,,,,
,,,,,,,,,,,right.png,,p,left,616f163158768db6c71b4a65,2021-10-21_14h28.59.907,arrow_simon_punish,2021.1.2,Win32,60.24459305,,,,,,,,,,,,,,p,1,1.3185,1.643987443,1,5,2,0,8,0,1,,,,,,,,,,,,,,
,,,,,,,,,,,left.png,,w,right,616f163158768db6c71b4a65,2021-10-21_14h28.59.907,arrow_simon_punish,2021.1.2,Win32,60.24459305,,,,,,,,,,,,,,w,1,1.5222,1.525669716,0,5,2,1,9,3,1,,,,,,,,,,,,,,
,,,,,,,,,,,left.png,,w,right,616f163158768db6c71b4a65,2021-10-21_14h28.59.907,arrow_simon_punish,2021.1.2,Win32,60.24459305,,,,,,,,,,,,,,w,1,1.6502,1.753381267,1,5,2,2,10,3,1,,,,,,,,,,,,,,
,,,,,,,,,,,right.png,,p,right,616f163158768db6c71b4a65,2021-10-21_14h28.59.907,arrow_simon_punish,2021.1.2,Win32,60.24459305,,,,,,,,,,,,,,p,1,1.6558,1.843250461,1,5,2,3,11,1,1,,,,,,,,,,,,,,
,,,,,,,,,,,left.png,,w,left,616f163158768db6c71b4a65,2021-10-21_14h28.59.907,arrow_simon_punish,2021.1.2,Win32,60.24459305,,,,,,,,,,,,,,w,1,1.461,1.994597389,0,5,3,0,12,2,1,,,,,,,,,,,,,,
,,,,,,,,,,,right.png,,p,left,616f163158768db6c71b4a65,2021-10-21_14h28.59.907,arrow_simon_punish,2021.1.2,Win32,60.24459305,,,,,,,,,,,,,,p,1,1.385,1.532317683,1,5,3,1,13,0,1,,,,,,,,,,,,,,
,,,,,,,,,,,left.png,,w,left,616f163158768db6c71b4a65,2021-10-21_14h28.59.907,arrow_simon_punish,2021.1.2,Win32,60.24459305,,,,,,,,,,,,,,w,1,1.361,2.296345293,1,5,3,2,14,2,1,,,,,,,,,,,,,,
,,,,,,,,,,,left.png,,w,right,616f163158768db6c71b4a65,2021-10-21_14h28.59.907,arrow_simon_punish,2021.1.2,Win32,60.24459305,,,,,,,,,,,,,,w,1,1.0608,2.139536101,1,5,3,3,15,3,1,,,,,,,,,,,,,,
,,,,,,,,,,,left.png,,w,left,616f163158768db6c71b4a65,2021-10-21_14h28.59.907,arrow_simon_punish,2021.1.2,Win32,60.24459305,,,,,,,,,,,,,,w,1,1.5004,2.231846834,0,5,4,0,16,2,1,,,,,,,,,,,,,,
,,,,,,,,,,,right.png,,p,right,616f163158768db6c71b4a65,2021-10-21_14h28.59.907,arrow_simon_punish,2021.1.2,Win32,60.24459305,,,,,,,,,,,,,,p,1,1.4775,2.242546096,0,5,4,1,17,1,1,,,,,,,,,,,,,,
,,,,,,,,,,,right.png,,p,right,616f163158768db6c71b4a65,2021-10-21_14h28.59.907,arrow_simon_punish,2021.1.2,Win32,60.24459305,,,,,,,,,,,,,,p,1,1.3493,1.980512348,1,5,4,2,18,1,1,,,,,,,,,,,,,,
,,,,,,,,,,,right.png,,p,right,616f163158768db6c71b4a65,2021-10-21_14h28.59.907,arrow_simon_punish,2021.1.2,Win32,60.24459305,,,,,,,,,,,,,,p,1,1.6498,2.302214911,1,5,4,3,19,1,1,,,,,,,,,,,,,,
,,,,,,,,,,,right.png,,p,right,616f163158768db6c71b4a65,2021-10-21_14h28.59.907,arrow_simon_punish,2021.1.2,Win32,60.24459305,,,,,,,,,,,,,,p,1,1.573,2.113976323,0,5,5,0,20,1,1,,,,,,,,,,,,,,
,,,,,,,,,,,right.png,,p,right,616f163158768db6c71b4a65,2021-10-21_14h28.59.907,arrow_simon_punish,2021.1.2,Win32,60.24459305,,,,,,,,,,,,,,p,1,1.5351,2.46755556,0,5,5,1,21,1,1,,,,,,,,,,,,,,
,,,,,,,,,,,right.png,,p,left,616f163158768db6c71b4a65,2021-10-21_14h28.59.907,arrow_simon_punish,2021.1.2,Win32,60.24459305,,,,,,,,,,,,,,p,1,1.5309,2.318274768,0,5,5,2,22,0,1,,,,,,,,,,,,,,
,,,,,,,,,,,right.png,,p,left,616f163158768db6c71b4a65,2021-10-21_14h28.59.907,arrow_simon_punish,2021.1.2,Win32,60.24459305,,,,,,,,,,,,,,p,1,1.5333,1.801520104,0,5,5,3,23,0,1,,,,,,,,,,,,,,
,,,,,,,,,,,left.png,,w,right,616f163158768db6c71b4a65,2021-10-21_14h28.59.907,arrow_simon_punish,2021.1.2,Win32,60.24459305,,,,,,,,,,,,,,w,1,1.4331,2.349973172,0,5,6,0,24,3,1,,,,,,,,,,,,,,
,,,,,,,,,,,left.png,,w,left,616f163158768db6c71b4a65,2021-10-21_14h28.59.907,arrow_simon_punish,2021.1.2,Win32,60.24459305,,,,,,,,,,,,,,w,1,1.6002,2.454244429,1,5,6,1,25,2,1,,,,,,,,,,,,,,
,,,,,,,,,,,right.png,,p,right,616f163158768db6c71b4a65,2021-10-21_14h28.59.907,arrow_simon_punish,2021.1.2,Win32,60.24459305,,,,,,,,,,,,,,p,1,1.3042,2.284292268,1,5,6,2,26,1,1,,,,,,,,,,,,,,
,,,,,,,,,,,left.png,,w,right,616f163158768db6c71b4a65,2021-10-21_14h28.59.907,arrow_simon_punish,2021.1.2,Win32,60.24459305,,,,,,,,,,,,,,w,1,1.2668,1.591859137,1,5,6,3,27,3,1,,,,,,,,,,,,,,
,,,,,,,,,,,right.png,,p,left,616f163158768db6c71b4a65,2021-10-21_14h28.59.907,arrow_simon_punish,2021.1.2,Win32,60.24459305,,,,,,,,,,,,,,p,1,1.57,1.52693453,0,5,7,0,28,0,1,,,,,,,,,,,,,,
,,,,,,,,,,,left.png,,w,right,616f163158768db6c71b4a65,2021-10-21_14h28.59.907,arrow_simon_punish,2021.1.2,Win32,60.24459305,,,,,,,,,,,,,,w,1,1.427,2.266095188,0,5,7,1,29,3,1,,,,,,,,,,,,,,
,,,,,,,,,,,left.png,,w,right,616f163158768db6c71b4a65,2021-10-21_14h28.59.907,arrow_simon_punish,2021.1.2,Win32,60.24459305,,,,,,,,,,,,,,w,1,1.4541,2.381497008,0,5,7,2,30,3,1,,,,,,,,,,,,,,
,,,,,,,,,,,left.png,,w,left,616f163158768db6c71b4a65,2021-10-21_14h28.59.907,arrow_simon_punish,2021.1.2,Win32,60.24459305,,,,,,,,,,,,,,w,1,1.442,1.543095271,0,5,7,3,31,2,1,,,,,,,,,,,,,,
,,,,,,,,,,,left.png,,w,right,616f163158768db6c71b4a65,2021-10-21_14h28.59.907,arrow_simon_punish,2021.1.2,Win32,60.24459305,,,,,,,,,,,,,,w,1,1.2497,1.890062502,1,5,8,0,32,3,1,,,,,,,,,,,,,,
,,,,,,,,,,,left.png,,w,right,616f163158768db6c71b4a65,2021-10-21_14h28.59.907,arrow_simon_punish,2021.1.2,Win32,60.24459305,,,,,,,,,,,,,,w,1,1.6071,2.343986009,1,5,8,1,33,3,1,,,,,,,,,,,,,,
,,,,,,,,,,,right.png,,p,left,616f163158768db6c71b4a65,2021-10-21_14h28.59.907,arrow_simon_punish,2021.1.2,Win32,60.24459305,,,,,,,,,,,,,,p,1,1.3612,1.583775707,1,5,8,2,34,0,1,,,,,,,,,,,,,,
,,,,,,,,,,,left.png,,w,right,616f163158768db6c71b4a65,2021-10-21_14h28.59.907,arrow_simon_punish,2021.1.2,Win32,60.24459305,,,,,,,,,,,,,,w,1,1.2827,1.725907706,1,5,8,3,35,3,1,,,,,,,,,,,,,,
,,,,,,,,,,,right.png,,p,left,616f163158768db6c71b4a65,2021-10-21_14h28.59.907,arrow_simon_punish,2021.1.2,Win32,60.24459305,,,,,,,,,,,,,,p,1,1.4056,2.477652689,0,5,9,0,36,0,1,,,,,,,,,,,,,,
,,,,,,,,,,,right.png,,p,left,616f163158768db6c71b4a65,2021-10-21_14h28.59.907,arrow_simon_punish,2021.1.2,Win32,60.24459305,,,,,,,,,,,,,,p,1,1.3194,1.547709673,1,5,9,1,37,0,1,,,,,,,,,,,,,,
,,,,,,,,,,,right.png,,p,right,616f163158768db6c71b4a65,2021-10-21_14h28.59.907,arrow_simon_punish,2021.1.2,Win32,60.24459305,,,,,,,,,,,,,,p,1,1.5015,2.442073902,0,5,9,2,38,1,1,,,,,,,,,,,,,,
,,,,,,,,,,,left.png,,w,left,616f163158768db6c71b4a65,2021-10-21_14h28.59.907,arrow_simon_punish,2021.1.2,Win32,60.24459305,,,,,,,,,,,,,,w,1,1.5769,2.291672537,0,5,9,3,39,2,1,,,,,,,,,,,,,,
,,,,,,,,,,,left.png,,w,right,616f163158768db6c71b4a65,2021-10-21_14h28.59.907,arrow_simon_punish,2021.1.2,Win32,60.24459305,,,,,,,,,,,,,,w,1,1.5334,1.645971292,0,5,10,0,40,3,1,,,,,,,,,,,,,,
,,,,,,,,,,,left.png,,w,right,616f163158768db6c71b4a65,2021-10-21_14h28.59.907,arrow_simon_punish,2021.1.2,Win32,60.24459305,,,,,,,,,,,,,,w,1,1.4988,2.204079367,0,5,10,1,41,3,1,,,,,,,,,,,,,,
,,,,,,,,,,,left.png,,w,right,616f163158768db6c71b4a65,2021-10-21_14h28.59.907,arrow_simon_punish,2021.1.2,Win32,60.24459305,,,,,,,,,,,,,,w,1,1.3996,1.919261469,1,5,10,2,42,3,1,,,,,,,,,,,,,,
,,,,,,,,,,,right.png,,p,left,616f163158768db6c71b4a65,2021-10-21_14h28.59.907,arrow_simon_punish,2021.1.2,Win32,60.24459305,,,,,,,,,,,,,,p,1,1.5998,2.105979114,0,5,10,3,43,0,1,,,,,,,,,,,,,,
,,,,,,,,,,,right.png,,p,left,616f163158768db6c71b4a65,2021-10-21_14h28.59.907,arrow_simon_punish,2021.1.2,Win32,60.24459305,,,,,,,,,,,,,,p,1,1.6998,1.618380172,1,5,11,0,44,0,1,,,,,,,,,,,,,,
,,,,,,,,,,,right.png,,p,right,616f163158768db6c71b4a65,2021-10-21_14h28.59.907,arrow_simon_punish,2021.1.2,Win32,60.24459305,,,,,,,,,,,,,,p,1,1.4938,2.220040672,0,5,11,1,45,1,1,,,,,,,,,,,,,,
,,,,,,,,,,,right.png,,p,right,616f163158768db6c71b4a65,2021-10-21_14h28.59.907,arrow_simon_punish,2021.1.2,Win32,60.24459305,,,,,,,,,,,,,,p,1,1.4521,1.597814414,0,5,11,2,46,1,1,,,,,,,,,,,,,,
,,,,,,,,,,,left.png,,w,left,616f163158768db6c71b4a65,2021-10-21_14h28.59.907,arrow_simon_punish,2021.1.2,Win32,60.24459305,,,,,,,,,,,,,,w,1,1.2723,2.435855854,1,5,11,3,47,2,1,,,,,,,,,,,,,,
,,,,,,,,,,,left.png,,w,left,616f163158768db6c71b4a65,2021-10-21_14h28.59.907,arrow_simon_punish,2021.1.2,Win32,60.24459305,,,,,,,,,,,,,,w,1,1.2574,2.064961972,1,5,12,0,48,2,1,,,,,,,,,,,,,,
,,,,,,,,,,,right.png,,p,left,616f163158768db6c71b4a65,2021-10-21_14h28.59.907,arrow_simon_punish,2021.1.2,Win32,60.24459305,,,,,,,,,,,,,,p,1,1.383,1.60415366,1,5,12,1,49,0,1,,,,,,,,,,,,,,
,,,,,,,,,,,right.png,,p,left,616f163158768db6c71b4a65,2021-10-21_14h28.59.907,arrow_simon_punish,2021.1.2,Win32,60.24459305,,,,,,,,,,,,,,p,1,1.517,1.964073734,0,5,12,2,50,0,1,,,,,,,,,,,,,,
,,,,,,,,,,,right.png,,p,right,616f163158768db6c71b4a65,2021-10-21_14h28.59.907,arrow_simon_punish,2021.1.2,Win32,60.24459305,,,,,,,,,,,,,,p,1,1.4688,1.612058982,0,5,12,3,51,1,1,,,,,,,,,,,,,,
,,,,,,,,,,,left.png,,w,left,616f163158768db6c71b4a65,2021-10-21_14h28.59.907,arrow_simon_punish,2021.1.2,Win32,60.24459305,,,,,,,,,,,,,,w,1,1.4712,2.229201994,0,5,13,0,52,2,1,,,,,,,,,,,,,,
,,,,,,,,,,,left.png,,w,right,616f163158768db6c71b4a65,2021-10-21_14h28.59.907,arrow_simon_punish,2021.1.2,Win32,60.24459305,,,,,,,,,,,,,,w,1,1.5075,1.594766775,0,5,13,1,53,3,1,,,,,,,,,,,,,,
,,,,,,,,,,,right.png,,p,right,616f163158768db6c71b4a65,2021-10-21_14h28.59.907,arrow_simon_punish,2021.1.2,Win32,60.24459305,,,,,,,,,,,,,,p,1,1.6235,2.075008861,1,5,13,2,54,1,1,,,,,,,,,,,,,,
,,,,,,,,,,,left.png,,w,left,616f163158768db6c71b4a65,2021-10-21_14h28.59.907,arrow_simon_punish,2021.1.2,Win32,60.24459305,,,,,,,,,,,,,,w,1,1.573,1.854544133,0,5,13,3,55,2,1,,,,,,,,,,,,,,
,,,,,,,,,,,left.png,,w,right,616f163158768db6c71b4a65,2021-10-21_14h28.59.907,arrow_simon_punish,2021.1.2,Win32,60.24459305,,,,,,,,,,,,,,w,1,1.6432,2.453674557,1,5,14,0,56,3,1,,,,,,,,,,,,,,
,,,,,,,,,,,left.png,,w,left,616f163158768db6c71b4a65,2021-10-21_14h28.59.907,arrow_simon_punish,2021.1.2,Win32,60.24459305,,,,,,,,,,,,,,w,1,1.6469,1.539195789,1,5,14,1,57,2,1,,,,,,,,,,,,,,
,,,,,,,,,,,left.png,,w,left,616f163158768db6c71b4a65,2021-10-21_14h28.59.907,arrow_simon_punish,2021.1.2,Win32,60.24459305,,,,,,,,,,,,,,w,1,1.2612,2.247842974,1,5,14,2,58,2,1,,,,,,,,,,,,,,
,,,,,,,,,,,right.png,,p,right,616f163158768db6c71b4a65,2021-10-21_14h28.59.907,arrow_simon_punish,2021.1.2,Win32,60.24459305,,,,,,,,,,,,,,p,1,1.3237,1.954468497,1,5,14,3,59,1,1,,,,,,,,,,,,,,
,,,,,,,,,,,,,,,616f163158768db6c71b4a65,2021-10-21_14h28.59.907,arrow_simon_punish,2021.1.2,Win32,60.24459305,,,,,,,,,,,,,,,,,,,,,,,,,space,4.8395,5,1,1,3,1,1,5,,,,,
,,,,,,,,,,,left.png,,w,left,616f163158768db6c71b4a65,2021-10-21_14h28.59.907,arrow_simon_punish,2021.1.2,Win32,60.24459305,,,,,,,,,,,,,,w,1,1.4518,2.329805856,0,1,0,0,0,2,1,,,,,,,,,,,,,,
,,,,,,,,,,,right.png,,p,left,616f163158768db6c71b4a65,2021-10-21_14h28.59.907,arrow_simon_punish,2021.1.2,Win32,60.24459305,,,,,,,,,,,,,,p,1,1.2903,1.52385397,1,1,0,1,1,0,1,,,,,,,,,,,,,,
,,,,,,,,,,,right.png,,p,left,616f163158768db6c71b4a65,2021-10-21_14h28.59.907,arrow_simon_punish,2021.1.2,Win32,60.24459305,,,,,,,,,,,,,,p,1,1.4851,1.550736806,0,1,0,2,2,0,1,,,,,,,,,,,,,,
,,,,,,,,,,,left.png,,w,right,616f163158768db6c71b4a65,2021-10-21_14h28.59.907,arrow_simon_punish,2021.1.2,Win32,60.24459305,,,,,,,,,,,,,,w,1,1.3473,2.400942711,1,1,0,3,3,3,1,,,,,,,,,,,,,,
,,,,,,,,,,,left.png,,w,left,616f163158768db6c71b4a65,2021-10-21_14h28.59.907,arrow_simon_punish,2021.1.2,Win32,60.24459305,,,,,,,,,,,,,,w,1,1.4386,1.699011641,0,1,1,0,4,2,1,,,,,,,,,,,,,,
,,,,,,,,,,,left.png,,w,right,616f163158768db6c71b4a65,2021-10-21_14h28.59.907,arrow_simon_punish,2021.1.2,Win32,60.24459305,,,,,,,,,,,,,,w,1,1.4684,2.170405208,0,1,1,1,5,3,1,,,,,,,,,,,,,,
,,,,,,,,,,,left.png,,w,right,616f163158768db6c71b4a65,2021-10-21_14h28.59.907,arrow_simon_punish,2021.1.2,Win32,60.24459305,,,,,,,,,,,,,,w,1,1.3318,2.098305767,1,1,1,2,6,3,1,,,,,,,,,,,,,,
,,,,,,,,,,,right.png,,p,right,616f163158768db6c71b4a65,2021-10-21_14h28.59.907,arrow_simon_punish,2021.1.2,Win32,60.24459305,,,,,,,,,,,,,,p,1,1.5622,2.386279055,0,1,1,3,7,1,1,,,,,,,,,,,,,,
,,,,,,,,,,,left.png,,w,right,616f163158768db6c71b4a65,2021-10-21_14h28.59.907,arrow_simon_punish,2021.1.2,Win32,60.24459305,,,,,,,,,,,,,,w,1,1.5526,1.532269519,0,1,2,0,8,3,1,,,,,,,,,,,,,,
,,,,,,,,,,,left.png,,w,left,616f163158768db6c71b4a65,2021-10-21_14h28.59.907,arrow_simon_punish,2021.1.2,Win32,60.24459305,,,,,,,,,,,,,,w,1,1.5507,1.84878461,0,1,2,1,9,2,1,,,,,,,,,,,,,,
,,,,,,,,,,,right.png,,p,left,616f163158768db6c71b4a65,2021-10-21_14h28.59.907,arrow_simon_punish,2021.1.2,Win32,60.24459305,,,,,,,,,,,,,,p,1,1.5109,1.550631388,0,1,2,2,10,0,1,,,,,,,,,,,,,,
,,,,,,,,,,,right.png,,p,right,616f163158768db6c71b4a65,2021-10-21_14h28.59.907,arrow_simon_punish,2021.1.2,Win32,60.24459305,,,,,,,,,,,,,,p,1,1.4896,2.360955692,0,1,2,3,11,1,1,,,,,,,,,,,,,,
,,,,,,,,,,,right.png,,p,right,616f163158768db6c71b4a65,2021-10-21_14h28.59.907,arrow_simon_punish,2021.1.2,Win32,60.24459305,,,,,,,,,,,,,,p,1,1.485,2.186083682,0,1,3,0,12,1,1,,,,,,,,,,,,,,
,,,,,,,,,,,right.png,,p,right,616f163158768db6c71b4a65,2021-10-21_14h28.59.907,arrow_simon_punish,2021.1.2,Win32,60.24459305,,,,,,,,,,,,,,p,1,1.4051,1.794809375,0,1,3,1,13,1,1,,,,,,,,,,,,,,
,,,,,,,,,,,right.png,,p,left,616f163158768db6c71b4a65,2021-10-21_14h28.59.907,arrow_simon_punish,2021.1.2,Win32,60.24459305,,,,,,,,,,,,,,p,1,1.5194,2.332624733,0,1,3,2,14,0,1,,,,,,,,,,,,,,
,,,,,,,,,,,left.png,,w,right,616f163158768db6c71b4a65,2021-10-21_14h28.59.907,arrow_simon_punish,2021.1.2,Win32,60.24459305,,,,,,,,,,,,,,w,1,1.6349,2.208828741,1,1,3,3,15,3,1,,,,,,,,,,,,,,
,,,,,,,,,,,left.png,,w,left,616f163158768db6c71b4a65,2021-10-21_14h28.59.907,arrow_simon_punish,2021.1.2,Win32,60.24459305,,,,,,,,,,,,,,w,1,1.4851,1.53434735,0,1,4,0,16,2,1,,,,,,,,,,,,,,
,,,,,,,,,,,left.png,,w,right,616f163158768db6c71b4a65,2021-10-21_14h28.59.907,arrow_simon_punish,2021.1.2,Win32,60.24459305,,,,,,,,,,,,,,w,1,1.4555,1.942838713,0,1,4,1,17,3,1,,,,,,,,,,,,,,
,,,,,,,,,,,left.png,,w,left,616f163158768db6c71b4a65,2021-10-21_14h28.59.907,arrow_simon_punish,2021.1.2,Win32,60.24459305,,,,,,,,,,,,,,w,1,1.4865,1.573566141,0,1,4,2,18,2,1,,,,,,,,,,,,,,
,,,,,,,,,,,left.png,,w,right,616f163158768db6c71b4a65,2021-10-21_14h28.59.907,arrow_simon_punish,2021.1.2,Win32,60.24459305,,,,,,,,,,,,,,w,1,1.5767,2.399463549,0,1,4,3,19,3,1,,,,,,,,,,,,,,
,,,,,,,,,,,right.png,,p,right,616f163158768db6c71b4a65,2021-10-21_14h28.59.907,arrow_simon_punish,2021.1.2,Win32,60.24459305,,,,,,,,,,,,,,p,1,1.523,1.824784813,0,1,5,0,20,1,1,,,,,,,,,,,,,,
,,,,,,,,,,,right.png,,p,left,616f163158768db6c71b4a65,2021-10-21_14h28.59.907,arrow_simon_punish,2021.1.2,Win32,60.24459305,,,,,,,,,,,,,,p,1,1.3026,2.169817024,1,1,5,1,21,0,1,,,,,,,,,,,,,,
,,,,,,,,,,,right.png,,p,right,616f163158768db6c71b4a65,2021-10-21_14h28.59.907,arrow_simon_punish,2021.1.2,Win32,60.24459305,,,,,,,,,,,,,,p,1,1.6016,1.530910644,1,1,5,2,22,1,1,,,,,,,,,,,,,,
,,,,,,,,,,,left.png,,w,right,616f163158768db6c71b4a65,2021-10-21_14h28.59.907,arrow_simon_punish,2021.1.2,Win32,60.24459305,,,,,,,,,,,,,,w,1,1.5696,2.131580449,0,1,5,3,23,3,1,,,,,,,,,,,,,,
,,,,,,,,,,,right.png,,p,left,616f163158768db6c71b4a65,2021-10-21_14h28.59.907,arrow_simon_punish,2021.1.2,Win32,60.24459305,,,,,,,,,,,,,,p,1,1.518,2.444889249,0,1,6,0,24,0,1,,,,,,,,,,,,,,
,,,,,,,,,,,left.png,,w,left,616f163158768db6c71b4a65,2021-10-21_14h28.59.907,arrow_simon_punish,2021.1.2,Win32,60.24459305,,,,,,,,,,,,,,w,1,1.5361,1.803506689,0,1,6,1,25,2,1,,,,,,,,,,,,,,
,,,,,,,,,,,right.png,,p,left,616f163158768db6c71b4a65,2021-10-21_14h28.59.907,arrow_simon_punish,2021.1.2,Win32,60.24459305,,,,,,,,,,,,,,p,1,1.6581,2.4767539,1,1,6,2,26,0,1,,,,,,,,,,,,,,
,,,,,,,,,,,left.png,,w,left,616f163158768db6c71b4a65,2021-10-21_14h28.59.907,arrow_simon_punish,2021.1.2,Win32,60.24459305,,,,,,,,,,,,,,w,1,1.5383,2.133612129,0,1,6,3,27,2,1,,,,,,,,,,,,,,
,,,,,,,,,,,right.png,,p,right,616f163158768db6c71b4a65,2021-10-21_14h28.59.907,arrow_simon_punish,2021.1.2,Win32,60.24459305,,,,,,,,,,,,,,p,1,1.4184,2.363537121,0,1,7,0,28,1,1,,,,,,,,,,,,,,
,,,,,,,,,,,left.png,,w,right,616f163158768db6c71b4a65,2021-10-21_14h28.59.907,arrow_simon_punish,2021.1.2,Win32,60.24459305,,,,,,,,,,,,,,w,1,1.406,2.452677632,0,1,7,1,29,3,1,,,,,,,,,,,,,,
,,,,,,,,,,,left.png,,w,right,616f163158768db6c71b4a65,2021-10-21_14h28.59.907,arrow_simon_punish,2021.1.2,Win32,60.24459305,,,,,,,,,,,,,,w,1,1.4013,2.459621502,0,1,7,2,30,3,1,,,,,,,,,,,,,,
,,,,,,,,,,,left.png,,w,right,616f163158768db6c71b4a65,2021-10-21_14h28.59.907,arrow_simon_punish,2021.1.2,Win32,60.24459305,,,,,,,,,,,,,,w,1,1.4265,2.494509946,0,1,7,3,31,3,1,,,,,,,,,,,,,,
,,,,,,,,,,,left.png,,w,left,616f163158768db6c71b4a65,2021-10-21_14h28.59.907,arrow_simon_punish,2021.1.2,Win32,60.24459305,,,,,,,,,,,,,,w,1,1.2518,1.878705134,1,1,8,0,32,2,1,,,,,,,,,,,,,,
,,,,,,,,,,,left.png,,w,left,616f163158768db6c71b4a65,2021-10-21_14h28.59.907,arrow_simon_punish,2021.1.2,Win32,60.24459305,,,,,,,,,,,,,,w,1,1.4751,2.010857169,0,1,8,1,33,2,1,,,,,,,,,,,,,,
,,,,,,,,,,,left.png,,w,left,616f163158768db6c71b4a65,2021-10-21_14h28.59.907,arrow_simon_punish,2021.1.2,Win32,60.24459305,,,,,,,,,,,,,,w,1,1.3128,1.957985467,1,1,8,2,34,2,1,,,,,,,,,,,,,,
,,,,,,,,,,,left.png,,w,left,616f163158768db6c71b4a65,2021-10-21_14h28.59.907,arrow_simon_punish,2021.1.2,Win32,60.24459305,,,,,,,,,,,,,,w,1,1.5165,2.093716875,0,1,8,3,35,2,1,,,,,,,,,,,,,,
,,,,,,,,,,,right.png,,p,left,616f163158768db6c71b4a65,2021-10-21_14h28.59.907,arrow_simon_punish,2021.1.2,Win32,60.24459305,,,,,,,,,,,,,,p,1,1.5082,2.236664624,0,1,9,0,36,0,1,,,,,,,,,,,,,,
,,,,,,,,,,,right.png,,p,right,616f163158768db6c71b4a65,2021-10-21_14h28.59.907,arrow_simon_punish,2021.1.2,Win32,60.24459305,,,,,,,,,,,,,,p,1,1.6499,1.944420772,1,1,9,1,37,1,1,,,,,,,,,,,,,,
,,,,,,,,,,,right.png,,p,left,616f163158768db6c71b4a65,2021-10-21_14h28.59.907,arrow_simon_punish,2021.1.2,Win32,60.24459305,,,,,,,,,,,,,,p,1,1.7348,2.356204976,1,1,9,2,38,0,1,,,,,,,,,,,,,,
,,,,,,,,,,,left.png,,w,right,616f163158768db6c71b4a65,2021-10-21_14h28.59.907,arrow_simon_punish,2021.1.2,Win32,60.24459305,,,,,,,,,,,,,,w,1,1.5805,1.917667974,0,1,9,3,39,3,1,,,,,,,,,,,,,,
,,,,,,,,,,,right.png,,p,right,616f163158768db6c71b4a65,2021-10-21_14h28.59.907,arrow_simon_punish,2021.1.2,Win32,60.24459305,,,,,,,,,,,,,,p,1,1.4493,1.743036786,0,1,10,0,40,1,1,,,,,,,,,,,,,,
,,,,,,,,,,,left.png,,w,left,616f163158768db6c71b4a65,2021-10-21_14h28.59.907,arrow_simon_punish,2021.1.2,Win32,60.24459305,,,,,,,,,,,,,,w,1,1.5842,1.547872169,0,1,10,1,41,2,1,,,,,,,,,,,,,,
,,,,,,,,,,,right.png,,p,right,616f163158768db6c71b4a65,2021-10-21_14h28.59.907,arrow_simon_punish,2021.1.2,Win32,60.24459305,,,,,,,,,,,,,,p,1,1.608,2.459748814,1,1,10,2,42,1,1,,,,,,,,,,,,,,
,,,,,,,,,,,left.png,,w,left,616f163158768db6c71b4a65,2021-10-21_14h28.59.907,arrow_simon_punish,2021.1.2,Win32,60.24459305,,,,,,,,,,,,,,w,1,1.2735,1.901153814,1,1,10,3,43,2,1,,,,,,,,,,,,,,
,,,,,,,,,,,right.png,,p,right,616f163158768db6c71b4a65,2021-10-21_14h28.59.907,arrow_simon_punish,2021.1.2,Win32,60.24459305,,,,,,,,,,,,,,p,1,1.2796,1.617138645,1,1,11,0,44,1,1,,,,,,,,,,,,,,
,,,,,,,,,,,left.png,,w,right,616f163158768db6c71b4a65,2021-10-21_14h28.59.907,arrow_simon_punish,2021.1.2,Win32,60.24459305,,,,,,,,,,,,,,w,1,1.5379,1.91565047,0,1,11,1,45,3,1,,,,,,,,,,,,,,
,,,,,,,,,,,right.png,,p,right,616f163158768db6c71b4a65,2021-10-21_14h28.59.907,arrow_simon_punish,2021.1.2,Win32,60.24459305,,,,,,,,,,,,,,p,1,1.2666,1.900316939,1,1,11,2,46,1,1,,,,,,,,,,,,,,
,,,,,,,,,,,right.png,,p,left,616f163158768db6c71b4a65,2021-10-21_14h28.59.907,arrow_simon_punish,2021.1.2,Win32,60.24459305,,,,,,,,,,,,,,p,1,1.5973,1.501155681,0,1,11,3,47,0,1,,,,,,,,,,,,,,
,,,,,,,,,,,right.png,,p,left,616f163158768db6c71b4a65,2021-10-21_14h28.59.907,arrow_simon_punish,2021.1.2,Win32,60.24459305,,,,,,,,,,,,,,p,1,1.6289,1.929442658,1,1,12,0,48,0,1,,,,,,,,,,,,,,
,,,,,,,,,,,right.png,,p,right,616f163158768db6c71b4a65,2021-10-21_14h28.59.907,arrow_simon_punish,2021.1.2,Win32,60.24459305,,,,,,,,,,,,,,p,1,1.5357,2.417168303,0,1,12,1,49,1,1,,,,,,,,,,,,,,
,,,,,,,,,,,right.png,,p,left,616f163158768db6c71b4a65,2021-10-21_14h28.59.907,arrow_simon_punish,2021.1.2,Win32,60.24459305,,,,,,,,,,,,,,p,1,1.3756,2.191758018,1,1,12,2,50,0,1,,,,,,,,,,,,,,
,,,,,,,,,,,left.png,,w,right,616f163158768db6c71b4a65,2021-10-21_14h28.59.907,arrow_simon_punish,2021.1.2,Win32,60.24459305,,,,,,,,,,,,,,w,1,1.4666,1.81215004,0,1,12,3,51,3,1,,,,,,,,,,,,,,
,,,,,,,,,,,right.png,,p,right,616f163158768db6c71b4a65,2021-10-21_14h28.59.907,arrow_simon_punish,2021.1.2,Win32,60.24459305,,,,,,,,,,,,,,p,1,1.5332,2.420233698,0,1,13,0,52,1,1,,,,,,,,,,,,,,
,,,,,,,,,,,left.png,,w,left,616f163158768db6c71b4a65,2021-10-21_14h28.59.907,arrow_simon_punish,2021.1.2,Win32,60.24459305,,,,,,,,,,,,,,w,1,1.418,1.86638256,0,1,13,1,53,2,1,,,,,,,,,,,,,,
,,,,,,,,,,,right.png,,p,left,616f163158768db6c71b4a65,2021-10-21_14h28.59.907,arrow_simon_punish,2021.1.2,Win32,60.24459305,,,,,,,,,,,,,,p,1,1.4194,2.385173529,0,1,13,2,54,0,1,,,,,,,,,,,,,,
,,,,,,,,,,,right.png,,p,right,616f163158768db6c71b4a65,2021-10-21_14h28.59.907,arrow_simon_punish,2021.1.2,Win32,60.24459305,,,,,,,,,,,,,,p,1,1.507,2.393866831,0,1,13,3,55,1,1,,,,,,,,,,,,,,
,,,,,,,,,,,left.png,,w,right,616f163158768db6c71b4a65,2021-10-21_14h28.59.907,arrow_simon_punish,2021.1.2,Win32,60.24459305,,,,,,,,,,,,,,w,1,1.3347,2.043288161,1,1,14,0,56,3,1,,,,,,,,,,,,,,
,,,,,,,,,,,right.png,,p,left,616f163158768db6c71b4a65,2021-10-21_14h28.59.907,arrow_simon_punish,2021.1.2,Win32,60.24459305,,,,,,,,,,,,,,p,1,1.4906,2.353556445,0,1,14,1,57,0,1,,,,,,,,,,,,,,
,,,,,,,,,,,left.png,,w,left,616f163158768db6c71b4a65,2021-10-21_14h28.59.907,arrow_simon_punish,2021.1.2,Win32,60.24459305,,,,,,,,,,,,,,w,1,1.3133,1.746965503,1,1,14,2,58,2,1,,,,,,,,,,,,,,
,,,,,,,,,,,right.png,,p,left,616f163158768db6c71b4a65,2021-10-21_14h28.59.907,arrow_simon_punish,2021.1.2,Win32,60.24459305,,,,,,,,,,,,,,p,1,1.433,1.653992049,0,1,14,3,59,0,1,,,,,,,,,,,,,,
,,,,,,,,,,,,,,,616f163158768db6c71b4a65,2021-10-21_14h28.59.907,arrow_simon_punish,2021.1.2,Win32,60.24459305,,,,,,,,,,,,,,,,,,,,,,,,,space,3.5135,6,2,0,4,0,1,1,,,,,
,,,,,,,,,,,right.png,,p,left,616f163158768db6c71b4a65,2021-10-21_14h28.59.907,arrow_simon_punish,2021.1.2,Win32,60.24459305,,,,,,,,,,,,,,p,1,1.4836,1.989928225,0,5,0,0,0,0,1,,,,,,,,,,,,,,
,,,,,,,,,,,right.png,,p,right,616f163158768db6c71b4a65,2021-10-21_14h28.59.907,arrow_simon_punish,2021.1.2,Win32,60.24459305,,,,,,,,,,,,,,p,1,1.3062,1.625927391,1,5,0,1,1,1,1,,,,,,,,,,,,,,
,,,,,,,,,,,right.png,,p,left,616f163158768db6c71b4a65,2021-10-21_14h28.59.907,arrow_simon_punish,2021.1.2,Win32,60.24459305,,,,,,,,,,,,,,p,1,1.4893,1.861820422,0,5,0,2,2,0,1,,,,,,,,,,,,,,
,,,,,,,,,,,right.png,,p,right,616f163158768db6c71b4a65,2021-10-21_14h28.59.907,arrow_simon_punish,2021.1.2,Win32,60.24459305,,,,,,,,,,,,,,p,1,1.8499,2.1042675,1,5,0,3,3,1,1,,,,,,,,,,,,,,
,,,,,,,,,,,right.png,,p,left,616f163158768db6c71b4a65,2021-10-21_14h28.59.907,arrow_simon_punish,2021.1.2,Win32,60.24459305,,,,,,,,,,,,,,p,1,1.5092,2.39149177,0,5,1,0,4,0,1,,,,,,,,,,,,,,
,,,,,,,,,,,left.png,,w,left,616f163158768db6c71b4a65,2021-10-21_14h28.59.907,arrow_simon_punish,2021.1.2,Win32,60.24459305,,,,,,,,,,,,,,w,1,1.5498,2.009631089,0,5,1,1,5,2,1,,,,,,,,,,,,,,
,,,,,,,,,,,left.png,,w,left,616f163158768db6c71b4a65,2021-10-21_14h28.59.907,arrow_simon_punish,2021.1.2,Win32,60.24459305,,,,,,,,,,,,,,w,1,1.4855,2.110440898,0,5,1,2,6,2,1,,,,,,,,,,,,,,
,,,,,,,,,,,right.png,,p,left,616f163158768db6c71b4a65,2021-10-21_14h28.59.907,arrow_simon_punish,2021.1.2,Win32,60.24459305,,,,,,,,,,,,,,p,1,1.6862,2.456447078,1,5,1,3,7,0,1,,,,,,,,,,,,,,
,,,,,,,,,,,left.png,,w,right,616f163158768db6c71b4a65,2021-10-21_14h28.59.907,arrow_simon_punish,2021.1.2,Win32,60.24459305,,,,,,,,,,,,,,w,1,1.529,2.498216636,0,5,2,0,8,3,1,,,,,,,,,,,,,,
,,,,,,,,,,,right.png,,p,left,616f163158768db6c71b4a65,2021-10-21_14h28.59.907,arrow_simon_punish,2021.1.2,Win32,60.24459305,,,,,,,,,,,,,,p,1,1.4437,2.360543622,0,5,2,1,9,0,1,,,,,,,,,,,,,,
,,,,,,,,,,,left.png,,w,right,616f163158768db6c71b4a65,2021-10-21_14h28.59.907,arrow_simon_punish,2021.1.2,Win32,60.24459305,,,,,,,,,,,,,,w,1,1.3846,1.69003707,1,5,2,2,10,3,1,,,,,,,,,,,,,,
,,,,,,,,,,,right.png,,p,right,616f163158768db6c71b4a65,2021-10-21_14h28.59.907,arrow_simon_punish,2021.1.2,Win32,60.24459305,,,,,,,,,,,,,,p,1,1.6972,2.462152402,1,5,2,3,11,1,1,,,,,,,,,,,,,,
,,,,,,,,,,,right.png,,p,right,616f163158768db6c71b4a65,2021-10-21_14h28.59.907,arrow_simon_punish,2021.1.2,Win32,60.24459305,,,,,,,,,,,,,,p,1,1.4509,1.873826291,0,5,3,0,12,1,1,,,,,,,,,,,,,,
,,,,,,,,,,,left.png,,w,left,616f163158768db6c71b4a65,2021-10-21_14h28.59.907,arrow_simon_punish,2021.1.2,Win32,60.24459305,,,,,,,,,,,,,,w,1,1.2848,1.936865793,1,5,3,1,13,2,1,,,,,,,,,,,,,,
,,,,,,,,,,,left.png,,w,left,616f163158768db6c71b4a65,2021-10-21_14h28.59.907,arrow_simon_punish,2021.1.2,Win32,60.24459305,,,,,,,,,,,,,,w,1,1.5458,1.620550771,0,5,3,2,14,2,1,,,,,,,,,,,,,,
,,,,,,,,,,,right.png,,p,left,616f163158768db6c71b4a65,2021-10-21_14h28.59.907,arrow_simon_punish,2021.1.2,Win32,60.24459305,,,,,,,,,,,,,,p,1,1.5248,1.950596705,0,5,3,3,15,0,1,,,,,,,,,,,,,,
,,,,,,,,,,,left.png,,w,left,616f163158768db6c71b4a65,2021-10-21_14h28.59.907,arrow_simon_punish,2021.1.2,Win32,60.24459305,,,,,,,,,,,,,,w,1,1.3848,1.558539569,1,5,4,0,16,2,1,,,,,,,,,,,,,,
,,,,,,,,,,,right.png,,p,left,616f163158768db6c71b4a65,2021-10-21_14h28.59.907,arrow_simon_punish,2021.1.2,Win32,60.24459305,,,,,,,,,,,,,,p,1,1.5166,2.352345076,0,5,4,1,17,0,1,,,,,,,,,,,,,,
,,,,,,,,,,,left.png,,w,right,616f163158768db6c71b4a65,2021-10-21_14h28.59.907,arrow_simon_punish,2021.1.2,Win32,60.24459305,,,,,,,,,,,,,,w,1,1.6439,2.02285442,1,5,4,2,18,3,1,,,,,,,,,,,,,,
,,,,,,,,,,,left.png,,w,right,616f163158768db6c71b4a65,2021-10-21_14h28.59.907,arrow_simon_punish,2021.1.2,Win32,60.24459305,,,,,,,,,,,,,,w,1,1.3472,2.049601137,1,5,4,3,19,3,1,,,,,,,,,,,,,,
,,,,,,,,,,,left.png,,w,right,616f163158768db6c71b4a65,2021-10-21_14h28.59.907,arrow_simon_punish,2021.1.2,Win32,60.24459305,,,,,,,,,,,,,,w,1,1.526,2.096518484,0,5,5,0,20,3,1,,,,,,,,,,,,,,
,,,,,,,,,,,left.png,,w,left,616f163158768db6c71b4a65,2021-10-21_14h28.59.907,arrow_simon_punish,2021.1.2,Win32,60.24459305,,,,,,,,,,,,,,w,1,1.6332,1.657427698,1,5,5,1,21,2,1,,,,,,,,,,,,,,
,,,,,,,,,,,right.png,,p,left,616f163158768db6c71b4a65,2021-10-21_14h28.59.907,arrow_simon_punish,2021.1.2,Win32,60.24459305,,,,,,,,,,,,,,p,1,1.583,1.539329109,0,5,5,2,22,0,1,,,,,,,,,,,,,,
,,,,,,,,,,,left.png,,w,right,616f163158768db6c71b4a65,2021-10-21_14h28.59.907,arrow_simon_punish,2021.1.2,Win32,60.24459305,,,,,,,,,,,,,,w,1,1.5401,2.4845869,0,5,5,3,23,3,1,,,,,,,,,,,,,,
,,,,,,,,,,,left.png,,w,right,616f163158768db6c71b4a65,2021-10-21_14h28.59.907,arrow_simon_punish,2021.1.2,Win32,60.24459305,,,,,,,,,,,,,,w,1,1.3637,2.162618633,1,5,6,0,24,3,1,,,,,,,,,,,,,,
,,,,,,,,,,,right.png,,p,right,616f163158768db6c71b4a65,2021-10-21_14h28.59.907,arrow_simon_punish,2021.1.2,Win32,60.24459305,,,,,,,,,,,,,,p,1,1.4358,2.060555052,0,5,6,1,25,1,1,,,,,,,,,,,,,,
,,,,,,,,,,,right.png,,p,left,616f163158768db6c71b4a65,2021-10-21_14h28.59.907,arrow_simon_punish,2021.1.2,Win32,60.24459305,,,,,,,,,,,,,,p,1,1.4228,1.96969883,0,5,6,2,26,0,1,,,,,,,,,,,,,,
,,,,,,,,,,,left.png,,w,right,616f163158768db6c71b4a65,2021-10-21_14h28.59.907,arrow_simon_punish,2021.1.2,Win32,60.24459305,,,,,,,,,,,,,,w,1,1.4499,1.714510964,0,5,6,3,27,3,1,,,,,,,,,,,,,,
,,,,,,,,,,,right.png,,p,right,616f163158768db6c71b4a65,2021-10-21_14h28.59.907,arrow_simon_punish,2021.1.2,Win32,60.24459305,,,,,,,,,,,,,,p,1,1.4679,2.241480909,0,5,7,0,28,1,1,,,,,,,,,,,,,,
,,,,,,,,,,,right.png,,p,right,616f163158768db6c71b4a65,2021-10-21_14h28.59.907,arrow_simon_punish,2021.1.2,Win32,60.24459305,,,,,,,,,,,,,,p,1,1.4666,2.472068986,0,5,7,1,29,1,1,,,,,,,,,,,,,,
,,,,,,,,,,,right.png,,p,left,616f163158768db6c71b4a65,2021-10-21_14h28.59.907,arrow_simon_punish,2021.1.2,Win32,60.24459305,,,,,,,,,,,,,,p,1,0.7656,1.737910827,1,5,7,2,30,0,1,,,,,,,,,,,,,,
,,,,,,,,,,,right.png,,p,left,616f163158768db6c71b4a65,2021-10-21_14h28.59.907,arrow_simon_punish,2021.1.2,Win32,60.24459305,,,,,,,,,,,,,,p,1,1.6164,2.327807013,1,5,7,3,31,0,1,,,,,,,,,,,,,,
,,,,,,,,,,,left.png,,w,left,616f163158768db6c71b4a65,2021-10-21_14h28.59.907,arrow_simon_punish,2021.1.2,Win32,60.24459305,,,,,,,,,,,,,,w,1,1.3314,1.726084968,1,5,8,0,32,2,1,,,,,,,,,,,,,,
,,,,,,,,,,,right.png,,p,right,616f163158768db6c71b4a65,2021-10-21_14h28.59.907,arrow_simon_punish,2021.1.2,Win32,60.24459305,,,,,,,,,,,,,,p,1,1.5642,1.71567461,0,5,8,1,33,1,1,,,,,,,,,,,,,,
,,,,,,,,,,,right.png,,p,right,616f163158768db6c71b4a65,2021-10-21_14h28.59.907,arrow_simon_punish,2021.1.2,Win32,60.24459305,,,,,,,,,,,,,,p,1,1.6846,1.623309827,1,5,8,2,34,1,1,,,,,,,,,,,,,,
,,,,,,,,,,,left.png,,w,right,616f163158768db6c71b4a65,2021-10-21_14h28.59.907,arrow_simon_punish,2021.1.2,Win32,60.24459305,,,,,,,,,,,,,,w,1,1.4375,1.899958411,0,5,8,3,35,3,1,,,,,,,,,,,,,,
,,,,,,,,,,,right.png,,p,left,616f163158768db6c71b4a65,2021-10-21_14h28.59.907,arrow_simon_punish,2021.1.2,Win32,60.24459305,,,,,,,,,,,,,,p,1,1.4354,2.200479901,0,5,9,0,36,0,1,,,,,,,,,,,,,,
,,,,,,,,,,,left.png,,w,right,616f163158768db6c71b4a65,2021-10-21_14h28.59.907,arrow_simon_punish,2021.1.2,Win32,60.24459305,,,,,,,,,,,,,,w,1,1.4482,2.374078179,0,5,9,1,37,3,1,,,,,,,,,,,,,,
,,,,,,,,,,,left.png,,w,right,616f163158768db6c71b4a65,2021-10-21_14h28.59.907,arrow_simon_punish,2021.1.2,Win32,60.24459305,,,,,,,,,,,,,,w,1,1.5168,1.869969945,0,5,9,2,38,3,1,,,,,,,,,,,,,,
,,,,,,,,,,,left.png,,w,left,616f163158768db6c71b4a65,2021-10-21_14h28.59.907,arrow_simon_punish,2021.1.2,Win32,60.24459305,,,,,,,,,,,,,,w,1,1.2384,2.242054455,1,5,9,3,39,2,1,,,,,,,,,,,,,,
,,,,,,,,,,,left.png,,w,left,616f163158768db6c71b4a65,2021-10-21_14h28.59.907,arrow_simon_punish,2021.1.2,Win32,60.24459305,,,,,,,,,,,,,,w,1,1.5135,1.678499011,0,5,10,0,40,2,1,,,,,,,,,,,,,,
,,,,,,,,,,,right.png,,p,right,616f163158768db6c71b4a65,2021-10-21_14h28.59.907,arrow_simon_punish,2021.1.2,Win32,60.24459305,,,,,,,,,,,,,,p,1,1.5112,1.619841131,0,5,10,1,41,1,1,,,,,,,,,,,,,,
,,,,,,,,,,,right.png,,p,right,616f163158768db6c71b4a65,2021-10-21_14h28.59.907,arrow_simon_punish,2021.1.2,Win32,60.24459305,,,,,,,,,,,,,,p,1,1.6537,2.314647425,1,5,10,2,42,1,1,,,,,,,,,,,,,,
,,,,,,,,,,,right.png,,p,right,616f163158768db6c71b4a65,2021-10-21_14h28.59.907,arrow_simon_punish,2021.1.2,Win32,60.24459305,,,,,,,,,,,,,,p,1,1.6468,1.980153422,1,5,10,3,43,1,1,,,,,,,,,,,,,,
,,,,,,,,,,,right.png,,p,right,616f163158768db6c71b4a65,2021-10-21_14h28.59.907,arrow_simon_punish,2021.1.2,Win32,60.24459305,,,,,,,,,,,,,,p,1,1.4563,2.444130893,0,5,11,0,44,1,1,,,,,,,,,,,,,,
,,,,,,,,,,,left.png,,w,left,616f163158768db6c71b4a65,2021-10-21_14h28.59.907,arrow_simon_punish,2021.1.2,Win32,60.24459305,,,,,,,,,,,,,,w,1,1.2764,1.809010093,1,5,11,1,45,2,1,,,,,,,,,,,,,,
,,,,,,,,,,,left.png,,w,right,616f163158768db6c71b4a65,2021-10-21_14h28.59.907,arrow_simon_punish,2021.1.2,Win32,60.24459305,,,,,,,,,,,,,,w,1,1.3598,2.01659717,1,5,11,2,46,3,1,,,,,,,,,,,,,,
,,,,,,,,,,,left.png,,w,right,616f163158768db6c71b4a65,2021-10-21_14h28.59.907,arrow_simon_punish,2021.1.2,Win32,60.24459305,,,,,,,,,,,,,,w,1,1.5835,1.520457166,0,5,11,3,47,3,1,,,,,,,,,,,,,,
,,,,,,,,,,,left.png,,w,left,616f163158768db6c71b4a65,2021-10-21_14h28.59.907,arrow_simon_punish,2021.1.2,Win32,60.24459305,,,,,,,,,,,,,,w,1,1.3795,1.50307793,1,5,12,0,48,2,1,,,,,,,,,,,,,,
,,,,,,,,,,,left.png,,w,left,616f163158768db6c71b4a65,2021-10-21_14h28.59.907,arrow_simon_punish,2021.1.2,Win32,60.24459305,,,,,,,,,,,,,,w,1,1.5884,1.812186193,0,5,12,1,49,2,1,,,,,,,,,,,,,,
,,,,,,,,,,,right.png,,p,left,616f163158768db6c71b4a65,2021-10-21_14h28.59.907,arrow_simon_punish,2021.1.2,Win32,60.24459305,,,,,,,,,,,,,,p,1,1.5332,2.450520339,0,5,12,2,50,0,1,,,,,,,,,,,,,,
,,,,,,,,,,,left.png,,w,left,616f163158768db6c71b4a65,2021-10-21_14h28.59.907,arrow_simon_punish,2021.1.2,Win32,60.24459305,,,,,,,,,,,,,,w,1,1.3997,2.026618427,1,5,12,3,51,2,1,,,,,,,,,,,,,,
,,,,,,,,,,,right.png,,p,left,616f163158768db6c71b4a65,2021-10-21_14h28.59.907,arrow_simon_punish,2021.1.2,Win32,60.24459305,,,,,,,,,,,,,,p,1,1.5836,1.812146145,0,5,13,0,52,0,1,,,,,,,,,,,,,,
,,,,,,,,,,,right.png,,p,right,616f163158768db6c71b4a65,2021-10-21_14h28.59.907,arrow_simon_punish,2021.1.2,Win32,60.24459305,,,,,,,,,,,,,,p,1,1.4506,2.364908781,0,5,13,1,53,1,1,,,,,,,,,,,,,,
,,,,,,,,,,,left.png,,w,right,616f163158768db6c71b4a65,2021-10-21_14h28.59.907,arrow_simon_punish,2021.1.2,Win32,60.24459305,,,,,,,,,,,,,,w,1,1.45,2.186405021,0,5,13,2,54,3,1,,,,,,,,,,,,,,
,,,,,,,,,,,left.png,,w,left,616f163158768db6c71b4a65,2021-10-21_14h28.59.907,arrow_simon_punish,2021.1.2,Win32,60.24459305,,,,,,,,,,,,,,w,1,1.4666,2.256648395,0,5,13,3,55,2,1,,,,,,,,,,,,,,
,,,,,,,,,,,right.png,,p,right,616f163158768db6c71b4a65,2021-10-21_14h28.59.907,arrow_simon_punish,2021.1.2,Win32,60.24459305,,,,,,,,,,,,,,p,1,1.452,1.679185642,0,5,14,0,56,1,1,,,,,,,,,,,,,,
,,,,,,,,,,,right.png,,p,left,616f163158768db6c71b4a65,2021-10-21_14h28.59.907,arrow_simon_punish,2021.1.2,Win32,60.24459305,,,,,,,,,,,,,,p,1,1.4073,1.553896332,0,5,14,1,57,0,1,,,,,,,,,,,,,,
,,,,,,,,,,,left.png,,w,left,616f163158768db6c71b4a65,2021-10-21_14h28.59.907,arrow_simon_punish,2021.1.2,Win32,60.24459305,,,,,,,,,,,,,,w,1,1.4298,1.915307303,0,5,14,2,58,2,1,,,,,,,,,,,,,,
,,,,,,,,,,,left.png,,w,right,616f163158768db6c71b4a65,2021-10-21_14h28.59.907,arrow_simon_punish,2021.1.2,Win32,60.24459305,,,,,,,,,,,,,,w,1,1.596,1.993411661,0,5,14,3,59,3,1,,,,,,,,,,,,,,
,,,,,,,,,,,,,,,616f163158768db6c71b4a65,2021-10-21_14h28.59.907,arrow_simon_punish,2021.1.2,Win32,60.24459305,,,,,,,,,,,,,,,,,,,,,,,,,space,10.9826,7,2,1,5,1,1,5,,,,,
,,,,,,,,,,,right.png,,p,left,616f163158768db6c71b4a65,2021-10-21_14h28.59.907,arrow_simon_punish,2021.1.2,Win32,60.24459305,,,,,,,,,,,,,,p,1,1.5519,2.218719372,0,1,0,0,0,0,1,,,,,,,,,,,,,,
,,,,,,,,,,,right.png,,p,right,616f163158768db6c71b4a65,2021-10-21_14h28.59.907,arrow_simon_punish,2021.1.2,Win32,60.24459305,,,,,,,,,,,,,,p,1,1.5745,1.671715612,0,1,0,1,1,1,1,,,,,,,,,,,,,,
,,,,,,,,,,,left.png,,w,left,616f163158768db6c71b4a65,2021-10-21_14h28.59.907,arrow_simon_punish,2021.1.2,Win32,60.24459305,,,,,,,,,,,,,,w,1,1.535,1.771923517,0,1,0,2,2,2,1,,,,,,,,,,,,,,
,,,,,,,,,,,left.png,,w,right,616f163158768db6c71b4a65,2021-10-21_14h28.59.907,arrow_simon_punish,2021.1.2,Win32,60.24459305,,,,,,,,,,,,,,w,1,1.6222,1.825452654,1,1,0,3,3,3,1,,,,,,,,,,,,,,
,,,,,,,,,,,right.png,,p,left,616f163158768db6c71b4a65,2021-10-21_14h28.59.907,arrow_simon_punish,2021.1.2,Win32,60.24459305,,,,,,,,,,,,,,p,1,1.4837,1.66918389,0,1,1,0,4,0,1,,,,,,,,,,,,,,
,,,,,,,,,,,right.png,,p,left,616f163158768db6c71b4a65,2021-10-21_14h28.59.907,arrow_simon_punish,2021.1.2,Win32,60.24459305,,,,,,,,,,,,,,p,1,1.5772,2.031968464,0,1,1,1,5,0,1,,,,,,,,,,,,,,
,,,,,,,,,,,left.png,,w,right,616f163158768db6c71b4a65,2021-10-21_14h28.59.907,arrow_simon_punish,2021.1.2,Win32,60.24459305,,,,,,,,,,,,,,w,1,1.5206,2.386104446,0,1,1,2,6,3,1,,,,,,,,,,,,,,
,,,,,,,,,,,right.png,,p,left,616f163158768db6c71b4a65,2021-10-21_14h28.59.907,arrow_simon_punish,2021.1.2,Win32,60.24459305,,,,,,,,,,,,,,p,1,1.587,2.4434422,0,1,1,3,7,0,1,,,,,,,,,,,,,,
,,,,,,,,,,,right.png,,p,right,616f163158768db6c71b4a65,2021-10-21_14h28.59.907,arrow_simon_punish,2021.1.2,Win32,60.24459305,,,,,,,,,,,,,,p,1,1.5981,1.744669808,0,1,2,0,8,1,1,,,,,,,,,,,,,,
,,,,,,,,,,,right.png,,p,right,616f163158768db6c71b4a65,2021-10-21_14h28.59.907,arrow_simon_punish,2021.1.2,Win32,60.24459305,,,,,,,,,,,,,,p,1,1.7133,2.218758779,1,1,2,1,9,1,1,,,,,,,,,,,,,,
,,,,,,,,,,,left.png,,w,left,616f163158768db6c71b4a65,2021-10-21_14h28.59.907,arrow_simon_punish,2021.1.2,Win32,60.24459305,,,,,,,,,,,,,,w,1,1.7625,1.687444067,1,1,2,2,10,2,1,,,,,,,,,,,,,,
,,,,,,,,,,,left.png,,w,right,616f163158768db6c71b4a65,2021-10-21_14h28.59.907,arrow_simon_punish,2021.1.2,Win32,60.24459305,,,,,,,,,,,,,,w,1,1.5288,2.126339711,0,1,2,3,11,3,1,,,,,,,,,,,,,,
,,,,,,,,,,,left.png,,w,left,616f163158768db6c71b4a65,2021-10-21_14h28.59.907,arrow_simon_punish,2021.1.2,Win32,60.24459305,,,,,,,,,,,,,,w,1,1.4508,1.92850849,0,1,3,0,12,2,1,,,,,,,,,,,,,,
,,,,,,,,,,,right.png,,p,left,616f163158768db6c71b4a65,2021-10-21_14h28.59.907,arrow_simon_punish,2021.1.2,Win32,60.24459305,,,,,,,,,,,,,,p,1,1.386,1.523182415,1,1,3,1,13,0,1,,,,,,,,,,,,,,
,,,,,,,,,,,left.png,,w,left,616f163158768db6c71b4a65,2021-10-21_14h28.59.907,arrow_simon_punish,2021.1.2,Win32,60.24459305,,,,,,,,,,,,,,w,1,1.5183,1.637596276,0,1,3,2,14,2,1,,,,,,,,,,,,,,
,,,,,,,,,,,right.png,,p,left,616f163158768db6c71b4a65,2021-10-21_14h28.59.907,arrow_simon_punish,2021.1.2,Win32,60.24459305,,,,,,,,,,,,,,p,1,1.6162,1.939929032,1,1,3,3,15,0,1,,,,,,,,,,,,,,
,,,,,,,,,,,left.png,,w,right,616f163158768db6c71b4a65,2021-10-21_14h28.59.907,arrow_simon_punish,2021.1.2,Win32,60.24459305,,,,,,,,,,,,,,w,1,1.5623,1.970382739,0,1,4,0,16,3,1,,,,,,,,,,,,,,
,,,,,,,,,,,left.png,,w,right,616f163158768db6c71b4a65,2021-10-21_14h28.59.907,arrow_simon_punish,2021.1.2,Win32,60.24459305,,,,,,,,,,,,,,w,1,1.6184,2.248624594,1,1,4,1,17,3,1,,,,,,,,,,,,,,
,,,,,,,,,,,left.png,,w,left,616f163158768db6c71b4a65,2021-10-21_14h28.59.907,arrow_simon_punish,2021.1.2,Win32,60.24459305,,,,,,,,,,,,,,w,1,1.6019,1.9782318,1,1,4,2,18,2,1,,,,,,,,,,,,,,
,,,,,,,,,,,right.png,,p,right,616f163158768db6c71b4a65,2021-10-21_14h28.59.907,arrow_simon_punish,2021.1.2,Win32,60.24459305,,,,,,,,,,,,,,p,1,1.4334,1.674020072,0,1,4,3,19,1,1,,,,,,,,,,,,,,
,,,,,,,,,,,right.png,,p,right,616f163158768db6c71b4a65,2021-10-21_14h28.59.907,arrow_simon_punish,2021.1.2,Win32,60.24459305,,,,,,,,,,,,,,p,1,1.5,1.535167833,0,1,5,0,20,1,1,,,,,,,,,,,,,,
,,,,,,,,,,,left.png,,w,right,616f163158768db6c71b4a65,2021-10-21_14h28.59.907,arrow_simon_punish,2021.1.2,Win32,60.24459305,,,,,,,,,,,,,,w,1,1.2664,2.379030622,1,1,5,1,21,3,1,,,,,,,,,,,,,,
,,,,,,,,,,,left.png,,w,left,616f163158768db6c71b4a65,2021-10-21_14h28.59.907,arrow_simon_punish,2021.1.2,Win32,60.24459305,,,,,,,,,,,,,,w,1,1.4373,2.191528521,0,1,5,2,22,2,1,,,,,,,,,,,,,,
,,,,,,,,,,,left.png,,w,right,616f163158768db6c71b4a65,2021-10-21_14h28.59.907,arrow_simon_punish,2021.1.2,Win32,60.24459305,,,,,,,,,,,,,,w,1,1.5663,2.015594886,0,1,5,3,23,3,1,,,,,,,,,,,,,,
,,,,,,,,,,,right.png,,p,right,616f163158768db6c71b4a65,2021-10-21_14h28.59.907,arrow_simon_punish,2021.1.2,Win32,60.24459305,,,,,,,,,,,,,,p,1,1.3893,2.056950514,1,1,6,0,24,1,1,,,,,,,,,,,,,,
,,,,,,,,,,,right.png,,p,left,616f163158768db6c71b4a65,2021-10-21_14h28.59.907,arrow_simon_punish,2021.1.2,Win32,60.24459305,,,,,,,,,,,,,,p,1,1.3597,2.150911942,1,1,6,1,25,0,1,,,,,,,,,,,,,,
,,,,,,,,,,,left.png,,w,right,616f163158768db6c71b4a65,2021-10-21_14h28.59.907,arrow_simon_punish,2021.1.2,Win32,60.24459305,,,,,,,,,,,,,,w,1,1.4859,2.031805544,0,1,6,2,26,3,1,,,,,,,,,,,,,,
,,,,,,,,,,,left.png,,w,right,616f163158768db6c71b4a65,2021-10-21_14h28.59.907,arrow_simon_punish,2021.1.2,Win32,60.24459305,,,,,,,,,,,,,,w,1,1.4533,2.008607276,0,1,6,3,27,3,1,,,,,,,,,,,,,,
,,,,,,,,,,,right.png,,p,right,616f163158768db6c71b4a65,2021-10-21_14h28.59.907,arrow_simon_punish,2021.1.2,Win32,60.24459305,,,,,,,,,,,,,,p,1,1.6303,2.488352545,1,1,7,0,28,1,1,,,,,,,,,,,,,,
,,,,,,,,,,,left.png,,w,left,616f163158768db6c71b4a65,2021-10-21_14h28.59.907,arrow_simon_punish,2021.1.2,Win32,60.24459305,,,,,,,,,,,,,,w,1,1.6285,2.230727745,1,1,7,1,29,2,1,,,,,,,,,,,,,,
,,,,,,,,,,,right.png,,p,right,616f163158768db6c71b4a65,2021-10-21_14h28.59.907,arrow_simon_punish,2021.1.2,Win32,60.24459305,,,,,,,,,,,,,,p,1,1.5053,2.497441552,0,1,7,2,30,1,1,,,,,,,,,,,,,,
,,,,,,,,,,,right.png,,p,right,616f163158768db6c71b4a65,2021-10-21_14h28.59.907,arrow_simon_punish,2021.1.2,Win32,60.24459305,,,,,,,,,,,,,,p,1,1.414,2.326692769,0,1,7,3,31,1,1,,,,,,,,,,,,,,
,,,,,,,,,,,left.png,,w,left,616f163158768db6c71b4a65,2021-10-21_14h28.59.907,arrow_simon_punish,2021.1.2,Win32,60.24459305,,,,,,,,,,,,,,w,1,1.3857,1.632390851,1,1,8,0,32,2,1,,,,,,,,,,,,,,
,,,,,,,,,,,right.png,,p,left,616f163158768db6c71b4a65,2021-10-21_14h28.59.907,arrow_simon_punish,2021.1.2,Win32,60.24459305,,,,,,,,,,,,,,p,1,1.3549,1.567466267,1,1,8,1,33,0,1,,,,,,,,,,,,,,
,,,,,,,,,,,right.png,,p,right,616f163158768db6c71b4a65,2021-10-21_14h28.59.907,arrow_simon_punish,2021.1.2,Win32,60.24459305,,,,,,,,,,,,,,p,1,1.4674,2.422800635,0,1,8,2,34,1,1,,,,,,,,,,,,,,
,,,,,,,,,,,right.png,,p,right,616f163158768db6c71b4a65,2021-10-21_14h28.59.907,arrow_simon_punish,2021.1.2,Win32,60.24459305,,,,,,,,,,,,,,p,1,1.4527,1.8563492,0,1,8,3,35,1,1,,,,,,,,,,,,,,
,,,,,,,,,,,right.png,,p,left,616f163158768db6c71b4a65,2021-10-21_14h28.59.907,arrow_simon_punish,2021.1.2,Win32,60.24459305,,,,,,,,,,,,,,p,1,1.5514,2.348626169,0,1,9,0,36,0,1,,,,,,,,,,,,,,
,,,,,,,,,,,left.png,,w,left,616f163158768db6c71b4a65,2021-10-21_14h28.59.907,arrow_simon_punish,2021.1.2,Win32,60.24459305,,,,,,,,,,,,,,w,1,1.727,2.266086695,1,1,9,1,37,2,1,,,,,,,,,,,,,,
,,,,,,,,,,,left.png,,w,left,616f163158768db6c71b4a65,2021-10-21_14h28.59.907,arrow_simon_punish,2021.1.2,Win32,60.24459305,,,,,,,,,,,,,,w,1,1.4094,2.320367989,0,1,9,2,38,2,1,,,,,,,,,,,,,,
,,,,,,,,,,,left.png,,w,left,616f163158768db6c71b4a65,2021-10-21_14h28.59.907,arrow_simon_punish,2021.1.2,Win32,60.24459305,,,,,,,,,,,,,,w,1,1.4502,1.502953124,0,1,9,3,39,2,1,,,,,,,,,,,,,,
,,,,,,,,,,,right.png,,p,left,616f163158768db6c71b4a65,2021-10-21_14h28.59.907,arrow_simon_punish,2021.1.2,Win32,60.24459305,,,,,,,,,,,,,,p,1,1.439,1.753387801,0,1,10,0,40,0,1,,,,,,,,,,,,,,
,,,,,,,,,,,right.png,,p,right,616f163158768db6c71b4a65,2021-10-21_14h28.59.907,arrow_simon_punish,2021.1.2,Win32,60.24459305,,,,,,,,,,,,,,p,1,1.5346,2.088926174,0,1,10,1,41,1,1,,,,,,,,,,,,,,
,,,,,,,,,,,left.png,,w,right,616f163158768db6c71b4a65,2021-10-21_14h28.59.907,arrow_simon_punish,2021.1.2,Win32,60.24459305,,,,,,,,,,,,,,w,1,1.3859,1.920138139,1,1,10,2,42,3,1,,,,,,,,,,,,,,
,,,,,,,,,,,left.png,,w,right,616f163158768db6c71b4a65,2021-10-21_14h28.59.907,arrow_simon_punish,2021.1.2,Win32,60.24459305,,,,,,,,,,,,,,w,1,1.4766,1.778460082,0,1,10,3,43,3,1,,,,,,,,,,,,,,
,,,,,,,,,,,left.png,,w,right,616f163158768db6c71b4a65,2021-10-21_14h28.59.907,arrow_simon_punish,2021.1.2,Win32,60.24459305,,,,,,,,,,,,,,w,1,1.4844,1.769200541,0,1,11,0,44,3,1,,,,,,,,,,,,,,
,,,,,,,,,,,right.png,,p,left,616f163158768db6c71b4a65,2021-10-21_14h28.59.907,arrow_simon_punish,2021.1.2,Win32,60.24459305,,,,,,,,,,,,,,p,1,1.4249,2.412710699,0,1,11,1,45,0,1,,,,,,,,,,,,,,
,,,,,,,,,,,left.png,,w,left,616f163158768db6c71b4a65,2021-10-21_14h28.59.907,arrow_simon_punish,2021.1.2,Win32,60.24459305,,,,,,,,,,,,,,w,1,1.5372,1.887103999,0,1,11,2,46,2,1,,,,,,,,,,,,,,
,,,,,,,,,,,right.png,,p,right,616f163158768db6c71b4a65,2021-10-21_14h28.59.907,arrow_simon_punish,2021.1.2,Win32,60.24459305,,,,,,,,,,,,,,p,1,1.1853,2.168997625,1,1,11,3,47,1,1,,,,,,,,,,,,,,
,,,,,,,,,,,left.png,,w,right,616f163158768db6c71b4a65,2021-10-21_14h28.59.907,arrow_simon_punish,2021.1.2,Win32,60.24459305,,,,,,,,,,,,,,w,1,1.4743,2.280050765,0,1,12,0,48,3,1,,,,,,,,,,,,,,
,,,,,,,,,,,right.png,,p,left,616f163158768db6c71b4a65,2021-10-21_14h28.59.907,arrow_simon_punish,2021.1.2,Win32,60.24459305,,,,,,,,,,,,,,p,1,1.5187,2.113181918,0,1,12,1,49,0,1,,,,,,,,,,,,,,
,,,,,,,,,,,left.png,,w,right,616f163158768db6c71b4a65,2021-10-21_14h28.59.907,arrow_simon_punish,2021.1.2,Win32,60.24459305,,,,,,,,,,,,,,w,1,1.2866,2.462054767,1,1,12,2,50,3,1,,,,,,,,,,,,,,
,,,,,,,,,,,right.png,,p,left,616f163158768db6c71b4a65,2021-10-21_14h28.59.907,arrow_simon_punish,2021.1.2,Win32,60.24459305,,,,,,,,,,,,,,p,1,1.426,1.766147436,0,1,12,3,51,0,1,,,,,,,,,,,,,,
,,,,,,,,,,,right.png,,p,left,616f163158768db6c71b4a65,2021-10-21_14h28.59.907,arrow_simon_punish,2021.1.2,Win32,60.24459305,,,,,,,,,,,,,,p,1,1.6022,1.807893602,1,1,13,0,52,0,1,,,,,,,,,,,,,,
,,,,,,,,,,,left.png,,w,left,616f163158768db6c71b4a65,2021-10-21_14h28.59.907,arrow_simon_punish,2021.1.2,Win32,60.24459305,,,,,,,,,,,,,,w,1,1.3348,1.767539976,1,1,13,1,53,2,1,,,,,,,,,,,,,,
,,,,,,,,,,,right.png,,p,right,616f163158768db6c71b4a65,2021-10-21_14h28.59.907,arrow_simon_punish,2021.1.2,Win32,60.24459305,,,,,,,,,,,,,,p,1,1.4467,1.674488762,0,1,13,2,54,1,1,,,,,,,,,,,,,,
,,,,,,,,,,,left.png,,w,left,616f163158768db6c71b4a65,2021-10-21_14h28.59.907,arrow_simon_punish,2021.1.2,Win32,60.24459305,,,,,,,,,,,,,,w,1,1.5856,2.347988371,0,1,13,3,55,2,1,,,,,,,,,,,,,,
,,,,,,,,,,,right.png,,p,right,616f163158768db6c71b4a65,2021-10-21_14h28.59.907,arrow_simon_punish,2021.1.2,Win32,60.24459305,,,,,,,,,,,,,,p,1,1.4452,1.909255929,0,1,14,0,56,1,1,,,,,,,,,,,,,,
,,,,,,,,,,,left.png,,w,left,616f163158768db6c71b4a65,2021-10-21_14h28.59.907,arrow_simon_punish,2021.1.2,Win32,60.24459305,,,,,,,,,,,,,,w,1,1.469,1.861954795,0,1,14,1,57,2,1,,,,,,,,,,,,,,
,,,,,,,,,,,left.png,,w,right,616f163158768db6c71b4a65,2021-10-21_14h28.59.907,arrow_simon_punish,2021.1.2,Win32,60.24459305,,,,,,,,,,,,,,w,1,1.5439,1.570643834,0,1,14,2,58,3,1,,,,,,,,,,,,,,
,,,,,,,,,,,right.png,,p,left,616f163158768db6c71b4a65,2021-10-21_14h28.59.907,arrow_simon_punish,2021.1.2,Win32,60.24459305,,,,,,,,,,,,,,p,1,1.6048,2.467472326,1,1,14,3,59,0,1,,,,,,,,,,,,,,
,,,,,,,,,,,,,,,616f163158768db6c71b4a65,2021-10-21_14h28.59.907,arrow_simon_punish,2021.1.2,Win32,60.24459305,,,,,,,,,,,,,,,,,,,,,,,,,space,42.5259,8,3,0,6,0,1,1,,,,,
,,,,,,,,,,,right.png,,p,left,616f163158768db6c71b4a65,2021-10-21_14h28.59.907,arrow_simon_punish,2021.1.2,Win32,60.24459305,,,,,,,,,,,,,,p,1,1.4031,2.211866115,0,5,0,0,0,0,1,,,,,,,,,,,,,,
,,,,,,,,,,,right.png,,p,left,616f163158768db6c71b4a65,2021-10-21_14h28.59.907,arrow_simon_punish,2021.1.2,Win32,60.24459305,,,,,,,,,,,,,,p,1,1.4711,1.665770629,0,5,0,1,1,0,1,,,,,,,,,,,,,,
,,,,,,,,,,,right.png,,p,right,616f163158768db6c71b4a65,2021-10-21_14h28.59.907,arrow_simon_punish,2021.1.2,Win32,60.24459305,,,,,,,,,,,,,,p,1,1.5521,2.436179635,0,5,0,2,2,1,1,,,,,,,,,,,,,,
,,,,,,,,,,,left.png,,w,right,616f163158768db6c71b4a65,2021-10-21_14h28.59.907,arrow_simon_punish,2021.1.2,Win32,60.24459305,,,,,,,,,,,,,,w,1,1.411,1.71239706,0,5,0,3,3,3,1,,,,,,,,,,,,,,
,,,,,,,,,,,right.png,,p,right,616f163158768db6c71b4a65,2021-10-21_14h28.59.907,arrow_simon_punish,2021.1.2,Win32,60.24459305,,,,,,,,,,,,,,p,1,1.4873,2.439987729,0,5,1,0,4,1,1,,,,,,,,,,,,,,
,,,,,,,,,,,left.png,,w,left,616f163158768db6c71b4a65,2021-10-21_14h28.59.907,arrow_simon_punish,2021.1.2,Win32,60.24459305,,,,,,,,,,,,,,w,1,1.3392,1.753002432,1,5,1,1,5,2,1,,,,,,,,,,,,,,
,,,,,,,,,,,right.png,,p,left,616f163158768db6c71b4a65,2021-10-21_14h28.59.907,arrow_simon_punish,2021.1.2,Win32,60.24459305,,,,,,,,,,,,,,p,1,1.4696,1.982105163,0,5,1,2,6,0,1,,,,,,,,,,,,,,
,,,,,,,,,,,left.png,,w,right,616f163158768db6c71b4a65,2021-10-21_14h28.59.907,arrow_simon_punish,2021.1.2,Win32,60.24459305,,,,,,,,,,,,,,w,1,1.5714,2.188477934,0,5,1,3,7,3,1,,,,,,,,,,,,,,
,,,,,,,,,,,left.png,,w,right,616f163158768db6c71b4a65,2021-10-21_14h28.59.907,arrow_simon_punish,2021.1.2,Win32,60.24459305,,,,,,,,,,,,,,w,1,1.4376,1.972746108,0,5,2,0,8,3,1,,,,,,,,,,,,,,
