instruct_resp_simon.keys,instruct_resp_simon.corr,instruct_resp_simon.rt,trial_resp_simon.keys,trial_resp_simon.corr,trial_resp_simon.rt,trials_train_simon.thisRepN,trials_train_simon.thisTrialN,trials_train_simon.thisN,trials_train_simon.thisIndex,trials_train_simon.ran,target_file,target_pos,target_resp,target_side,participant,date,expName,psychopyVersion,OS,frameRate,instruct_resp_timing.keys,instruct_resp_timing.corr,instruct_resp_timing.rt,trial_resp_timing.keys,trial_resp_timing.rt,trials_train_timing.thisRepN,trials_train_timing.thisTrialN,trials_train_timing.thisN,trials_train_timing.thisIndex,trials_train_timing.ran,instruct_resp.keys,instruct_resp.corr,instruct_resp.rt,trial_resp.keys,trial_resp.corr,trial_resp.rt,target_onset,err,pun,trials.thisRepN,trials.thisTrialN,trials.thisN,trials.thisIndex,trials.ran,block_note_resp.keys,block_note_resp.rt,block_num,blocks.thisRepN,blocks.thisTrialN,blocks.thisN,blocks.thisIndex,blocks.ran,punish,complete_resp.keys,complete_resp.rt,raffle_trial,raffle_err,raffle_rew
space,0,36.8769,w,0,1.5234,0,0,0,0,1,right.png,,p,left,6171d8d0854fad3442e253a3,2021-10-21_22h49.57.016,arrow_simon_punish,2021.1.2,Win32,59.91252771,,,,,,,,,,,,,,,,,,,,,,,,,,,,,,,,,,,,,,
,,,p,0,0.9288,0,1,1,3,1,left.png,,w,right,6171d8d0854fad3442e253a3,2021-10-21_22h49.57.016,arrow_simon_punish,2021.1.2,Win32,59.91252771,,,,,,,,,,,,,,,,,,,,,,,,,,,,,,,,,,,,,,
,,,p,0,2.1683,0,2,2,2,1,left.png,,w,left,6171d8d0854fad3442e253a3,2021-10-21_22h49.57.016,arrow_simon_punish,2021.1.2,Win32,59.91252771,,,,,,,,,,,,,,,,,,,,,,,,,,,,,,,,,,,,,,
,,,p,1,1.6685,0,3,3,1,1,right.png,,p,right,6171d8d0854fad3442e253a3,2021-10-21_22h49.57.016,arrow_simon_punish,2021.1.2,Win32,59.91252771,,,,,,,,,,,,,,,,,,,,,,,,,,,,,,,,,,,,,,
,,,p,1,1.2353,1,0,4,0,1,right.png,,p,left,6171d8d0854fad3442e253a3,2021-10-21_22h49.57.016,arrow_simon_punish,2021.1.2,Win32,59.91252771,,,,,,,,,,,,,,,,,,,,,,,,,,,,,,,,,,,,,,
,,,w,1,1.7185,1,1,5,2,1,left.png,,w,left,6171d8d0854fad3442e253a3,2021-10-21_22h49.57.016,arrow_simon_punish,2021.1.2,Win32,59.91252771,,,,,,,,,,,,,,,,,,,,,,,,,,,,,,,,,,,,,,
,,,p,1,1.1184,1,2,6,1,1,right.png,,p,right,6171d8d0854fad3442e253a3,2021-10-21_22h49.57.016,arrow_simon_punish,2021.1.2,Win32,59.91252771,,,,,,,,,,,,,,,,,,,,,,,,,,,,,,,,,,,,,,
,,,w,1,1.2686,1,3,7,3,1,left.png,,w,right,6171d8d0854fad3442e253a3,2021-10-21_22h49.57.016,arrow_simon_punish,2021.1.2,Win32,59.91252771,,,,,,,,,,,,,,,,,,,,,,,,,,,,,,,,,,,,,,
,,,w,1,1.1851,2,0,8,2,1,left.png,,w,left,6171d8d0854fad3442e253a3,2021-10-21_22h49.57.016,arrow_simon_punish,2021.1.2,Win32,59.91252771,,,,,,,,,,,,,,,,,,,,,,,,,,,,,,,,,,,,,,
,,,p,1,1.0445,2,1,9,0,1,right.png,,p,left,6171d8d0854fad3442e253a3,2021-10-21_22h49.57.016,arrow_simon_punish,2021.1.2,Win32,59.91252771,,,,,,,,,,,,,,,,,,,,,,,,,,,,,,,,,,,,,,
,,,p,1,0.5519,2,2,10,1,1,right.png,,p,right,6171d8d0854fad3442e253a3,2021-10-21_22h49.57.016,arrow_simon_punish,2021.1.2,Win32,59.91252771,,,,,,,,,,,,,,,,,,,,,,,,,,,,,,,,,,,,,,
,,,w,1,1.0343,2,3,11,3,1,left.png,,w,right,6171d8d0854fad3442e253a3,2021-10-21_22h49.57.016,arrow_simon_punish,2021.1.2,Win32,59.91252771,,,,,,,,,,,,,,,,,,,,,,,,,,,,,,,,,,,,,,
,,,p,0,1.2846,3,0,12,3,1,left.png,,w,right,6171d8d0854fad3442e253a3,2021-10-21_22h49.57.016,arrow_simon_punish,2021.1.2,Win32,59.91252771,,,,,,,,,,,,,,,,,,,,,,,,,,,,,,,,,,,,,,
,,,w,0,0.9005,3,1,13,0,1,right.png,,p,left,6171d8d0854fad3442e253a3,2021-10-21_22h49.57.016,arrow_simon_punish,2021.1.2,Win32,59.91252771,,,,,,,,,,,,,,,,,,,,,,,,,,,,,,,,,,,,,,
,,,p,1,1.2513,3,2,14,1,1,right.png,,p,right,6171d8d0854fad3442e253a3,2021-10-21_22h49.57.016,arrow_simon_punish,2021.1.2,Win32,59.91252771,,,,,,,,,,,,,,,,,,,,,,,,,,,,,,,,,,,,,,
,,,w,1,1.346,3,3,15,2,1,left.png,,w,left,6171d8d0854fad3442e253a3,2021-10-21_22h49.57.016,arrow_simon_punish,2021.1.2,Win32,59.91252771,,,,,,,,,,,,,,,,,,,,,,,,,,,,,,,,,,,,,,
,,,w,1,1.935,4,0,16,2,1,left.png,,w,left,6171d8d0854fad3442e253a3,2021-10-21_22h49.57.016,arrow_simon_punish,2021.1.2,Win32,59.91252771,,,,,,,,,,,,,,,,,,,,,,,,,,,,,,,,,,,,,,
,,,p,1,1.1508,4,1,17,0,1,right.png,,p,left,6171d8d0854fad3442e253a3,2021-10-21_22h49.57.016,arrow_simon_punish,2021.1.2,Win32,59.91252771,,,,,,,,,,,,,,,,,,,,,,,,,,,,,,,,,,,,,,
,,,p,1,0.7186,4,2,18,1,1,right.png,,p,right,6171d8d0854fad3442e253a3,2021-10-21_22h49.57.016,arrow_simon_punish,2021.1.2,Win32,59.91252771,,,,,,,,,,,,,,,,,,,,,,,,,,,,,,,,,,,,,,
,,,w,1,0.7514,4,3,19,3,1,left.png,,w,right,6171d8d0854fad3442e253a3,2021-10-21_22h49.57.016,arrow_simon_punish,2021.1.2,Win32,59.91252771,,,,,,,,,,,,,,,,,,,,,,,,,,,,,,,,,,,,,,
,,,w,1,0.8509,5,0,20,3,1,left.png,,w,right,6171d8d0854fad3442e253a3,2021-10-21_22h49.57.016,arrow_simon_punish,2021.1.2,Win32,59.91252771,,,,,,,,,,,,,,,,,,,,,,,,,,,,,,,,,,,,,,
,,,w,1,0.7181,5,1,21,2,1,left.png,,w,left,6171d8d0854fad3442e253a3,2021-10-21_22h49.57.016,arrow_simon_punish,2021.1.2,Win32,59.91252771,,,,,,,,,,,,,,,,,,,,,,,,,,,,,,,,,,,,,,
,,,p,1,0.8674,5,2,22,1,1,right.png,,p,right,6171d8d0854fad3442e253a3,2021-10-21_22h49.57.016,arrow_simon_punish,2021.1.2,Win32,59.91252771,,,,,,,,,,,,,,,,,,,,,,,,,,,,,,,,,,,,,,
,,,p,1,2.8686,5,3,23,0,1,right.png,,p,left,6171d8d0854fad3442e253a3,2021-10-21_22h49.57.016,arrow_simon_punish,2021.1.2,Win32,59.91252771,,,,,,,,,,,,,,,,,,,,,,,,,,,,,,,,,,,,,,
,,,w,1,0.918,6,0,24,3,1,left.png,,w,right,6171d8d0854fad3442e253a3,2021-10-21_22h49.57.016,arrow_simon_punish,2021.1.2,Win32,59.91252771,,,,,,,,,,,,,,,,,,,,,,,,,,,,,,,,,,,,,,
,,,p,1,1.6681,6,1,25,0,1,right.png,,p,left,6171d8d0854fad3442e253a3,2021-10-21_22h49.57.016,arrow_simon_punish,2021.1.2,Win32,59.91252771,,,,,,,,,,,,,,,,,,,,,,,,,,,,,,,,,,,,,,
,,,p,1,1.7009,6,2,26,1,1,right.png,,p,right,6171d8d0854fad3442e253a3,2021-10-21_22h49.57.016,arrow_simon_punish,2021.1.2,Win32,59.91252771,,,,,,,,,,,,,,,,,,,,,,,,,,,,,,,,,,,,,,
,,,w,1,0.935,6,3,27,2,1,left.png,,w,left,6171d8d0854fad3442e253a3,2021-10-21_22h49.57.016,arrow_simon_punish,2021.1.2,Win32,59.91252771,,,,,,,,,,,,,,,,,,,,,,,,,,,,,,,,,,,,,,
,,,p,1,1.201,7,0,28,1,1,right.png,,p,right,6171d8d0854fad3442e253a3,2021-10-21_22h49.57.016,arrow_simon_punish,2021.1.2,Win32,59.91252771,,,,,,,,,,,,,,,,,,,,,,,,,,,,,,,,,,,,,,
,,,w,1,1.0023,7,1,29,2,1,left.png,,w,left,6171d8d0854fad3442e253a3,2021-10-21_22h49.57.016,arrow_simon_punish,2021.1.2,Win32,59.91252771,,,,,,,,,,,,,,,,,,,,,,,,,,,,,,,,,,,,,,
,,,p,0,1.9014,7,2,30,3,1,left.png,,w,right,6171d8d0854fad3442e253a3,2021-10-21_22h49.57.016,arrow_simon_punish,2021.1.2,Win32,59.91252771,,,,,,,,,,,,,,,,,,,,,,,,,,,,,,,,,,,,,,
,,,p,1,1.9014,7,3,31,0,1,right.png,,p,left,6171d8d0854fad3442e253a3,2021-10-21_22h49.57.016,arrow_simon_punish,2021.1.2,Win32,59.91252771,,,,,,,,,,,,,,,,,,,,,,,,,,,,,,,,,,,,,,
,,,p,1,0.9524,8,0,32,1,1,right.png,,p,right,6171d8d0854fad3442e253a3,2021-10-21_22h49.57.016,arrow_simon_punish,2021.1.2,Win32,59.91252771,,,,,,,,,,,,,,,,,,,,,,,,,,,,,,,,,,,,,,
,,,w,1,1.7021,8,1,33,3,1,left.png,,w,right,6171d8d0854fad3442e253a3,2021-10-21_22h49.57.016,arrow_simon_punish,2021.1.2,Win32,59.91252771,,,,,,,,,,,,,,,,,,,,,,,,,,,,,,,,,,,,,,
,,,p,1,1.1181,8,2,34,0,1,right.png,,p,left,6171d8d0854fad3442e253a3,2021-10-21_22h49.57.016,arrow_simon_punish,2021.1.2,Win32,59.91252771,,,,,,,,,,,,,,,,,,,,,,,,,,,,,,,,,,,,,,
,,,w,1,1.4003,8,3,35,2,1,left.png,,w,left,6171d8d0854fad3442e253a3,2021-10-21_22h49.57.016,arrow_simon_punish,2021.1.2,Win32,59.91252771,,,,,,,,,,,,,,,,,,,,,,,,,,,,,,,,,,,,,,
,,,w,1,1.5017,9,0,36,2,1,left.png,,w,left,6171d8d0854fad3442e253a3,2021-10-21_22h49.57.016,arrow_simon_punish,2021.1.2,Win32,59.91252771,,,,,,,,,,,,,,,,,,,,,,,,,,,,,,,,,,,,,,
,,,p,1,0.8346,9,1,37,1,1,right.png,,p,right,6171d8d0854fad3442e253a3,2021-10-21_22h49.57.016,arrow_simon_punish,2021.1.2,Win32,59.91252771,,,,,,,,,,,,,,,,,,,,,,,,,,,,,,,,,,,,,,
,,,p,1,1.1511,9,2,38,0,1,right.png,,p,left,6171d8d0854fad3442e253a3,2021-10-21_22h49.57.016,arrow_simon_punish,2021.1.2,Win32,59.91252771,,,,,,,,,,,,,,,,,,,,,,,,,,,,,,,,,,,,,,
,,,w,1,0.7352,9,3,39,3,1,left.png,,w,right,6171d8d0854fad3442e253a3,2021-10-21_22h49.57.016,arrow_simon_punish,2021.1.2,Win32,59.91252771,,,,,,,,,,,,,,,,,,,,,,,,,,,,,,,,,,,,,,
,,,,,,,,,,,,,,,6171d8d0854fad3442e253a3,2021-10-21_22h49.57.016,arrow_simon_punish,2021.1.2,Win32,59.91252771,space,0,34.9755,p,2.7526,0,0,0,0,1,,,,,,,,,,,,,,,,,,,,,,,,,,,,
,,,,,,,,,,,,,,,6171d8d0854fad3442e253a3,2021-10-21_22h49.57.016,arrow_simon_punish,2021.1.2,Win32,59.91252771,,,,w,2.8209,1,0,1,0,1,,,,,,,,,,,,,,,,,,,,,,,,,,,,
,,,,,,,,,,,,,,,6171d8d0854fad3442e253a3,2021-10-21_22h49.57.016,arrow_simon_punish,2021.1.2,Win32,59.91252771,,,,p,2.4841,2,0,2,0,1,,,,,,,,,,,,,,,,,,,,,,,,,,,,
,,,,,,,,,,,,,,,6171d8d0854fad3442e253a3,2021-10-21_22h49.57.016,arrow_simon_punish,2021.1.2,Win32,59.91252771,,,,w,2.429,3,0,3,0,1,,,,,,,,,,,,,,,,,,,,,,,,,,,,
,,,,,,,,,,,,,,,6171d8d0854fad3442e253a3,2021-10-21_22h49.57.016,arrow_simon_punish,2021.1.2,Win32,59.91252771,,,,p,2.3999,4,0,4,0,1,,,,,,,,,,,,,,,,,,,,,,,,,,,,
,,,,,,,,,,,,,,,6171d8d0854fad3442e253a3,2021-10-21_22h49.57.016,arrow_simon_punish,2021.1.2,Win32,59.91252771,,,,w,2.3292,5,0,5,0,1,,,,,,,,,,,,,,,,,,,,,,,,,,,,
,,,,,,,,,,,,,,,6171d8d0854fad3442e253a3,2021-10-21_22h49.57.016,arrow_simon_punish,2021.1.2,Win32,59.91252771,,,,p,2.7902,6,0,6,0,1,,,,,,,,,,,,,,,,,,,,,,,,,,,,
,,,,,,,,,,,,,,,6171d8d0854fad3442e253a3,2021-10-21_22h49.57.016,arrow_simon_punish,2021.1.2,Win32,59.91252771,,,,w,2.5154,7,0,7,0,1,,,,,,,,,,,,,,,,,,,,,,,,,,,,
,,,,,,,,,,,,,,,6171d8d0854fad3442e253a3,2021-10-21_22h49.57.016,arrow_simon_punish,2021.1.2,Win32,59.91252771,,,,p,2.5856,8,0,8,0,1,,,,,,,,,,,,,,,,,,,,,,,,,,,,
,,,,,,,,,,,,,,,6171d8d0854fad3442e253a3,2021-10-21_22h49.57.016,arrow_simon_punish,2021.1.2,Win32,59.91252771,,,,w,2.5059,9,0,9,0,1,,,,,,,,,,,,,,,,,,,,,,,,,,,,
,,,,,,,,,,,,,,,6171d8d0854fad3442e253a3,2021-10-21_22h49.57.016,arrow_simon_punish,2021.1.2,Win32,59.91252771,,,,p,2.4844,10,0,10,0,1,,,,,,,,,,,,,,,,,,,,,,,,,,,,
,,,,,,,,,,,,,,,6171d8d0854fad3442e253a3,2021-10-21_22h49.57.016,arrow_simon_punish,2021.1.2,Win32,59.91252771,,,,w,2.5512,11,0,11,0,1,,,,,,,,,,,,,,,,,,,,,,,,,,,,
,,,,,,,,,,,,,,,6171d8d0854fad3442e253a3,2021-10-21_22h49.57.016,arrow_simon_punish,2021.1.2,Win32,59.91252771,,,,p,2.401,12,0,12,0,1,,,,,,,,,,,,,,,,,,,,,,,,,,,,
,,,,,,,,,,,,,,,6171d8d0854fad3442e253a3,2021-10-21_22h49.57.016,arrow_simon_punish,2021.1.2,Win32,59.91252771,,,,w,2.2843,13,0,13,0,1,,,,,,,,,,,,,,,,,,,,,,,,,,,,
,,,,,,,,,,,,,,,6171d8d0854fad3442e253a3,2021-10-21_22h49.57.016,arrow_simon_punish,2021.1.2,Win32,59.91252771,,,,p,2.218,14,0,14,0,1,,,,,,,,,,,,,,,,,,,,,,,,,,,,
,,,,,,,,,,,,,,,6171d8d0854fad3442e253a3,2021-10-21_22h49.57.016,arrow_simon_punish,2021.1.2,Win32,59.91252771,,,,w,2.5254,15,0,15,0,1,,,,,,,,,,,,,,,,,,,,,,,,,,,,
,,,,,,,,,,,,,,,6171d8d0854fad3442e253a3,2021-10-21_22h49.57.016,arrow_simon_punish,2021.1.2,Win32,59.91252771,,,,p,2.5953,16,0,16,0,1,,,,,,,,,,,,,,,,,,,,,,,,,,,,
,,,,,,,,,,,,,,,6171d8d0854fad3442e253a3,2021-10-21_22h49.57.016,arrow_simon_punish,2021.1.2,Win32,59.91252771,,,,w,2.4372,17,0,17,0,1,,,,,,,,,,,,,,,,,,,,,,,,,,,,
,,,,,,,,,,,,,,,6171d8d0854fad3442e253a3,2021-10-21_22h49.57.016,arrow_simon_punish,2021.1.2,Win32,59.91252771,,,,p,2.4842,18,0,18,0,1,,,,,,,,,,,,,,,,,,,,,,,,,,,,
,,,,,,,,,,,,,,,6171d8d0854fad3442e253a3,2021-10-21_22h49.57.016,arrow_simon_punish,2021.1.2,Win32,59.91252771,,,,w,2.5856,19,0,19,0,1,,,,,,,,,,,,,,,,,,,,,,,,,,,,
,,,,,,,,,,,,,,,6171d8d0854fad3442e253a3,2021-10-21_22h49.57.016,arrow_simon_punish,2021.1.2,Win32,59.91252771,,,,p,2.4883,20,0,20,0,1,,,,,,,,,,,,,,,,,,,,,,,,,,,,
,,,,,,,,,,,,,,,6171d8d0854fad3442e253a3,2021-10-21_22h49.57.016,arrow_simon_punish,2021.1.2,Win32,59.91252771,,,,w,2.5372,21,0,21,0,1,,,,,,,,,,,,,,,,,,,,,,,,,,,,
,,,,,,,,,,,,,,,6171d8d0854fad3442e253a3,2021-10-21_22h49.57.016,arrow_simon_punish,2021.1.2,Win32,59.91252771,,,,p,2.488,22,0,22,0,1,,,,,,,,,,,,,,,,,,,,,,,,,,,,
,,,,,,,,,,,,,,,6171d8d0854fad3442e253a3,2021-10-21_22h49.57.016,arrow_simon_punish,2021.1.2,Win32,59.91252771,,,,w,2.6911,23,0,23,0,1,,,,,,,,,,,,,,,,,,,,,,,,,,,,
,,,,,,,,,,,,,,,6171d8d0854fad3442e253a3,2021-10-21_22h49.57.016,arrow_simon_punish,2021.1.2,Win32,59.91252771,,,,p,2.3688,24,0,24,0,1,,,,,,,,,,,,,,,,,,,,,,,,,,,,
,,,,,,,,,,,,,,,6171d8d0854fad3442e253a3,2021-10-21_22h49.57.016,arrow_simon_punish,2021.1.2,Win32,59.91252771,,,,w,2.5529,25,0,25,0,1,,,,,,,,,,,,,,,,,,,,,,,,,,,,
,,,,,,,,,,,,,,,6171d8d0854fad3442e253a3,2021-10-21_22h49.57.016,arrow_simon_punish,2021.1.2,Win32,59.91252771,,,,p,2.4846,26,0,26,0,1,,,,,,,,,,,,,,,,,,,,,,,,,,,,
,,,,,,,,,,,,,,,6171d8d0854fad3442e253a3,2021-10-21_22h49.57.016,arrow_simon_punish,2021.1.2,Win32,59.91252771,,,,w,2.4086,27,0,27,0,1,,,,,,,,,,,,,,,,,,,,,,,,,,,,
,,,,,,,,,,,,,,,6171d8d0854fad3442e253a3,2021-10-21_22h49.57.016,arrow_simon_punish,2021.1.2,Win32,59.91252771,,,,p,2.4141,28,0,28,0,1,,,,,,,,,,,,,,,,,,,,,,,,,,,,
,,,,,,,,,,,,,,,6171d8d0854fad3442e253a3,2021-10-21_22h49.57.016,arrow_simon_punish,2021.1.2,Win32,59.91252771,,,,w,2.2348,29,0,29,0,1,,,,,,,,,,,,,,,,,,,,,,,,,,,,
,,,,,,,,,,,,,,,6171d8d0854fad3442e253a3,2021-10-21_22h49.57.016,arrow_simon_punish,2021.1.2,Win32,59.91252771,,,,p,2.6676,30,0,30,0,1,,,,,,,,,,,,,,,,,,,,,,,,,,,,
,,,,,,,,,,,,,,,6171d8d0854fad3442e253a3,2021-10-21_22h49.57.016,arrow_simon_punish,2021.1.2,Win32,59.91252771,,,,w,2.4729,31,0,31,0,1,,,,,,,,,,,,,,,,,,,,,,,,,,,,
,,,,,,,,,,,,,,,6171d8d0854fad3442e253a3,2021-10-21_22h49.57.016,arrow_simon_punish,2021.1.2,Win32,59.91252771,,,,p,2.3518,32,0,32,0,1,,,,,,,,,,,,,,,,,,,,,,,,,,,,
,,,,,,,,,,,,,,,6171d8d0854fad3442e253a3,2021-10-21_22h49.57.016,arrow_simon_punish,2021.1.2,Win32,59.91252771,,,,w,2.4414,33,0,33,0,1,,,,,,,,,,,,,,,,,,,,,,,,,,,,
,,,,,,,,,,,,,,,6171d8d0854fad3442e253a3,2021-10-21_22h49.57.016,arrow_simon_punish,2021.1.2,Win32,59.91252771,,,,p,2.1411,34,0,34,0,1,,,,,,,,,,,,,,,,,,,,,,,,,,,,
,,,,,,,,,,,,,,,6171d8d0854fad3442e253a3,2021-10-21_22h49.57.016,arrow_simon_punish,2021.1.2,Win32,59.91252771,,,,w,2.4289,35,0,35,0,1,,,,,,,,,,,,,,,,,,,,,,,,,,,,
,,,,,,,,,,,,,,,6171d8d0854fad3442e253a3,2021-10-21_22h49.57.016,arrow_simon_punish,2021.1.2,Win32,59.91252771,,,,p,2.393,36,0,36,0,1,,,,,,,,,,,,,,,,,,,,,,,,,,,,
,,,,,,,,,,,,,,,6171d8d0854fad3442e253a3,2021-10-21_22h49.57.016,arrow_simon_punish,2021.1.2,Win32,59.91252771,,,,w,2.5195,37,0,37,0,1,,,,,,,,,,,,,,,,,,,,,,,,,,,,
,,,,,,,,,,,,,,,6171d8d0854fad3442e253a3,2021-10-21_22h49.57.016,arrow_simon_punish,2021.1.2,Win32,59.91252771,,,,p,2.5393,38,0,38,0,1,,,,,,,,,,,,,,,,,,,,,,,,,,,,
,,,,,,,,,,,,,,,6171d8d0854fad3442e253a3,2021-10-21_22h49.57.016,arrow_simon_punish,2021.1.2,Win32,59.91252771,,,,w,2.6019,39,0,39,0,1,,,,,,,,,,,,,,,,,,,,,,,,,,,,
,,,,,,,,,,,,,,,6171d8d0854fad3442e253a3,2021-10-21_22h49.57.016,arrow_simon_punish,2021.1.2,Win32,59.91252771,,,,p,2.7059,40,0,40,0,1,,,,,,,,,,,,,,,,,,,,,,,,,,,,
,,,,,,,,,,,,,,,6171d8d0854fad3442e253a3,2021-10-21_22h49.57.016,arrow_simon_punish,2021.1.2,Win32,59.91252771,,,,w,2.6721,41,0,41,0,1,,,,,,,,,,,,,,,,,,,,,,,,,,,,
,,,,,,,,,,,,,,,6171d8d0854fad3442e253a3,2021-10-21_22h49.57.016,arrow_simon_punish,2021.1.2,Win32,59.91252771,,,,p,2.4444,42,0,42,0,1,,,,,,,,,,,,,,,,,,,,,,,,,,,,
,,,,,,,,,,,,,,,6171d8d0854fad3442e253a3,2021-10-21_22h49.57.016,arrow_simon_punish,2021.1.2,Win32,59.91252771,,,,w,2.4505,43,0,43,0,1,,,,,,,,,,,,,,,,,,,,,,,,,,,,
,,,,,,,,,,,,,,,6171d8d0854fad3442e253a3,2021-10-21_22h49.57.016,arrow_simon_punish,2021.1.2,Win32,59.91252771,,,,p,2.5178,44,0,44,0,1,,,,,,,,,,,,,,,,,,,,,,,,,,,,
,,,,,,,,,,,,,,,6171d8d0854fad3442e253a3,2021-10-21_22h49.57.016,arrow_simon_punish,2021.1.2,Win32,59.91252771,,,,w,2.9631,45,0,45,0,1,,,,,,,,,,,,,,,,,,,,,,,,,,,,
,,,,,,,,,,,,,,,6171d8d0854fad3442e253a3,2021-10-21_22h49.57.016,arrow_simon_punish,2021.1.2,Win32,59.91252771,,,,p,2.2842,46,0,46,0,1,,,,,,,,,,,,,,,,,,,,,,,,,,,,
,,,,,,,,,,,,,,,6171d8d0854fad3442e253a3,2021-10-21_22h49.57.016,arrow_simon_punish,2021.1.2,Win32,59.91252771,,,,w,2.4357,47,0,47,0,1,,,,,,,,,,,,,,,,,,,,,,,,,,,,
,,,,,,,,,,,,,,,6171d8d0854fad3442e253a3,2021-10-21_22h49.57.016,arrow_simon_punish,2021.1.2,Win32,59.91252771,,,,p,2.443,48,0,48,0,1,,,,,,,,,,,,,,,,,,,,,,,,,,,,
,,,,,,,,,,,,,,,6171d8d0854fad3442e253a3,2021-10-21_22h49.57.016,arrow_simon_punish,2021.1.2,Win32,59.91252771,,,,w,2.481,49,0,49,0,1,,,,,,,,,,,,,,,,,,,,,,,,,,,,
,,,,,,,,,,,,,,,6171d8d0854fad3442e253a3,2021-10-21_22h49.57.016,arrow_simon_punish,2021.1.2,Win32,59.91252771,,,,p,2.4102,50,0,50,0,1,,,,,,,,,,,,,,,,,,,,,,,,,,,,
,,,,,,,,,,,,,,,6171d8d0854fad3442e253a3,2021-10-21_22h49.57.016,arrow_simon_punish,2021.1.2,Win32,59.91252771,,,,w,2.3864,51,0,51,0,1,,,,,,,,,,,,,,,,,,,,,,,,,,,,
,,,,,,,,,,,,,,,6171d8d0854fad3442e253a3,2021-10-21_22h49.57.016,arrow_simon_punish,2021.1.2,Win32,59.91252771,,,,p,2.4442,52,0,52,0,1,,,,,,,,,,,,,,,,,,,,,,,,,,,,
,,,,,,,,,,,,,,,6171d8d0854fad3442e253a3,2021-10-21_22h49.57.016,arrow_simon_punish,2021.1.2,Win32,59.91252771,,,,w,2.4404,53,0,53,0,1,,,,,,,,,,,,,,,,,,,,,,,,,,,,
,,,,,,,,,,,,,,,6171d8d0854fad3442e253a3,2021-10-21_22h49.57.016,arrow_simon_punish,2021.1.2,Win32,59.91252771,,,,p,2.443,54,0,54,0,1,,,,,,,,,,,,,,,,,,,,,,,,,,,,
,,,,,,,,,,,,,,,6171d8d0854fad3442e253a3,2021-10-21_22h49.57.016,arrow_simon_punish,2021.1.2,Win32,59.91252771,,,,w,2.4454,55,0,55,0,1,,,,,,,,,,,,,,,,,,,,,,,,,,,,
,,,,,,,,,,,,,,,6171d8d0854fad3442e253a3,2021-10-21_22h49.57.016,arrow_simon_punish,2021.1.2,Win32,59.91252771,,,,p,2.4843,56,0,56,0,1,,,,,,,,,,,,,,,,,,,,,,,,,,,,
,,,,,,,,,,,,,,,6171d8d0854fad3442e253a3,2021-10-21_22h49.57.016,arrow_simon_punish,2021.1.2,Win32,59.91252771,,,,w,2.2224,57,0,57,0,1,,,,,,,,,,,,,,,,,,,,,,,,,,,,
,,,,,,,,,,,,,,,6171d8d0854fad3442e253a3,2021-10-21_22h49.57.016,arrow_simon_punish,2021.1.2,Win32,59.91252771,,,,p,2.4002,58,0,58,0,1,,,,,,,,,,,,,,,,,,,,,,,,,,,,
,,,,,,,,,,,,,,,6171d8d0854fad3442e253a3,2021-10-21_22h49.57.016,arrow_simon_punish,2021.1.2,Win32,59.91252771,,,,w,2.3904,59,0,59,0,1,,,,,,,,,,,,,,,,,,,,,,,,,,,,
,,,,,,,,,,,left.png,,w,left,6171d8d0854fad3442e253a3,2021-10-21_22h49.57.016,arrow_simon_punish,2021.1.2,Win32,59.91252771,,,,,,,,,,,space,0,39.0878,w,1,1.4645,1.985187435,0,1,0,0,0,2,1,,,,,,,,,,,,,,
,,,,,,,,,,,left.png,,w,right,6171d8d0854fad3442e253a3,2021-10-21_22h49.57.016,arrow_simon_punish,2021.1.2,Win32,59.91252771,,,,,,,,,,,,,,p,0,1.6082,1.617826562,1,1,0,1,1,3,1,,,,,,,,,,,,,,
,,,,,,,,,,,left.png,,w,right,6171d8d0854fad3442e253a3,2021-10-21_22h49.57.016,arrow_simon_punish,2021.1.2,Win32,59.91252771,,,,,,,,,,,,,,p,0,1.845,2.421477777,1,1,0,2,2,3,1,,,,,,,,,,,,,,
,,,,,,,,,,,left.png,,w,left,6171d8d0854fad3442e253a3,2021-10-21_22h49.57.016,arrow_simon_punish,2021.1.2,Win32,59.91252771,,,,,,,,,,,,,,w,1,1.343,1.768190296,1,1,0,3,3,2,1,,,,,,,,,,,,,,
,,,,,,,,,,,right.png,,p,left,6171d8d0854fad3442e253a3,2021-10-21_22h49.57.016,arrow_simon_punish,2021.1.2,Win32,59.91252771,,,,,,,,,,,,,,p,1,1.8026,2.279091514,1,1,1,0,4,0,1,,,,,,,,,,,,,,
,,,,,,,,,,,right.png,,p,left,6171d8d0854fad3442e253a3,2021-10-21_22h49.57.016,arrow_simon_punish,2021.1.2,Win32,59.91252771,,,,,,,,,,,,,,w,0,2.1711,2.432966725,1,1,1,1,5,0,1,,,,,,,,,,,,,,
,,,,,,,,,,,left.png,,w,right,6171d8d0854fad3442e253a3,2021-10-21_22h49.57.016,arrow_simon_punish,2021.1.2,Win32,59.91252771,,,,,,,,,,,,,,p,0,1.4375,1.675372996,1,1,1,2,6,3,1,,,,,,,,,,,,,,
,,,,,,,,,,,right.png,,p,left,6171d8d0854fad3442e253a3,2021-10-21_22h49.57.016,arrow_simon_punish,2021.1.2,Win32,59.91252771,,,,,,,,,,,,,,p,1,2.1774,2.358578035,1,1,1,3,7,0,1,,,,,,,,,,,,,,
,,,,,,,,,,,right.png,,p,right,6171d8d0854fad3442e253a3,2021-10-21_22h49.57.016,arrow_simon_punish,2021.1.2,Win32,59.91252771,,,,,,,,,,,,,,p,1,1.6006,1.764526292,1,1,2,0,8,1,1,,,,,,,,,,,,,,
,,,,,,,,,,,left.png,,w,right,6171d8d0854fad3442e253a3,2021-10-21_22h49.57.016,arrow_simon_punish,2021.1.2,Win32,59.91252771,,,,,,,,,,,,,,w,1,1.5134,1.801771402,0,1,2,1,9,3,1,,,,,,,,,,,,,,
,,,,,,,,,,,right.png,,p,right,6171d8d0854fad3442e253a3,2021-10-21_22h49.57.016,arrow_simon_punish,2021.1.2,Win32,59.91252771,,,,,,,,,,,,,,p,1,1.5942,1.728355475,0,1,2,2,10,1,1,,,,,,,,,,,,,,
,,,,,,,,,,,left.png,,w,right,6171d8d0854fad3442e253a3,2021-10-21_22h49.57.016,arrow_simon_punish,2021.1.2,Win32,59.91252771,,,,,,,,,,,,,,w,1,2.0251,2.463905589,1,1,2,3,11,3,1,,,,,,,,,,,,,,
,,,,,,,,,,,right.png,,p,right,6171d8d0854fad3442e253a3,2021-10-21_22h49.57.016,arrow_simon_punish,2021.1.2,Win32,59.91252771,,,,,,,,,,,,,,p,1,1.2254,1.664122462,1,1,3,0,12,1,1,,,,,,,,,,,,,,
,,,,,,,,,,,right.png,,p,left,6171d8d0854fad3442e253a3,2021-10-21_22h49.57.016,arrow_simon_punish,2021.1.2,Win32,59.91252771,,,,,,,,,,,,,,p,1,2.3029,2.434748541,1,1,3,1,13,0,1,,,,,,,,,,,,,,
,,,,,,,,,,,right.png,,p,right,6171d8d0854fad3442e253a3,2021-10-21_22h49.57.016,arrow_simon_punish,2021.1.2,Win32,59.91252771,,,,,,,,,,,,,,p,1,1.619,2.152488632,1,1,3,2,14,1,1,,,,,,,,,,,,,,
,,,,,,,,,,,right.png,,p,left,6171d8d0854fad3442e253a3,2021-10-21_22h49.57.016,arrow_simon_punish,2021.1.2,Win32,59.91252771,,,,,,,,,,,,,,p,1,1.4722,1.79447461,0,1,3,3,15,0,1,,,,,,,,,,,,,,
,,,,,,,,,,,left.png,,w,right,6171d8d0854fad3442e253a3,2021-10-21_22h49.57.016,arrow_simon_punish,2021.1.2,Win32,59.91252771,,,,,,,,,,,,,,w,1,1.4305,1.862228721,0,1,4,0,16,3,1,,,,,,,,,,,,,,
,,,,,,,,,,,left.png,,w,left,6171d8d0854fad3442e253a3,2021-10-21_22h49.57.016,arrow_simon_punish,2021.1.2,Win32,59.91252771,,,,,,,,,,,,,,p,0,1.1417,1.535510674,1,1,4,1,17,2,1,,,,,,,,,,,,,,
,,,,,,,,,,,left.png,,w,left,6171d8d0854fad3442e253a3,2021-10-21_22h49.57.016,arrow_simon_punish,2021.1.2,Win32,59.91252771,,,,,,,,,,,,,,w,1,1.8589,2.210047464,1,1,4,2,18,2,1,,,,,,,,,,,,,,
,,,,,,,,,,,left.png,,w,right,6171d8d0854fad3442e253a3,2021-10-21_22h49.57.016,arrow_simon_punish,2021.1.2,Win32,59.91252771,,,,,,,,,,,,,,w,1,2.0853,2.389702279,1,1,4,3,19,3,1,,,,,,,,,,,,,,
,,,,,,,,,,,right.png,,p,right,6171d8d0854fad3442e253a3,2021-10-21_22h49.57.016,arrow_simon_punish,2021.1.2,Win32,59.91252771,,,,,,,,,,,,,,p,1,1.1549,1.540038207,1,1,5,0,20,1,1,,,,,,,,,,,,,,
,,,,,,,,,,,right.png,,p,right,6171d8d0854fad3442e253a3,2021-10-21_22h49.57.016,arrow_simon_punish,2021.1.2,Win32,59.91252771,,,,,,,,,,,,,,p,1,1.7027,2.228199815,1,1,5,1,21,1,1,,,,,,,,,,,,,,
,,,,,,,,,,,left.png,,w,right,6171d8d0854fad3442e253a3,2021-10-21_22h49.57.016,arrow_simon_punish,2021.1.2,Win32,59.91252771,,,,,,,,,,,,,,p,0,1.7066,1.924582593,1,1,5,2,22,3,1,,,,,,,,,,,,,,
,,,,,,,,,,,left.png,,w,left,6171d8d0854fad3442e253a3,2021-10-21_22h49.57.016,arrow_simon_punish,2021.1.2,Win32,59.91252771,,,,,,,,,,,,,,w,1,1.3283,1.813994555,1,1,5,3,23,2,1,,,,,,,,,,,,,,
,,,,,,,,,,,left.png,,w,right,6171d8d0854fad3442e253a3,2021-10-21_22h49.57.016,arrow_simon_punish,2021.1.2,Win32,59.91252771,,,,,,,,,,,,,,w,1,1.4928,1.667324504,0,1,6,0,24,3,1,,,,,,,,,,,,,,
,,,,,,,,,,,left.png,,w,left,6171d8d0854fad3442e253a3,2021-10-21_22h49.57.016,arrow_simon_punish,2021.1.2,Win32,59.91252771,,,,,,,,,,,,,,w,1,1.6021,1.916901091,1,1,6,1,25,2,1,,,,,,,,,,,,,,
,,,,,,,,,,,left.png,,w,left,6171d8d0854fad3442e253a3,2021-10-21_22h49.57.016,arrow_simon_punish,2021.1.2,Win32,59.91252771,,,,,,,,,,,,,,p,0,1.4423,1.825098308,1,1,6,2,26,2,1,,,,,,,,,,,,,,
,,,,,,,,,,,left.png,,w,right,6171d8d0854fad3442e253a3,2021-10-21_22h49.57.016,arrow_simon_punish,2021.1.2,Win32,59.91252771,,,,,,,,,,,,,,w,1,2.7422,1.665334846,1,1,6,3,27,3,1,,,,,,,,,,,,,,
,,,,,,,,,,,right.png,,p,left,6171d8d0854fad3442e253a3,2021-10-21_22h49.57.016,arrow_simon_punish,2021.1.2,Win32,59.91252771,,,,,,,,,,,,,,p,1,2.1924,2.274649242,1,1,7,0,28,0,1,,,,,,,,,,,,,,
,,,,,,,,,,,left.png,,w,left,6171d8d0854fad3442e253a3,2021-10-21_22h49.57.016,arrow_simon_punish,2021.1.2,Win32,59.91252771,,,,,,,,,,,,,,w,1,1.6519,1.685882576,1,1,7,1,29,2,1,,,,,,,,,,,,,,
,,,,,,,,,,,right.png,,p,right,6171d8d0854fad3442e253a3,2021-10-21_22h49.57.016,arrow_simon_punish,2021.1.2,Win32,59.91252771,,,,,,,,,,,,,,p,1,1.8686,1.743668198,1,1,7,2,30,1,1,,,,,,,,,,,,,,
,,,,,,,,,,,left.png,,w,left,6171d8d0854fad3442e253a3,2021-10-21_22h49.57.016,arrow_simon_punish,2021.1.2,Win32,59.91252771,,,,,,,,,,,,,,w,1,1.3702,1.542059721,1,1,7,3,31,2,1,,,,,,,,,,,,,,
,,,,,,,,,,,right.png,,p,left,6171d8d0854fad3442e253a3,2021-10-21_22h49.57.016,arrow_simon_punish,2021.1.2,Win32,59.91252771,,,,,,,,,,,,,,p,1,1.8812,2.025819946,1,1,8,0,32,0,1,,,,,,,,,,,,,,
,,,,,,,,,,,left.png,,w,left,6171d8d0854fad3442e253a3,2021-10-21_22h49.57.016,arrow_simon_punish,2021.1.2,Win32,59.91252771,,,,,,,,,,,,,,w,1,2.0019,1.763487847,1,1,8,1,33,2,1,,,,,,,,,,,,,,
,,,,,,,,,,,right.png,,p,right,6171d8d0854fad3442e253a3,2021-10-21_22h49.57.016,arrow_simon_punish,2021.1.2,Win32,59.91252771,,,,,,,,,,,,,,p,1,1.7668,2.194516785,1,1,8,2,34,1,1,,,,,,,,,,,,,,
,,,,,,,,,,,right.png,,p,left,6171d8d0854fad3442e253a3,2021-10-21_22h49.57.016,arrow_simon_punish,2021.1.2,Win32,59.91252771,,,,,,,,,,,,,,p,1,3.0768,2.333595347,1,1,8,3,35,0,1,,,,,,,,,,,,,,
,,,,,,,,,,,left.png,,w,right,6171d8d0854fad3442e253a3,2021-10-21_22h49.57.016,arrow_simon_punish,2021.1.2,Win32,59.91252771,,,,,,,,,,,,,,w,1,1.7191,1.815986184,1,1,9,0,36,3,1,,,,,,,,,,,,,,
,,,,,,,,,,,right.png,,p,left,6171d8d0854fad3442e253a3,2021-10-21_22h49.57.016,arrow_simon_punish,2021.1.2,Win32,59.91252771,,,,,,,,,,,,,,p,1,1.7356,1.840210353,1,1,9,1,37,0,1,,,,,,,,,,,,,,
,,,,,,,,,,,right.png,,p,left,6171d8d0854fad3442e253a3,2021-10-21_22h49.57.016,arrow_simon_punish,2021.1.2,Win32,59.91252771,,,,,,,,,,,,,,p,1,1.6361,1.717003381,1,1,9,2,38,0,1,,,,,,,,,,,,,,
,,,,,,,,,,,left.png,,w,right,6171d8d0854fad3442e253a3,2021-10-21_22h49.57.016,arrow_simon_punish,2021.1.2,Win32,59.91252771,,,,,,,,,,,,,,w,1,1.5404,1.817004835,0,1,9,3,39,3,1,,,,,,,,,,,,,,
,,,,,,,,,,,right.png,,p,right,6171d8d0854fad3442e253a3,2021-10-21_22h49.57.016,arrow_simon_punish,2021.1.2,Win32,59.91252771,,,,,,,,,,,,,,p,1,1.442,1.761273172,0,1,10,0,40,1,1,,,,,,,,,,,,,,
,,,,,,,,,,,right.png,,p,left,6171d8d0854fad3442e253a3,2021-10-21_22h49.57.016,arrow_simon_punish,2021.1.2,Win32,59.91252771,,,,,,,,,,,,,,p,1,1.7137,1.76607693,1,1,10,1,41,0,1,,,,,,,,,,,,,,
,,,,,,,,,,,right.png,,p,left,6171d8d0854fad3442e253a3,2021-10-21_22h49.57.016,arrow_simon_punish,2021.1.2,Win32,59.91252771,,,,,,,,,,,,,,p,1,1.4078,1.680941222,0,1,10,2,42,0,1,,,,,,,,,,,,,,
,,,,,,,,,,,right.png,,p,left,6171d8d0854fad3442e253a3,2021-10-21_22h49.57.016,arrow_simon_punish,2021.1.2,Win32,59.91252771,,,,,,,,,,,,,,p,1,1.5547,1.762023316,0,1,10,3,43,0,1,,,,,,,,,,,,,,
,,,,,,,,,,,right.png,,p,left,6171d8d0854fad3442e253a3,2021-10-21_22h49.57.016,arrow_simon_punish,2021.1.2,Win32,59.91252771,,,,,,,,,,,,,,p,1,1.3927,1.784731177,1,1,11,0,44,0,1,,,,,,,,,,,,,,
,,,,,,,,,,,right.png,,p,left,6171d8d0854fad3442e253a3,2021-10-21_22h49.57.016,arrow_simon_punish,2021.1.2,Win32,59.91252771,,,,,,,,,,,,,,p,1,1.6024,2.140318885,1,1,11,1,45,0,1,,,,,,,,,,,,,,
,,,,,,,,,,,right.png,,p,right,6171d8d0854fad3442e253a3,2021-10-21_22h49.57.016,arrow_simon_punish,2021.1.2,Win32,59.91252771,,,,,,,,,,,,,,p,1,1.3193,1.580426107,1,1,11,2,46,1,1,,,,,,,,,,,,,,
,,,,,,,,,,,left.png,,w,left,6171d8d0854fad3442e253a3,2021-10-21_22h49.57.016,arrow_simon_punish,2021.1.2,Win32,59.91252771,,,,,,,,,,,,,,w,1,1.603,1.912944946,1,1,11,3,47,2,1,,,,,,,,,,,,,,
,,,,,,,,,,,left.png,,w,right,6171d8d0854fad3442e253a3,2021-10-21_22h49.57.016,arrow_simon_punish,2021.1.2,Win32,59.91252771,,,,,,,,,,,,,,w,1,1.1858,1.773968018,1,1,12,0,48,3,1,,,,,,,,,,,,,,
,,,,,,,,,,,left.png,,w,left,6171d8d0854fad3442e253a3,2021-10-21_22h49.57.016,arrow_simon_punish,2021.1.2,Win32,59.91252771,,,,,,,,,,,,,,w,1,1.8193,2.452865544,1,1,12,1,49,2,1,,,,,,,,,,,,,,
,,,,,,,,,,,right.png,,p,right,6171d8d0854fad3442e253a3,2021-10-21_22h49.57.016,arrow_simon_punish,2021.1.2,Win32,59.91252771,,,,,,,,,,,,,,p,1,1.4192,1.922262122,0,1,12,2,50,1,1,,,,,,,,,,,,,,
,,,,,,,,,,,right.png,,p,right,6171d8d0854fad3442e253a3,2021-10-21_22h49.57.016,arrow_simon_punish,2021.1.2,Win32,59.91252771,,,,,,,,,,,,,,p,1,1.3186,1.940838694,1,1,12,3,51,1,1,,,,,,,,,,,,,,
,,,,,,,,,,,left.png,,w,right,6171d8d0854fad3442e253a3,2021-10-21_22h49.57.016,arrow_simon_punish,2021.1.2,Win32,59.91252771,,,,,,,,,,,,,,w,1,1.4645,1.813735104,0,1,13,0,52,3,1,,,,,,,,,,,,,,
,,,,,,,,,,,left.png,,w,right,6171d8d0854fad3442e253a3,2021-10-21_22h49.57.016,arrow_simon_punish,2021.1.2,Win32,59.91252771,,,,,,,,,,,,,,w,1,1.4006,1.975468934,0,1,13,1,53,3,1,,,,,,,,,,,,,,
,,,,,,,,,,,left.png,,w,left,6171d8d0854fad3442e253a3,2021-10-21_22h49.57.016,arrow_simon_punish,2021.1.2,Win32,59.91252771,,,,,,,,,,,,,,w,1,1.6671,2.138995586,1,1,13,2,54,2,1,,,,,,,,,,,,,,
,,,,,,,,,,,left.png,,w,left,6171d8d0854fad3442e253a3,2021-10-21_22h49.57.016,arrow_simon_punish,2021.1.2,Win32,59.91252771,,,,,,,,,,,,,,w,1,1.5584,2.084378848,0,1,13,3,55,2,1,,,,,,,,,,,,,,
,,,,,,,,,,,right.png,,p,right,6171d8d0854fad3442e253a3,2021-10-21_22h49.57.016,arrow_simon_punish,2021.1.2,Win32,59.91252771,,,,,,,,,,,,,,p,1,2.0579,2.472445036,1,1,14,0,56,1,1,,,,,,,,,,,,,,
,,,,,,,,,,,left.png,,w,left,6171d8d0854fad3442e253a3,2021-10-21_22h49.57.016,arrow_simon_punish,2021.1.2,Win32,59.91252771,,,,,,,,,,,,,,w,1,1.6554,2.275701317,1,1,14,1,57,2,1,,,,,,,,,,,,,,
,,,,,,,,,,,right.png,,p,right,6171d8d0854fad3442e253a3,2021-10-21_22h49.57.016,arrow_simon_punish,2021.1.2,Win32,59.91252771,,,,,,,,,,,,,,p,1,1.0549,1.644824629,1,1,14,2,58,1,1,,,,,,,,,,,,,,
,,,,,,,,,,,right.png,,p,right,6171d8d0854fad3442e253a3,2021-10-21_22h49.57.016,arrow_simon_punish,2021.1.2,Win32,59.91252771,,,,,,,,,,,,,,p,1,1.6025,2.15883998,1,1,14,3,59,1,1,,,,,,,,,,,,,,
,,,,,,,,,,,,,,,6171d8d0854fad3442e253a3,2021-10-21_22h49.57.016,arrow_simon_punish,2021.1.2,Win32,59.91252771,,,,,,,,,,,,,,,,,,,,,,,,,space,24.6276,2,0,0,0,0,1,1,,,,,
,,,,,,,,,,,right.png,,p,left,6171d8d0854fad3442e253a3,2021-10-21_22h49.57.016,arrow_simon_punish,2021.1.2,Win32,59.91252771,,,,,,,,,,,,,,p,1,1.3424,1.697612058,1,5,0,0,0,0,1,,,,,,,,,,,,,,
,,,,,,,,,,,left.png,,w,left,6171d8d0854fad3442e253a3,2021-10-21_22h49.57.016,arrow_simon_punish,2021.1.2,Win32,59.91252771,,,,,,,,,,,,,,w,1,1.3645,1.873094275,1,5,0,1,1,2,1,,,,,,,,,,,,,,
,,,,,,,,,,,right.png,,p,left,6171d8d0854fad3442e253a3,2021-10-21_22h49.57.016,arrow_simon_punish,2021.1.2,Win32,59.91252771,,,,,,,,,,,,,,p,1,1.6494,2.07704207,1,5,0,2,2,0,1,,,,,,,,,,,,,,
,,,,,,,,,,,left.png,,w,right,6171d8d0854fad3442e253a3,2021-10-21_22h49.57.016,arrow_simon_punish,2021.1.2,Win32,59.91252771,,,,,,,,,,,,,,w,1,1.7232,1.887961931,1,5,0,3,3,3,1,,,,,,,,,,,,,,
,,,,,,,,,,,left.png,,w,left,6171d8d0854fad3442e253a3,2021-10-21_22h49.57.016,arrow_simon_punish,2021.1.2,Win32,59.91252771,,,,,,,,,,,,,,w,1,1.4052,1.972794503,0,5,1,0,4,2,1,,,,,,,,,,,,,,
,,,,,,,,,,,left.png,,w,right,6171d8d0854fad3442e253a3,2021-10-21_22h49.57.016,arrow_simon_punish,2021.1.2,Win32,59.91252771,,,,,,,,,,,,,,w,1,1.2897,1.61066015,1,5,1,1,5,3,1,,,,,,,,,,,,,,
,,,,,,,,,,,left.png,,w,left,6171d8d0854fad3442e253a3,2021-10-21_22h49.57.016,arrow_simon_punish,2021.1.2,Win32,59.91252771,,,,,,,,,,,,,,w,1,0.9754,1.555848185,1,5,1,2,6,2,1,,,,,,,,,,,,,,
,,,,,,,,,,,left.png,,w,left,6171d8d0854fad3442e253a3,2021-10-21_22h49.57.016,arrow_simon_punish,2021.1.2,Win32,59.91252771,,,,,,,,,,,,,,w,1,1.3701,1.953300649,1,5,1,3,7,2,1,,,,,,,,,,,,,,
,,,,,,,,,,,right.png,,p,right,6171d8d0854fad3442e253a3,2021-10-21_22h49.57.016,arrow_simon_punish,2021.1.2,Win32,59.91252771,,,,,,,,,,,,,,p,1,1.3891,1.918475918,1,5,2,0,8,1,1,,,,,,,,,,,,,,
,,,,,,,,,,,right.png,,p,left,6171d8d0854fad3442e253a3,2021-10-21_22h49.57.016,arrow_simon_punish,2021.1.2,Win32,59.91252771,,,,,,,,,,,,,,p,1,1.8333,2.034523139,1,5,2,1,9,0,1,,,,,,,,,,,,,,
,,,,,,,,,,,right.png,,p,left,6171d8d0854fad3442e253a3,2021-10-21_22h49.57.016,arrow_simon_punish,2021.1.2,Win32,59.91252771,,,,,,,,,,,,,,p,1,1.5619,2.163022916,0,5,2,2,10,0,1,,,,,,,,,,,,,,
,,,,,,,,,,,right.png,,p,right,6171d8d0854fad3442e253a3,2021-10-21_22h49.57.016,arrow_simon_punish,2021.1.2,Win32,59.91252771,,,,,,,,,,,,,,p,1,1.7358,2.393913825,1,5,2,3,11,1,1,,,,,,,,,,,,,,
,,,,,,,,,,,left.png,,w,left,6171d8d0854fad3442e253a3,2021-10-21_22h49.57.016,arrow_simon_punish,2021.1.2,Win32,59.91252771,,,,,,,,,,,,,,w,1,1.4886,1.960568064,0,5,3,0,12,2,1,,,,,,,,,,,,,,
,,,,,,,,,,,left.png,,w,left,6171d8d0854fad3442e253a3,2021-10-21_22h49.57.016,arrow_simon_punish,2021.1.2,Win32,59.91252771,,,,,,,,,,,,,,w,1,1.0375,1.620468205,1,5,3,1,13,2,1,,,,,,,,,,,,,,
,,,,,,,,,,,right.png,,p,left,6171d8d0854fad3442e253a3,2021-10-21_22h49.57.016,arrow_simon_punish,2021.1.2,Win32,59.91252771,,,,,,,,,,,,,,w,0,1.6093,2.128221887,1,5,3,2,14,0,1,,,,,,,,,,,,,,
,,,,,,,,,,,right.png,,p,left,6171d8d0854fad3442e253a3,2021-10-21_22h49.57.016,arrow_simon_punish,2021.1.2,Win32,59.91252771,,,,,,,,,,,,,,p,1,1.5521,2.050887875,0,5,3,3,15,0,1,,,,,,,,,,,,,,
,,,,,,,,,,,left.png,,w,left,6171d8d0854fad3442e253a3,2021-10-21_22h49.57.016,arrow_simon_punish,2021.1.2,Win32,59.91252771,,,,,,,,,,,,,,w,1,2.1556,1.638624956,1,5,4,0,16,2,1,,,,,,,,,,,,,,
,,,,,,,,,,,right.png,,p,right,6171d8d0854fad3442e253a3,2021-10-21_22h49.57.016,arrow_simon_punish,2021.1.2,Win32,59.91252771,,,,,,,,,,,,,,p,1,1.1874,1.610990137,1,5,4,1,17,1,1,,,,,,,,,,,,,,
,,,,,,,,,,,left.png,,w,right,6171d8d0854fad3442e253a3,2021-10-21_22h49.57.016,arrow_simon_punish,2021.1.2,Win32,59.91252771,,,,,,,,,,,,,,w,1,1.279,1.6248406,1,5,4,2,18,3,1,,,,,,,,,,,,,,
,,,,,,,,,,,left.png,,w,left,6171d8d0854fad3442e253a3,2021-10-21_22h49.57.016,arrow_simon_punish,2021.1.2,Win32,59.91252771,,,,,,,,,,,,,,w,1,1.3955,1.811283346,1,5,4,3,19,2,1,,,,,,,,,,,,,,
,,,,,,,,,,,left.png,,w,right,6171d8d0854fad3442e253a3,2021-10-21_22h49.57.016,arrow_simon_punish,2021.1.2,Win32,59.91252771,,,,,,,,,,,,,,w,1,1.2351,1.599716255,1,5,5,0,20,3,1,,,,,,,,,,,,,,
,,,,,,,,,,,right.png,,p,left,6171d8d0854fad3442e253a3,2021-10-21_22h49.57.016,arrow_simon_punish,2021.1.2,Win32,59.91252771,,,,,,,,,,,,,,p,1,1.6688,2.063408848,1,5,5,1,21,0,1,,,,,,,,,,,,,,
,,,,,,,,,,,left.png,,w,right,6171d8d0854fad3442e253a3,2021-10-21_22h49.57.016,arrow_simon_punish,2021.1.2,Win32,59.91252771,,,,,,,,,,,,,,w,1,1.4196,1.80953354,0,5,5,2,22,3,1,,,,,,,,,,,,,,
,,,,,,,,,,,right.png,,p,left,6171d8d0854fad3442e253a3,2021-10-21_22h49.57.016,arrow_simon_punish,2021.1.2,Win32,59.91252771,,,,,,,,,,,,,,p,1,1.1784,1.70575901,1,5,5,3,23,0,1,,,,,,,,,,,,,,
,,,,,,,,,,,right.png,,p,left,6171d8d0854fad3442e253a3,2021-10-21_22h49.57.016,arrow_simon_punish,2021.1.2,Win32,59.91252771,,,,,,,,,,,,,,p,1,1.3854,1.804425858,1,5,6,0,24,0,1,,,,,,,,,,,,,,
,,,,,,,,,,,left.png,,w,left,6171d8d0854fad3442e253a3,2021-10-21_22h49.57.016,arrow_simon_punish,2021.1.2,Win32,59.91252771,,,,,,,,,,,,,,w,1,1.3938,1.661287249,1,5,6,1,25,2,1,,,,,,,,,,,,,,
,,,,,,,,,,,right.png,,p,left,6171d8d0854fad3442e253a3,2021-10-21_22h49.57.016,arrow_simon_punish,2021.1.2,Win32,59.91252771,,,,,,,,,,,,,,p,1,1.5188,1.919786843,0,5,6,2,26,0,1,,,,,,,,,,,,,,
,,,,,,,,,,,left.png,,w,left,6171d8d0854fad3442e253a3,2021-10-21_22h49.57.016,arrow_simon_punish,2021.1.2,Win32,59.91252771,,,,,,,,,,,,,,w,1,1.7529,2.07376154,1,5,6,3,27,2,1,,,,,,,,,,,,,,
,,,,,,,,,,,right.png,,p,right,6171d8d0854fad3442e253a3,2021-10-21_22h49.57.016,arrow_simon_punish,2021.1.2,Win32,59.91252771,,,,,,,,,,,,,,p,1,1.7197,2.258516301,1,5,7,0,28,1,1,,,,,,,,,,,,,,
,,,,,,,,,,,right.png,,p,right,6171d8d0854fad3442e253a3,2021-10-21_22h49.57.016,arrow_simon_punish,2021.1.2,Win32,59.91252771,,,,,,,,,,,,,,p,1,1.6198,2.209722428,1,5,7,1,29,1,1,,,,,,,,,,,,,,
,,,,,,,,,,,right.png,,p,left,6171d8d0854fad3442e253a3,2021-10-21_22h49.57.016,arrow_simon_punish,2021.1.2,Win32,59.91252771,,,,,,,,,,,,,,p,1,1.203,1.580204093,1,5,7,2,30,0,1,,,,,,,,,,,,,,
,,,,,,,,,,,right.png,,p,right,6171d8d0854fad3442e253a3,2021-10-21_22h49.57.016,arrow_simon_punish,2021.1.2,Win32,59.91252771,,,,,,,,,,,,,,p,1,1.0359,1.560780956,1,5,7,3,31,1,1,,,,,,,,,,,,,,
,,,,,,,,,,,left.png,,w,right,6171d8d0854fad3442e253a3,2021-10-21_22h49.57.016,arrow_simon_punish,2021.1.2,Win32,59.91252771,,,,,,,,,,,,,,w,1,1.5518,1.912852785,0,5,8,0,32,3,1,,,,,,,,,,,,,,
,,,,,,,,,,,left.png,,w,left,6171d8d0854fad3442e253a3,2021-10-21_22h49.57.016,arrow_simon_punish,2021.1.2,Win32,59.91252771,,,,,,,,,,,,,,w,1,1.0065,1.56121322,1,5,8,1,33,2,1,,,,,,,,,,,,,,
,,,,,,,,,,,right.png,,p,right,6171d8d0854fad3442e253a3,2021-10-21_22h49.57.016,arrow_simon_punish,2021.1.2,Win32,59.91252771,,,,,,,,,,,,,,p,1,1.26,1.794713693,1,5,8,2,34,1,1,,,,,,,,,,,,,,
,,,,,,,,,,,left.png,,w,left,6171d8d0854fad3442e253a3,2021-10-21_22h49.57.016,arrow_simon_punish,2021.1.2,Win32,59.91252771,,,,,,,,,,,,,,w,1,1.8192,2.217337135,1,5,8,3,35,2,1,,,,,,,,,,,,,,
,,,,,,,,,,,left.png,,w,right,6171d8d0854fad3442e253a3,2021-10-21_22h49.57.016,arrow_simon_punish,2021.1.2,Win32,59.91252771,,,,,,,,,,,,,,w,1,2.4522,2.420827972,1,5,9,0,36,3,1,,,,,,,,,,,,,,
,,,,,,,,,,,right.png,,p,right,6171d8d0854fad3442e253a3,2021-10-21_22h49.57.016,arrow_simon_punish,2021.1.2,Win32,59.91252771,,,,,,,,,,,,,,p,1,1.3191,1.792997922,1,5,9,1,37,1,1,,,,,,,,,,,,,,
,,,,,,,,,,,left.png,,w,right,6171d8d0854fad3442e253a3,2021-10-21_22h49.57.016,arrow_simon_punish,2021.1.2,Win32,59.91252771,,,,,,,,,,,,,,w,1,1.3786,1.687962682,1,5,9,2,38,3,1,,,,,,,,,,,,,,
,,,,,,,,,,,right.png,,p,left,6171d8d0854fad3442e253a3,2021-10-21_22h49.57.016,arrow_simon_punish,2021.1.2,Win32,59.91252771,,,,,,,,,,,,,,p,1,1.9354,1.744914363,1,5,9,3,39,0,1,,,,,,,,,,,,,,
,,,,,,,,,,,left.png,,w,right,6171d8d0854fad3442e253a3,2021-10-21_22h49.57.016,arrow_simon_punish,2021.1.2,Win32,59.91252771,,,,,,,,,,,,,,w,1,1.5852,1.929292381,0,5,10,0,40,3,1,,,,,,,,,,,,,,
,,,,,,,,,,,right.png,,p,right,6171d8d0854fad3442e253a3,2021-10-21_22h49.57.016,arrow_simon_punish,2021.1.2,Win32,59.91252771,,,,,,,,,,,,,,p,1,1.6722,1.991784894,1,5,10,1,41,1,1,,,,,,,,,,,,,,
,,,,,,,,,,,left.png,,w,right,6171d8d0854fad3442e253a3,2021-10-21_22h49.57.016,arrow_simon_punish,2021.1.2,Win32,59.91252771,,,,,,,,,,,,,,w,1,1.9352,1.967612132,1,5,10,2,42,3,1,,,,,,,,,,,,,,
,,,,,,,,,,,right.png,,p,right,6171d8d0854fad3442e253a3,2021-10-21_22h49.57.016,arrow_simon_punish,2021.1.2,Win32,59.91252771,,,,,,,,,,,,,,p,1,1.3039,1.685412274,1,5,10,3,43,1,1,,,,,,,,,,,,,,
,,,,,,,,,,,left.png,,w,left,6171d8d0854fad3442e253a3,2021-10-21_22h49.57.016,arrow_simon_punish,2021.1.2,Win32,59.91252771,,,,,,,,,,,,,,w,1,1.9193,2.209371958,1,5,11,0,44,2,1,,,,,,,,,,,,,,
,,,,,,,,,,,right.png,,p,left,6171d8d0854fad3442e253a3,2021-10-21_22h49.57.016,arrow_simon_punish,2021.1.2,Win32,59.91252771,,,,,,,,,,,,,,p,1,1.5697,1.933898943,0,5,11,1,45,0,1,,,,,,,,,,,,,,
,,,,,,,,,,,left.png,,w,right,6171d8d0854fad3442e253a3,2021-10-21_22h49.57.016,arrow_simon_punish,2021.1.2,Win32,59.91252771,,,,,,,,,,,,,,w,1,2.0523,2.286890137,1,5,11,2,46,3,1,,,,,,,,,,,,,,
,,,,,,,,,,,left.png,,w,left,6171d8d0854fad3442e253a3,2021-10-21_22h49.57.016,arrow_simon_punish,2021.1.2,Win32,59.91252771,,,,,,,,,,,,,,w,1,1.6242,2.006780867,1,5,11,3,47,2,1,,,,,,,,,,,,,,
,,,,,,,,,,,right.png,,p,right,6171d8d0854fad3442e253a3,2021-10-21_22h49.57.016,arrow_simon_punish,2021.1.2,Win32,59.91252771,,,,,,,,,,,,,,p,1,1.7687,2.072464291,1,5,12,0,48,1,1,,,,,,,,,,,,,,
,,,,,,,,,,,right.png,,p,right,6171d8d0854fad3442e253a3,2021-10-21_22h49.57.016,arrow_simon_punish,2021.1.2,Win32,59.91252771,,,,,,,,,,,,,,p,1,2.219,2.431740198,1,5,12,1,49,1,1,,,,,,,,,,,,,,
,,,,,,,,,,,left.png,,w,right,6171d8d0854fad3442e253a3,2021-10-21_22h49.57.016,arrow_simon_punish,2021.1.2,Win32,59.91252771,,,,,,,,,,,,,,w,1,2.1364,2.480790814,1,5,12,2,50,3,1,,,,,,,,,,,,,,
,,,,,,,,,,,left.png,,w,right,6171d8d0854fad3442e253a3,2021-10-21_22h49.57.016,arrow_simon_punish,2021.1.2,Win32,59.91252771,,,,,,,,,,,,,,w,1,1.6403,1.900055996,1,5,12,3,51,3,1,,,,,,,,,,,,,,
,,,,,,,,,,,right.png,,p,right,6171d8d0854fad3442e253a3,2021-10-21_22h49.57.016,arrow_simon_punish,2021.1.2,Win32,59.91252771,,,,,,,,,,,,,,p,1,2.0527,2.432214365,1,5,13,0,52,1,1,,,,,,,,,,,,,,
,,,,,,,,,,,left.png,,w,right,6171d8d0854fad3442e253a3,2021-10-21_22h49.57.016,arrow_simon_punish,2021.1.2,Win32,59.91252771,,,,,,,,,,,,,,w,1,2.2022,2.387702619,1,5,13,1,53,3,1,,,,,,,,,,,,,,
,,,,,,,,,,,right.png,,p,right,6171d8d0854fad3442e253a3,2021-10-21_22h49.57.016,arrow_simon_punish,2021.1.2,Win32,59.91252771,,,,,,,,,,,,,,p,1,1.6721,2.270762229,1,5,13,2,54,1,1,,,,,,,,,,,,,,
,,,,,,,,,,,right.png,,p,right,6171d8d0854fad3442e253a3,2021-10-21_22h49.57.016,arrow_simon_punish,2021.1.2,Win32,59.91252771,,,,,,,,,,,,,,p,1,1.2804,1.753088347,1,5,13,3,55,1,1,,,,,,,,,,,,,,
,,,,,,,,,,,left.png,,w,left,6171d8d0854fad3442e253a3,2021-10-21_22h49.57.016,arrow_simon_punish,2021.1.2,Win32,59.91252771,,,,,,,,,,,,,,w,1,1.9065,2.078000978,1,5,14,0,56,2,1,,,,,,,,,,,,,,
,,,,,,,,,,,left.png,,w,right,6171d8d0854fad3442e253a3,2021-10-21_22h49.57.016,arrow_simon_punish,2021.1.2,Win32,59.91252771,,,,,,,,,,,,,,p,0,2.1043,2.195757377,1,5,14,1,57,3,1,,,,,,,,,,,,,,
,,,,,,,,,,,right.png,,p,left,6171d8d0854fad3442e253a3,2021-10-21_22h49.57.016,arrow_simon_punish,2021.1.2,Win32,59.91252771,,,,,,,,,,,,,,p,1,2.1569,2.478186268,1,5,14,2,58,0,1,,,,,,,,,,,,,,
,,,,,,,,,,,right.png,,p,left,6171d8d0854fad3442e253a3,2021-10-21_22h49.57.016,arrow_simon_punish,2021.1.2,Win32,59.91252771,,,,,,,,,,,,,,p,1,1.6775,2.018723543,1,5,14,3,59,0,1,,,,,,,,,,,,,,
,,,,,,,,,,,,,,,6171d8d0854fad3442e253a3,2021-10-21_22h49.57.016,arrow_simon_punish,2021.1.2,Win32,59.91252771,,,,,,,,,,,,,,,,,,,,,,,,,space,10.6,3,0,1,1,1,1,5,,,,,
,,,,,,,,,,,left.png,,w,left,6171d8d0854fad3442e253a3,2021-10-21_22h49.57.016,arrow_simon_punish,2021.1.2,Win32,59.91252771,,,,,,,,,,,,,,w,1,1.3683,1.794641589,1,1,0,0,0,2,1,,,,,,,,,,,,,,
,,,,,,,,,,,left.png,,w,right,6171d8d0854fad3442e253a3,2021-10-21_22h49.57.016,arrow_simon_punish,2021.1.2,Win32,59.91252771,,,,,,,,,,,,,,w,1,1.1451,1.531239182,1,1,0,1,1,3,1,,,,,,,,,,,,,,
,,,,,,,,,,,right.png,,p,left,6171d8d0854fad3442e253a3,2021-10-21_22h49.57.016,arrow_simon_punish,2021.1.2,Win32,59.91252771,,,,,,,,,,,,,,p,1,1.118,1.531953231,1,1,0,2,2,0,1,,,,,,,,,,,,,,
,,,,,,,,,,,right.png,,p,right,6171d8d0854fad3442e253a3,2021-10-21_22h49.57.016,arrow_simon_punish,2021.1.2,Win32,59.91252771,,,,,,,,,,,,,,p,1,2.0022,2.389036236,1,1,0,3,3,1,1,,,,,,,,,,,,,,
,,,,,,,,,,,left.png,,w,right,6171d8d0854fad3442e253a3,2021-10-21_22h49.57.016,arrow_simon_punish,2021.1.2,Win32,59.91252771,,,,,,,,,,,,,,w,1,1.8819,2.199244441,1,1,1,0,4,3,1,,,,,,,,,,,,,,
,,,,,,,,,,,right.png,,p,left,6171d8d0854fad3442e253a3,2021-10-21_22h49.57.016,arrow_simon_punish,2021.1.2,Win32,59.91252771,,,,,,,,,,,,,,p,1,1.4355,1.81775657,0,1,1,1,5,0,1,,,,,,,,,,,,,,
,,,,,,,,,,,right.png,,p,left,6171d8d0854fad3442e253a3,2021-10-21_22h49.57.016,arrow_simon_punish,2021.1.2,Win32,59.91252771,,,,,,,,,,,,,,p,1,1.3108,1.707328134,1,1,1,2,6,0,1,,,,,,,,,,,,,,
,,,,,,,,,,,right.png,,p,left,6171d8d0854fad3442e253a3,2021-10-21_22h49.57.016,arrow_simon_punish,2021.1.2,Win32,59.91252771,,,,,,,,,,,,,,p,1,1.4683,2.005916156,0,1,1,3,7,0,1,,,,,,,,,,,,,,
,,,,,,,,,,,left.png,,w,left,6171d8d0854fad3442e253a3,2021-10-21_22h49.57.016,arrow_simon_punish,2021.1.2,Win32,59.91252771,,,,,,,,,,,,,,w,1,2.2246,2.448959385,1,1,2,0,8,2,1,,,,,,,,,,,,,,
,,,,,,,,,,,right.png,,p,left,6171d8d0854fad3442e253a3,2021-10-21_22h49.57.016,arrow_simon_punish,2021.1.2,Win32,59.91252771,,,,,,,,,,,,,,p,1,1.9691,2.422718334,1,1,2,1,9,0,1,,,,,,,,,,,,,,
,,,,,,,,,,,right.png,,p,right,6171d8d0854fad3442e253a3,2021-10-21_22h49.57.016,arrow_simon_punish,2021.1.2,Win32,59.91252771,,,,,,,,,,,,,,p,1,1.7697,2.216474942,1,1,2,2,10,1,1,,,,,,,,,,,,,,
,,,,,,,,,,,left.png,,w,left,6171d8d0854fad3442e253a3,2021-10-21_22h49.57.016,arrow_simon_punish,2021.1.2,Win32,59.91252771,,,,,,,,,,,,,,w,1,1.7019,1.877046132,1,1,2,3,11,2,1,,,,,,,,,,,,,,
,,,,,,,,,,,left.png,,w,left,6171d8d0854fad3442e253a3,2021-10-21_22h49.57.016,arrow_simon_punish,2021.1.2,Win32,59.91252771,,,,,,,,,,,,,,w,1,2.0859,2.456470499,1,1,3,0,12,2,1,,,,,,,,,,,,,,
,,,,,,,,,,,left.png,,w,left,6171d8d0854fad3442e253a3,2021-10-21_22h49.57.016,arrow_simon_punish,2021.1.2,Win32,59.91252771,,,,,,,,,,,,,,w,1,1.8675,2.349660649,1,1,3,1,13,2,1,,,,,,,,,,,,,,
,,,,,,,,,,,left.png,,w,left,6171d8d0854fad3442e253a3,2021-10-21_22h49.57.016,arrow_simon_punish,2021.1.2,Win32,59.91252771,,,,,,,,,,,,,,w,1,1.0525,1.511497534,1,1,3,2,14,2,1,,,,,,,,,,,,,,
,,,,,,,,,,,left.png,,w,right,6171d8d0854fad3442e253a3,2021-10-21_22h49.57.016,arrow_simon_punish,2021.1.2,Win32,59.91252771,,,,,,,,,,,,,,w,1,1.7519,1.891575366,1,1,3,3,15,3,1,,,,,,,,,,,,,,
,,,,,,,,,,,right.png,,p,right,6171d8d0854fad3442e253a3,2021-10-21_22h49.57.016,arrow_simon_punish,2021.1.2,Win32,59.91252771,,,,,,,,,,,,,,p,1,1.719,2.053988258,1,1,4,0,16,1,1,,,,,,,,,,,,,,
,,,,,,,,,,,left.png,,w,left,6171d8d0854fad3442e253a3,2021-10-21_22h49.57.016,arrow_simon_punish,2021.1.2,Win32,59.91252771,,,,,,,,,,,,,,w,1,1.2355,1.613968477,1,1,4,1,17,2,1,,,,,,,,,,,,,,
,,,,,,,,,,,right.png,,p,right,6171d8d0854fad3442e253a3,2021-10-21_22h49.57.016,arrow_simon_punish,2021.1.2,Win32,59.91252771,,,,,,,,,,,,,,p,1,1.6193,2.122431739,1,1,4,2,18,1,1,,,,,,,,,,,,,,
,,,,,,,,,,,right.png,,p,right,6171d8d0854fad3442e253a3,2021-10-21_22h49.57.016,arrow_simon_punish,2021.1.2,Win32,59.91252771,,,,,,,,,,,,,,p,1,1.2219,1.79741404,1,1,4,3,19,1,1,,,,,,,,,,,,,,
,,,,,,,,,,,right.png,,p,right,6171d8d0854fad3442e253a3,2021-10-21_22h49.57.016,arrow_simon_punish,2021.1.2,Win32,59.91252771,,,,,,,,,,,,,,p,1,1.1079,1.607266005,1,1,5,0,20,1,1,,,,,,,,,,,,,,
,,,,,,,,,,,right.png,,p,left,6171d8d0854fad3442e253a3,2021-10-21_22h49.57.016,arrow_simon_punish,2021.1.2,Win32,59.91252771,,,,,,,,,,,,,,p,1,1.8245,2.198971032,1,1,5,1,21,0,1,,,,,,,,,,,,,,
,,,,,,,,,,,right.png,,p,left,6171d8d0854fad3442e253a3,2021-10-21_22h49.57.016,arrow_simon_punish,2021.1.2,Win32,59.91252771,,,,,,,,,,,,,,p,1,1.2611,1.647724905,1,1,5,2,22,0,1,,,,,,,,,,,,,,
,,,,,,,,,,,right.png,,p,right,6171d8d0854fad3442e253a3,2021-10-21_22h49.57.016,arrow_simon_punish,2021.1.2,Win32,59.91252771,,,,,,,,,,,,,,p,1,1.4334,2.008991764,0,1,5,3,23,1,1,,,,,,,,,,,,,,
,,,,,,,,,,,left.png,,w,right,6171d8d0854fad3442e253a3,2021-10-21_22h49.57.016,arrow_simon_punish,2021.1.2,Win32,59.91252771,,,,,,,,,,,,,,p,0,1.7025,2.269242315,1,1,6,0,24,3,1,,,,,,,,,,,,,,
,,,,,,,,,,,right.png,,p,left,6171d8d0854fad3442e253a3,2021-10-21_22h49.57.016,arrow_simon_punish,2021.1.2,Win32,59.91252771,,,,,,,,,,,,,,p,1,2.4109,2.126419405,1,1,6,1,25,0,1,,,,,,,,,,,,,,
,,,,,,,,,,,left.png,,w,left,6171d8d0854fad3442e253a3,2021-10-21_22h49.57.016,arrow_simon_punish,2021.1.2,Win32,59.91252771,,,,,,,,,,,,,,w,1,2.0395,2.380394697,1,1,6,2,26,2,1,,,,,,,,,,,,,,
,,,,,,,,,,,left.png,,w,right,6171d8d0854fad3442e253a3,2021-10-21_22h49.57.016,arrow_simon_punish,2021.1.2,Win32,59.91252771,,,,,,,,,,,,,,p,0,2.2343,2.480529395,1,1,6,3,27,3,1,,,,,,,,,,,,,,
,,,,,,,,,,,right.png,,p,left,6171d8d0854fad3442e253a3,2021-10-21_22h49.57.016,arrow_simon_punish,2021.1.2,Win32,59.91252771,,,,,,,,,,,,,,p,1,1.9363,2.275411907,1,1,7,0,28,0,1,,,,,,,,,,,,,,
,,,,,,,,,,,left.png,,w,left,6171d8d0854fad3442e253a3,2021-10-21_22h49.57.016,arrow_simon_punish,2021.1.2,Win32,59.91252771,,,,,,,,,,,,,,w,1,1.9526,2.368937388,1,1,7,1,29,2,1,,,,,,,,,,,,,,
,,,,,,,,,,,right.png,,p,left,6171d8d0854fad3442e253a3,2021-10-21_22h49.57.016,arrow_simon_punish,2021.1.2,Win32,59.91252771,,,,,,,,,,,,,,p,1,2.2192,2.36681265,1,1,7,2,30,0,1,,,,,,,,,,,,,,
,,,,,,,,,,,left.png,,w,right,6171d8d0854fad3442e253a3,2021-10-21_22h49.57.016,arrow_simon_punish,2021.1.2,Win32,59.91252771,,,,,,,,,,,,,,w,1,2.1571,2.444981065,1,1,7,3,31,3,1,,,,,,,,,,,,,,
,,,,,,,,,,,left.png,,w,left,6171d8d0854fad3442e253a3,2021-10-21_22h49.57.016,arrow_simon_punish,2021.1.2,Win32,59.91252771,,,,,,,,,,,,,,w,1,2.1976,2.149745822,1,1,8,0,32,2,1,,,,,,,,,,,,,,
,,,,,,,,,,,right.png,,p,right,6171d8d0854fad3442e253a3,2021-10-21_22h49.57.016,arrow_simon_punish,2021.1.2,Win32,59.91252771,,,,,,,,,,,,,,p,1,1.0682,1.529803502,1,1,8,1,33,1,1,,,,,,,,,,,,,,
,,,,,,,,,,,left.png,,w,left,6171d8d0854fad3442e253a3,2021-10-21_22h49.57.016,arrow_simon_punish,2021.1.2,Win32,59.91252771,,,,,,,,,,,,,,w,1,1.2889,1.759557912,1,1,8,2,34,2,1,,,,,,,,,,,,,,
,,,,,,,,,,,right.png,,p,left,6171d8d0854fad3442e253a3,2021-10-21_22h49.57.016,arrow_simon_punish,2021.1.2,Win32,59.91252771,,,,,,,,,,,,,,p,1,2.0352,2.474467451,1,1,8,3,35,0,1,,,,,,,,,,,,,,
,,,,,,,,,,,left.png,,w,right,6171d8d0854fad3442e253a3,2021-10-21_22h49.57.016,arrow_simon_punish,2021.1.2,Win32,59.91252771,,,,,,,,,,,,,,w,1,1.2359,1.589379706,1,1,9,0,36,3,1,,,,,,,,,,,,,,
,,,,,,,,,,,right.png,,p,left,6171d8d0854fad3442e253a3,2021-10-21_22h49.57.016,arrow_simon_punish,2021.1.2,Win32,59.91252771,,,,,,,,,,,,,,p,1,1.187,1.69743811,1,1,9,1,37,0,1,,,,,,,,,,,,,,
,,,,,,,,,,,right.png,,p,left,6171d8d0854fad3442e253a3,2021-10-21_22h49.57.016,arrow_simon_punish,2021.1.2,Win32,59.91252771,,,,,,,,,,,,,,p,1,1.519,1.867410866,0,1,9,2,38,0,1,,,,,,,,,,,,,,
,,,,,,,,,,,right.png,,p,right,6171d8d0854fad3442e253a3,2021-10-21_22h49.57.016,arrow_simon_punish,2021.1.2,Win32,59.91252771,,,,,,,,,,,,,,p,1,1.0687,1.529085434,1,1,9,3,39,1,1,,,,,,,,,,,,,,
,,,,,,,,,,,left.png,,w,right,6171d8d0854fad3442e253a3,2021-10-21_22h49.57.016,arrow_simon_punish,2021.1.2,Win32,59.91252771,,,,,,,,,,,,,,w,1,1.6843,2.019201487,1,1,10,0,40,3,1,,,,,,,,,,,,,,
,,,,,,,,,,,left.png,,w,right,6171d8d0854fad3442e253a3,2021-10-21_22h49.57.016,arrow_simon_punish,2021.1.2,Win32,59.91252771,,,,,,,,,,,,,,w,1,1.1642,1.730482712,1,1,10,1,41,3,1,,,,,,,,,,,,,,
,,,,,,,,,,,left.png,,w,right,6171d8d0854fad3442e253a3,2021-10-21_22h49.57.016,arrow_simon_punish,2021.1.2,Win32,59.91252771,,,,,,,,,,,,,,w,1,1.4355,1.802140243,0,1,10,2,42,3,1,,,,,,,,,,,,,,
,,,,,,,,,,,right.png,,p,left,6171d8d0854fad3442e253a3,2021-10-21_22h49.57.016,arrow_simon_punish,2021.1.2,Win32,59.91252771,,,,,,,,,,,,,,p,1,1.3619,1.751034614,1,1,10,3,43,0,1,,,,,,,,,,,,,,
,,,,,,,,,,,left.png,,w,right,6171d8d0854fad3442e253a3,2021-10-21_22h49.57.016,arrow_simon_punish,2021.1.2,Win32,59.91252771,,,,,,,,,,,,,,p,0,1.391,1.518092718,1,1,11,0,44,3,1,,,,,,,,,,,,,,
,,,,,,,,,,,left.png,,w,right,6171d8d0854fad3442e253a3,2021-10-21_22h49.57.016,arrow_simon_punish,2021.1.2,Win32,59.91252771,,,,,,,,,,,,,,w,1,2.1332,2.379179709,1,1,11,1,45,3,1,,,,,,,,,,,,,,
,,,,,,,,,,,right.png,,p,right,6171d8d0854fad3442e253a3,2021-10-21_22h49.57.016,arrow_simon_punish,2021.1.2,Win32,59.91252771,,,,,,,,,,,,,,p,1,2.1194,2.284835988,1,1,11,2,46,1,1,,,,,,,,,,,,,,
,,,,,,,,,,,right.png,,p,right,6171d8d0854fad3442e253a3,2021-10-21_22h49.57.016,arrow_simon_punish,2021.1.2,Win32,59.91252771,,,,,,,,,,,,,,p,1,1.1476,1.605422386,1,1,11,3,47,1,1,,,,,,,,,,,,,,
,,,,,,,,,,,left.png,,w,left,6171d8d0854fad3442e253a3,2021-10-21_22h49.57.016,arrow_simon_punish,2021.1.2,Win32,59.91252771,,,,,,,,,,,,,,w,1,1.5605,1.668071099,0,1,12,0,48,2,1,,,,,,,,,,,,,,
,,,,,,,,,,,right.png,,p,right,6171d8d0854fad3442e253a3,2021-10-21_22h49.57.016,arrow_simon_punish,2021.1.2,Win32,59.91252771,,,,,,,,,,,,,,p,1,1.5907,2.132141553,0,1,12,1,49,1,1,,,,,,,,,,,,,,
,,,,,,,,,,,left.png,,w,left,6171d8d0854fad3442e253a3,2021-10-21_22h49.57.016,arrow_simon_punish,2021.1.2,Win32,59.91252771,,,,,,,,,,,,,,w,1,2.1668,2.495953431,1,1,12,2,50,2,1,,,,,,,,,,,,,,
,,,,,,,,,,,left.png,,w,right,6171d8d0854fad3442e253a3,2021-10-21_22h49.57.016,arrow_simon_punish,2021.1.2,Win32,59.91252771,,,,,,,,,,,,,,p,0,1.5365,1.713911166,1,1,12,3,51,3,1,,,,,,,,,,,,,,
,,,,,,,,,,,left.png,,w,right,6171d8d0854fad3442e253a3,2021-10-21_22h49.57.016,arrow_simon_punish,2021.1.2,Win32,59.91252771,,,,,,,,,,,,,,w,1,1.5438,1.712149207,0,1,13,0,52,3,1,,,,,,,,,,,,,,
,,,,,,,,,,,right.png,,p,right,6171d8d0854fad3442e253a3,2021-10-21_22h49.57.016,arrow_simon_punish,2021.1.2,Win32,59.91252771,,,,,,,,,,,,,,p,1,1.5018,1.830175072,0,1,13,1,53,1,1,,,,,,,,,,,,,,
,,,,,,,,,,,left.png,,w,right,6171d8d0854fad3442e253a3,2021-10-21_22h49.57.016,arrow_simon_punish,2021.1.2,Win32,59.91252771,,,,,,,,,,,,,,w,1,2.1228,1.992783976,1,1,13,2,54,3,1,,,,,,,,,,,,,,
,,,,,,,,,,,left.png,,w,left,6171d8d0854fad3442e253a3,2021-10-21_22h49.57.016,arrow_simon_punish,2021.1.2,Win32,59.91252771,,,,,,,,,,,,,,w,1,1.3222,1.857251585,1,1,13,3,55,2,1,,,,,,,,,,,,,,
,,,,,,,,,,,left.png,,w,left,6171d8d0854fad3442e253a3,2021-10-21_22h49.57.016,arrow_simon_punish,2021.1.2,Win32,59.91252771,,,,,,,,,,,,,,w,1,1.9424,2.445470096,1,1,14,0,56,2,1,,,,,,,,,,,,,,
,,,,,,,,,,,right.png,,p,left,6171d8d0854fad3442e253a3,2021-10-21_22h49.57.016,arrow_simon_punish,2021.1.2,Win32,59.91252771,,,,,,,,,,,,,,p,1,1.1003,1.532395007,1,1,14,1,57,0,1,,,,,,,,,,,,,,
,,,,,,,,,,,right.png,,p,right,6171d8d0854fad3442e253a3,2021-10-21_22h49.57.016,arrow_simon_punish,2021.1.2,Win32,59.91252771,,,,,,,,,,,,,,p,1,1.8384,2.345847561,1,1,14,2,58,1,1,,,,,,,,,,,,,,
,,,,,,,,,,,right.png,,p,right,6171d8d0854fad3442e253a3,2021-10-21_22h49.57.016,arrow_simon_punish,2021.1.2,Win32,59.91252771,,,,,,,,,,,,,,p,1,1.2549,1.772923617,1,1,14,3,59,1,1,,,,,,,,,,,,,,
,,,,,,,,,,,,,,,6171d8d0854fad3442e253a3,2021-10-21_22h49.57.016,arrow_simon_punish,2021.1.2,Win32,59.91252771,,,,,,,,,,,,,,,,,,,,,,,,,space,7.4267,4,1,0,2,0,1,1,,,,,
,,,,,,,,,,,right.png,,p,right,6171d8d0854fad3442e253a3,2021-10-21_22h49.57.016,arrow_simon_punish,2021.1.2,Win32,59.91252771,,,,,,,,,,,,,,p,1,1.6355,2.176746152,1,5,0,0,0,1,1,,,,,,,,,,,,,,
,,,,,,,,,,,left.png,,w,right,6171d8d0854fad3442e253a3,2021-10-21_22h49.57.016,arrow_simon_punish,2021.1.2,Win32,59.91252771,,,,,,,,,,,,,,p,0,1.2969,1.882524305,1,5,0,1,1,3,1,,,,,,,,,,,,,,
,,,,,,,,,,,right.png,,p,right,6171d8d0854fad3442e253a3,2021-10-21_22h49.57.016,arrow_simon_punish,2021.1.2,Win32,59.91252771,,,,,,,,,,,,,,p,1,1.579,2.041838452,0,5,0,2,2,1,1,,,,,,,,,,,,,,
,,,,,,,,,,,left.png,,w,right,6171d8d0854fad3442e253a3,2021-10-21_22h49.57.016,arrow_simon_punish,2021.1.2,Win32,59.91252771,,,,,,,,,,,,,,w,1,1.4363,1.887183139,0,5,0,3,3,3,1,,,,,,,,,,,,,,
,,,,,,,,,,,right.png,,p,right,6171d8d0854fad3442e253a3,2021-10-21_22h49.57.016,arrow_simon_punish,2021.1.2,Win32,59.91252771,,,,,,,,,,,,,,p,1,1.9686,2.46232263,1,5,1,0,4,1,1,,,,,,,,,,,,,,
,,,,,,,,,,,right.png,,p,left,6171d8d0854fad3442e253a3,2021-10-21_22h49.57.016,arrow_simon_punish,2021.1.2,Win32,59.91252771,,,,,,,,,,,,,,w,0,1.8024,2.266334841,1,5,1,1,5,0,1,,,,,,,,,,,,,,
,,,,,,,,,,,right.png,,p,right,6171d8d0854fad3442e253a3,2021-10-21_22h49.57.016,arrow_simon_punish,2021.1.2,Win32,59.91252771,,,,,,,,,,,,,,p,1,1.0349,1.506217557,1,5,1,2,6,1,1,,,,,,,,,,,,,,
,,,,,,,,,,,right.png,,p,left,6171d8d0854fad3442e253a3,2021-10-21_22h49.57.016,arrow_simon_punish,2021.1.2,Win32,59.91252771,,,,,,,,,,,,,,p,1,1.552,2.035483911,0,5,1,3,7,0,1,,,,,,,,,,,,,,
,,,,,,,,,,,right.png,,p,left,6171d8d0854fad3442e253a3,2021-10-21_22h49.57.016,arrow_simon_punish,2021.1.2,Win32,59.91252771,,,,,,,,,,,,,,p,1,1.2776,1.796238958,1,5,2,0,8,0,1,,,,,,,,,,,,,,
,,,,,,,,,,,left.png,,w,left,6171d8d0854fad3442e253a3,2021-10-21_22h49.57.016,arrow_simon_punish,2021.1.2,Win32,59.91252771,,,,,,,,,,,,,,w,1,1.9111,2.320867428,1,5,2,1,9,2,1,,,,,,,,,,,,,,
,,,,,,,,,,,right.png,,p,right,6171d8d0854fad3442e253a3,2021-10-21_22h49.57.016,arrow_simon_punish,2021.1.2,Win32,59.91252771,,,,,,,,,,,,,,p,1,1.1853,1.779856398,1,5,2,2,10,1,1,,,,,,,,,,,,,,
,,,,,,,,,,,right.png,,p,left,6171d8d0854fad3442e253a3,2021-10-21_22h49.57.016,arrow_simon_punish,2021.1.2,Win32,59.91252771,,,,,,,,,,,,,,p,1,1.8183,2.236373955,1,5,2,3,11,0,1,,,,,,,,,,,,,,
,,,,,,,,,,,right.png,,p,right,6171d8d0854fad3442e253a3,2021-10-21_22h49.57.016,arrow_simon_punish,2021.1.2,Win32,59.91252771,,,,,,,,,,,,,,p,1,1.8521,2.465639619,1,5,3,0,12,1,1,,,,,,,,,,,,,,
,,,,,,,,,,,left.png,,w,left,6171d8d0854fad3442e253a3,2021-10-21_22h49.57.016,arrow_simon_punish,2021.1.2,Win32,59.91252771,,,,,,,,,,,,,,w,1,1.8025,2.329716135,1,5,3,1,13,2,1,,,,,,,,,,,,,,
,,,,,,,,,,,left.png,,w,left,6171d8d0854fad3442e253a3,2021-10-21_22h49.57.016,arrow_simon_punish,2021.1.2,Win32,59.91252771,,,,,,,,,,,,,,w,1,1.3897,1.903816614,1,5,3,2,14,2,1,,,,,,,,,,,,,,
,,,,,,,,,,,left.png,,w,right,6171d8d0854fad3442e253a3,2021-10-21_22h49.57.016,arrow_simon_punish,2021.1.2,Win32,59.91252771,,,,,,,,,,,,,,w,1,1.4355,1.943897473,0,5,3,3,15,3,1,,,,,,,,,,,,,,
,,,,,,,,,,,left.png,,w,right,6171d8d0854fad3442e253a3,2021-10-21_22h49.57.016,arrow_simon_punish,2021.1.2,Win32,59.91252771,,,,,,,,,,,,,,p,0,1.7022,2.302956224,1,5,4,0,16,3,1,,,,,,,,,,,,,,
,,,,,,,,,,,right.png,,p,left,6171d8d0854fad3442e253a3,2021-10-21_22h49.57.016,arrow_simon_punish,2021.1.2,Win32,59.91252771,,,,,,,,,,,,,,p,1,1.3339,1.685987364,1,5,4,1,17,0,1,,,,,,,,,,,,,,
,,,,,,,,,,,right.png,,p,right,6171d8d0854fad3442e253a3,2021-10-21_22h49.57.016,arrow_simon_punish,2021.1.2,Win32,59.91252771,,,,,,,,,,,,,,p,1,1.2185,1.61327846,1,5,4,2,18,1,1,,,,,,,,,,,,,,
,,,,,,,,,,,right.png,,p,left,6171d8d0854fad3442e253a3,2021-10-21_22h49.57.016,arrow_simon_punish,2021.1.2,Win32,59.91252771,,,,,,,,,,,,,,p,1,1.4187,1.678487437,0,5,4,3,19,0,1,,,,,,,,,,,,,,
,,,,,,,,,,,left.png,,w,left,6171d8d0854fad3442e253a3,2021-10-21_22h49.57.016,arrow_simon_punish,2021.1.2,Win32,59.91252771,,,,,,,,,,,,,,w,1,1.4124,1.878186305,0,5,5,0,20,2,1,,,,,,,,,,,,,,
,,,,,,,,,,,right.png,,p,left,6171d8d0854fad3442e253a3,2021-10-21_22h49.57.016,arrow_simon_punish,2021.1.2,Win32,59.91252771,,,,,,,,,,,,,,w,0,1.8171,2.270453728,1,5,5,1,21,0,1,,,,,,,,,,,,,,
,,,,,,,,,,,left.png,,w,left,6171d8d0854fad3442e253a3,2021-10-21_22h49.57.016,arrow_simon_punish,2021.1.2,Win32,59.91252771,,,,,,,,,,,,,,p,0,2.2397,2.461346548,1,5,5,2,22,2,1,,,,,,,,,,,,,,
,,,,,,,,,,,right.png,,p,left,6171d8d0854fad3442e253a3,2021-10-21_22h49.57.016,arrow_simon_punish,2021.1.2,Win32,59.91252771,,,,,,,,,,,,,,p,1,1.3024,1.594423945,1,5,5,3,23,0,1,,,,,,,,,,,,,,
,,,,,,,,,,,right.png,,p,right,6171d8d0854fad3442e253a3,2021-10-21_22h49.57.016,arrow_simon_punish,2021.1.2,Win32,59.91252771,,,,,,,,,,,,,,p,1,1.4899,1.977408483,0,5,6,0,24,1,1,,,,,,,,,,,,,,
,,,,,,,,,,,left.png,,w,left,6171d8d0854fad3442e253a3,2021-10-21_22h49.57.016,arrow_simon_punish,2021.1.2,Win32,59.91252771,,,,,,,,,,,,,,w,1,1.2985,1.555381686,1,5,6,1,25,2,1,,,,,,,,,,,,,,
,,,,,,,,,,,left.png,,w,left,6171d8d0854fad3442e253a3,2021-10-21_22h49.57.016,arrow_simon_punish,2021.1.2,Win32,59.91252771,,,,,,,,,,,,,,w,1,1.2684,1.804725173,1,5,6,2,26,2,1,,,,,,,,,,,,,,
,,,,,,,,,,,right.png,,p,left,6171d8d0854fad3442e253a3,2021-10-21_22h49.57.016,arrow_simon_punish,2021.1.2,Win32,59.91252771,,,,,,,,,,,,,,w,0,1.6521,2.164191098,1,5,6,3,27,0,1,,,,,,,,,,,,,,
,,,,,,,,,,,right.png,,p,left,6171d8d0854fad3442e253a3,2021-10-21_22h49.57.016,arrow_simon_punish,2021.1.2,Win32,59.91252771,,,,,,,,,,,,,,p,1,1.7518,2.062585993,1,5,7,0,28,0,1,,,,,,,,,,,,,,
,,,,,,,,,,,left.png,,w,right,6171d8d0854fad3442e253a3,2021-10-21_22h49.57.016,arrow_simon_punish,2021.1.2,Win32,59.91252771,,,,,,,,,,,,,,w,1,1.8166,1.989965362,1,5,7,1,29,3,1,,,,,,,,,,,,,,
,,,,,,,,,,,left.png,,w,right,6171d8d0854fad3442e253a3,2021-10-21_22h49.57.016,arrow_simon_punish,2021.1.2,Win32,59.91252771,,,,,,,,,,,,,,w,1,2.0524,2.310965286,1,5,7,2,30,3,1,,,,,,,,,,,,,,
,,,,,,,,,,,left.png,,w,left,6171d8d0854fad3442e253a3,2021-10-21_22h49.57.016,arrow_simon_punish,2021.1.2,Win32,59.91252771,,,,,,,,,,,,,,w,1,2.1922,2.487727226,1,5,7,3,31,2,1,,,,,,,,,,,,,,
,,,,,,,,,,,left.png,,w,right,6171d8d0854fad3442e253a3,2021-10-21_22h49.57.016,arrow_simon_punish,2021.1.2,Win32,59.91252771,,,,,,,,,,,,,,w,1,1.3639,1.677770031,1,5,8,0,32,3,1,,,,,,,,,,,,,,
,,,,,,,,,,,right.png,,p,left,6171d8d0854fad3442e253a3,2021-10-21_22h49.57.016,arrow_simon_punish,2021.1.2,Win32,59.91252771,,,,,,,,,,,,,,p,1,1.2856,1.648666889,1,5,8,1,33,0,1,,,,,,,,,,,,,,
,,,,,,,,,,,left.png,,w,right,6171d8d0854fad3442e253a3,2021-10-21_22h49.57.016,arrow_simon_punish,2021.1.2,Win32,59.91252771,,,,,,,,,,,,,,w,1,1.1885,1.524198065,1,5,8,2,34,3,1,,,,,,,,,,,,,,
,,,,,,,,,,,right.png,,p,right,6171d8d0854fad3442e253a3,2021-10-21_22h49.57.016,arrow_simon_punish,2021.1.2,Win32,59.91252771,,,,,,,,,,,,,,p,1,1.5351,1.858280917,0,5,8,3,35,1,1,,,,,,,,,,,,,,
,,,,,,,,,,,right.png,,p,right,6171d8d0854fad3442e253a3,2021-10-21_22h49.57.016,arrow_simon_punish,2021.1.2,Win32,59.91252771,,,,,,,,,,,,,,p,1,1.4795,1.938700012,0,5,9,0,36,1,1,,,,,,,,,,,,,,
,,,,,,,,,,,right.png,,p,left,6171d8d0854fad3442e253a3,2021-10-21_22h49.57.016,arrow_simon_punish,2021.1.2,Win32,59.91252771,,,,,,,,,,,,,,p,1,1.8194,2.292407426,1,5,9,1,37,0,1,,,,,,,,,,,,,,
,,,,,,,,,,,left.png,,w,left,6171d8d0854fad3442e253a3,2021-10-21_22h49.57.016,arrow_simon_punish,2021.1.2,Win32,59.91252771,,,,,,,,,,,,,,w,1,1.7949,2.09996688,1,5,9,2,38,2,1,,,,,,,,,,,,,,
,,,,,,,,,,,right.png,,p,left,6171d8d0854fad3442e253a3,2021-10-21_22h49.57.016,arrow_simon_punish,2021.1.2,Win32,59.91252771,,,,,,,,,,,,,,w,0,1.4521,1.655665938,1,5,9,3,39,0,1,,,,,,,,,,,,,,
,,,,,,,,,,,right.png,,p,left,6171d8d0854fad3442e253a3,2021-10-21_22h49.57.016,arrow_simon_punish,2021.1.2,Win32,59.91252771,,,,,,,,,,,,,,p,1,1.1523,1.586431049,1,5,10,0,40,0,1,,,,,,,,,,,,,,
,,,,,,,,,,,left.png,,w,left,6171d8d0854fad3442e253a3,2021-10-21_22h49.57.016,arrow_simon_punish,2021.1.2,Win32,59.91252771,,,,,,,,,,,,,,w,1,1.3359,1.745021481,1,5,10,1,41,2,1,,,,,,,,,,,,,,
,,,,,,,,,,,right.png,,p,right,6171d8d0854fad3442e253a3,2021-10-21_22h49.57.016,arrow_simon_punish,2021.1.2,Win32,59.91252771,,,,,,,,,,,,,,p,1,1.8589,2.39739256,1,5,10,2,42,1,1,,,,,,,,,,,,,,
,,,,,,,,,,,left.png,,w,right,6171d8d0854fad3442e253a3,2021-10-21_22h49.57.016,arrow_simon_punish,2021.1.2,Win32,59.91252771,,,,,,,,,,,,,,w,1,1.418,1.681315802,0,5,10,3,43,3,1,,,,,,,,,,,,,,
,,,,,,,,,,,left.png,,w,left,6171d8d0854fad3442e253a3,2021-10-21_22h49.57.016,arrow_simon_punish,2021.1.2,Win32,59.91252771,,,,,,,,,,,,,,w,1,1.4087,1.907942023,0,5,11,0,44,2,1,,,,,,,,,,,,,,
,,,,,,,,,,,left.png,,w,right,6171d8d0854fad3442e253a3,2021-10-21_22h49.57.016,arrow_simon_punish,2021.1.2,Win32,59.91252771,,,,,,,,,,,,,,w,1,1.4022,1.901037198,0,5,11,1,45,3,1,,,,,,,,,,,,,,
,,,,,,,,,,,right.png,,p,right,6171d8d0854fad3442e253a3,2021-10-21_22h49.57.016,arrow_simon_punish,2021.1.2,Win32,59.91252771,,,,,,,,,,,,,,p,1,1.7599,2.353818005,1,5,11,2,46,1,1,,,,,,,,,,,,,,
,,,,,,,,,,,left.png,,w,right,6171d8d0854fad3442e253a3,2021-10-21_22h49.57.016,arrow_simon_punish,2021.1.2,Win32,59.91252771,,,,,,,,,,,,,,w,1,1.2692,1.687158077,1,5,11,3,47,3,1,,,,,,,,,,,,,,
,,,,,,,,,,,left.png,,w,right,6171d8d0854fad3442e253a3,2021-10-21_22h49.57.016,arrow_simon_punish,2021.1.2,Win32,59.91252771,,,,,,,,,,,,,,w,1,1.5183,1.962825975,0,5,12,0,48,3,1,,,,,,,,,,,,,,
,,,,,,,,,,,right.png,,p,right,6171d8d0854fad3442e253a3,2021-10-21_22h49.57.016,arrow_simon_punish,2021.1.2,Win32,59.91252771,,,,,,,,,,,,,,p,1,1.4339,1.852563621,0,5,12,1,49,1,1,,,,,,,,,,,,,,
,,,,,,,,,,,left.png,,w,left,6171d8d0854fad3442e253a3,2021-10-21_22h49.57.016,arrow_simon_punish,2021.1.2,Win32,59.91252771,,,,,,,,,,,,,,w,1,2.0014,2.486915208,1,5,12,2,50,2,1,,,,,,,,,,,,,,
,,,,,,,,,,,right.png,,p,right,6171d8d0854fad3442e253a3,2021-10-21_22h49.57.016,arrow_simon_punish,2021.1.2,Win32,59.91252771,,,,,,,,,,,,,,p,1,1.621,2.167499251,1,5,12,3,51,1,1,,,,,,,,,,,,,,
,,,,,,,,,,,left.png,,w,right,6171d8d0854fad3442e253a3,2021-10-21_22h49.57.016,arrow_simon_punish,2021.1.2,Win32,59.91252771,,,,,,,,,,,,,,w,1,1.7639,2.130720665,1,5,13,0,52,3,1,,,,,,,,,,,,,,
,,,,,,,,,,,left.png,,w,left,6171d8d0854fad3442e253a3,2021-10-21_22h49.57.016,arrow_simon_punish,2021.1.2,Win32,59.91252771,,,,,,,,,,,,,,w,1,1.2276,1.683215048,1,5,13,1,53,2,1,,,,,,,,,,,,,,
,,,,,,,,,,,left.png,,w,right,6171d8d0854fad3442e253a3,2021-10-21_22h49.57.016,arrow_simon_punish,2021.1.2,Win32,59.91252771,,,,,,,,,,,,,,w,1,1.346,1.512868306,1,5,13,2,54,3,1,,,,,,,,,,,,,,
,,,,,,,,,,,left.png,,w,left,6171d8d0854fad3442e253a3,2021-10-21_22h49.57.016,arrow_simon_punish,2021.1.2,Win32,59.91252771,,,,,,,,,,,,,,w,1,1.6856,2.252074637,1,5,13,3,55,2,1,,,,,,,,,,,,,,
,,,,,,,,,,,left.png,,w,left,6171d8d0854fad3442e253a3,2021-10-21_22h49.57.016,arrow_simon_punish,2021.1.2,Win32,59.91252771,,,,,,,,,,,,,,w,1,1.6855,2.173075259,1,5,14,0,56,2,1,,,,,,,,,,,,,,
,,,,,,,,,,,right.png,,p,right,6171d8d0854fad3442e253a3,2021-10-21_22h49.57.016,arrow_simon_punish,2021.1.2,Win32,59.91252771,,,,,,,,,,,,,,p,1,1.6686,1.848110105,1,5,14,1,57,1,1,,,,,,,,,,,,,,
,,,,,,,,,,,left.png,,w,right,6171d8d0854fad3442e253a3,2021-10-21_22h49.57.016,arrow_simon_punish,2021.1.2,Win32,59.91252771,,,,,,,,,,,,,,w,1,1.7427,2.019359032,1,5,14,2,58,3,1,,,,,,,,,,,,,,
,,,,,,,,,,,right.png,,p,left,6171d8d0854fad3442e253a3,2021-10-21_22h49.57.016,arrow_simon_punish,2021.1.2,Win32,59.91252771,,,,,,,,,,,,,,p,1,1.836,2.281217162,1,5,14,3,59,0,1,,,,,,,,,,,,,,
,,,,,,,,,,,,,,,6171d8d0854fad3442e253a3,2021-10-21_22h49.57.016,arrow_simon_punish,2021.1.2,Win32,59.91252771,,,,,,,,,,,,,,,,,,,,,,,,,space,14.1929,5,1,1,3,1,1,5,,,,,
,,,,,,,,,,,left.png,,w,right,6171d8d0854fad3442e253a3,2021-10-21_22h49.57.016,arrow_simon_punish,2021.1.2,Win32,59.91252771,,,,,,,,,,,,,,w,1,1.1889,1.646575941,1,1,0,0,0,3,1,,,,,,,,,,,,,,
,,,,,,,,,,,right.png,,p,left,6171d8d0854fad3442e253a3,2021-10-21_22h49.57.016,arrow_simon_punish,2021.1.2,Win32,59.91252771,,,,,,,,,,,,,,p,1,1.9203,2.201062326,1,1,0,1,1,0,1,,,,,,,,,,,,,,
,,,,,,,,,,,right.png,,p,left,6171d8d0854fad3442e253a3,2021-10-21_22h49.57.016,arrow_simon_punish,2021.1.2,Win32,59.91252771,,,,,,,,,,,,,,p,1,1.1605,1.691568604,1,1,0,2,2,0,1,,,,,,,,,,,,,,
,,,,,,,,,,,right.png,,p,left,6171d8d0854fad3442e253a3,2021-10-21_22h49.57.016,arrow_simon_punish,2021.1.2,Win32,59.91252771,,,,,,,,,,,,,,w,0,1.2092,1.771710195,1,1,0,3,3,0,1,,,,,,,,,,,,,,
,,,,,,,,,,,left.png,,w,left,6171d8d0854fad3442e253a3,2021-10-21_22h49.57.016,arrow_simon_punish,2021.1.2,Win32,59.91252771,,,,,,,,,,,,,,w,1,1.8358,2.015938006,1,1,1,0,4,2,1,,,,,,,,,,,,,,
,,,,,,,,,,,left.png,,w,right,6171d8d0854fad3442e253a3,2021-10-21_22h49.57.016,arrow_simon_punish,2021.1.2,Win32,59.91252771,,,,,,,,,,,,,,w,1,1.6574,1.943902949,1,1,1,1,5,3,1,,,,,,,,,,,,,,
,,,,,,,,,,,left.png,,w,right,6171d8d0854fad3442e253a3,2021-10-21_22h49.57.016,arrow_simon_punish,2021.1.2,Win32,59.91252771,,,,,,,,,,,,,,w,1,1.774,2.135312907,1,1,1,2,6,3,1,,,,,,,,,,,,,,
,,,,,,,,,,,right.png,,p,right,6171d8d0854fad3442e253a3,2021-10-21_22h49.57.016,arrow_simon_punish,2021.1.2,Win32,59.91252771,,,,,,,,,,,,,,p,1,1.9333,2.352653719,1,1,1,3,7,1,1,,,,,,,,,,,,,,
,,,,,,,,,,,right.png,,p,left,6171d8d0854fad3442e253a3,2021-10-21_22h49.57.016,arrow_simon_punish,2021.1.2,Win32,59.91252771,,,,,,,,,,,,,,p,1,1.9775,2.402040247,1,1,2,0,8,0,1,,,,,,,,,,,,,,
,,,,,,,,,,,left.png,,w,left,6171d8d0854fad3442e253a3,2021-10-21_22h49.57.016,arrow_simon_punish,2021.1.2,Win32,59.91252771,,,,,,,,,,,,,,w,1,1.8038,1.865710142,1,1,2,1,9,2,1,,,,,,,,,,,,,,
,,,,,,,,,,,left.png,,w,left,6171d8d0854fad3442e253a3,2021-10-21_22h49.57.016,arrow_simon_punish,2021.1.2,Win32,59.91252771,,,,,,,,,,,,,,w,1,2.0505,2.478267404,1,1,2,2,10,2,1,,,,,,,,,,,,,,
,,,,,,,,,,,right.png,,p,left,6171d8d0854fad3442e253a3,2021-10-21_22h49.57.016,arrow_simon_punish,2021.1.2,Win32,59.91252771,,,,,,,,,,,,,,p,1,1.3038,1.705224785,1,1,2,3,11,0,1,,,,,,,,,,,,,,
,,,,,,,,,,,left.png,,w,left,6171d8d0854fad3442e253a3,2021-10-21_22h49.57.016,arrow_simon_punish,2021.1.2,Win32,59.91252771,,,,,,,,,,,,,,w,1,1.1354,1.520505725,1,1,3,0,12,2,1,,,,,,,,,,,,,,
,,,,,,,,,,,left.png,,w,left,6171d8d0854fad3442e253a3,2021-10-21_22h49.57.016,arrow_simon_punish,2021.1.2,Win32,59.91252771,,,,,,,,,,,,,,w,1,1.219,1.571855215,1,1,3,1,13,2,1,,,,,,,,,,,,,,
,,,,,,,,,,,right.png,,p,left,6171d8d0854fad3442e253a3,2021-10-21_22h49.57.016,arrow_simon_punish,2021.1.2,Win32,59.91252771,,,,,,,,,,,,,,p,1,1.1132,1.5305486,1,1,3,2,14,0,1,,,,,,,,,,,,,,
,,,,,,,,,,,left.png,,w,right,6171d8d0854fad3442e253a3,2021-10-21_22h49.57.016,arrow_simon_punish,2021.1.2,Win32,59.91252771,,,,,,,,,,,,,,p,0,1.9686,2.465003413,1,1,3,3,15,3,1,,,,,,,,,,,,,,
,,,,,,,,,,,left.png,,w,right,6171d8d0854fad3442e253a3,2021-10-21_22h49.57.016,arrow_simon_punish,2021.1.2,Win32,59.91252771,,,,,,,,,,,,,,w,1,1.3519,1.668395188,1,1,4,0,16,3,1,,,,,,,,,,,,,,
,,,,,,,,,,,left.png,,w,left,6171d8d0854fad3442e253a3,2021-10-21_22h49.57.016,arrow_simon_punish,2021.1.2,Win32,59.91252771,,,,,,,,,,,,,,w,1,1.9685,2.424371332,1,1,4,1,17,2,1,,,,,,,,,,,,,,
,,,,,,,,,,,right.png,,p,right,6171d8d0854fad3442e253a3,2021-10-21_22h49.57.016,arrow_simon_punish,2021.1.2,Win32,59.91252771,,,,,,,,,,,,,,p,1,1.7188,2.187004329,1,1,4,2,18,1,1,,,,,,,,,,,,,,
,,,,,,,,,,,left.png,,w,right,6171d8d0854fad3442e253a3,2021-10-21_22h49.57.016,arrow_simon_punish,2021.1.2,Win32,59.91252771,,,,,,,,,,,,,,w,1,1.8062,1.970971357,1,1,4,3,19,3,1,,,,,,,,,,,,,,
,,,,,,,,,,,left.png,,w,left,6171d8d0854fad3442e253a3,2021-10-21_22h49.57.016,arrow_simon_punish,2021.1.2,Win32,59.91252771,,,,,,,,,,,,,,w,1,1.6169,2.101337593,1,1,5,0,20,2,1,,,,,,,,,,,,,,
,,,,,,,,,,,left.png,,w,right,6171d8d0854fad3442e253a3,2021-10-21_22h49.57.016,arrow_simon_punish,2021.1.2,Win32,59.91252771,,,,,,,,,,,,,,w,1,1.4275,1.729412644,0,1,5,1,21,3,1,,,,,,,,,,,,,,
,,,,,,,,,,,left.png,,w,left,6171d8d0854fad3442e253a3,2021-10-21_22h49.57.016,arrow_simon_punish,2021.1.2,Win32,59.91252771,,,,,,,,,,,,,,w,1,1.8199,2.394955847,1,1,5,2,22,2,1,,,,,,,,,,,,,,
,,,,,,,,,,,left.png,,w,right,6171d8d0854fad3442e253a3,2021-10-21_22h49.57.016,arrow_simon_punish,2021.1.2,Win32,59.91252771,,,,,,,,,,,,,,w,1,1.7879,2.218593967,1,1,5,3,23,3,1,,,,,,,,,,,,,,
,,,,,,,,,,,left.png,,w,left,6171d8d0854fad3442e253a3,2021-10-21_22h49.57.016,arrow_simon_punish,2021.1.2,Win32,59.91252771,,,,,,,,,,,,,,w,1,1.6007,2.01970772,1,1,6,0,24,2,1,,,,,,,,,,,,,,
,,,,,,,,,,,left.png,,w,right,6171d8d0854fad3442e253a3,2021-10-21_22h49.57.016,arrow_simon_punish,2021.1.2,Win32,59.91252771,,,,,,,,,,,,,,w,1,1.0333,1.5160039,1,1,6,1,25,3,1,,,,,,,,,,,,,,
,,,,,,,,,,,right.png,,p,right,6171d8d0854fad3442e253a3,2021-10-21_22h49.57.016,arrow_simon_punish,2021.1.2,Win32,59.91252771,,,,,,,,,,,,,,p,1,1.8061,2.386875327,1,1,6,2,26,1,1,,,,,,,,,,,,,,
,,,,,,,,,,,right.png,,p,right,6171d8d0854fad3442e253a3,2021-10-21_22h49.57.016,arrow_simon_punish,2021.1.2,Win32,59.91252771,,,,,,,,,,,,,,p,1,1.9188,2.308659749,1,1,6,3,27,1,1,,,,,,,,,,,,,,
,,,,,,,,,,,right.png,,p,left,6171d8d0854fad3442e253a3,2021-10-21_22h49.57.016,arrow_simon_punish,2021.1.2,Win32,59.91252771,,,,,,,,,,,,,,p,1,2.0689,2.399707524,1,1,7,0,28,0,1,,,,,,,,,,,,,,
,,,,,,,,,,,left.png,,w,left,6171d8d0854fad3442e253a3,2021-10-21_22h49.57.016,arrow_simon_punish,2021.1.2,Win32,59.91252771,,,,,,,,,,,,,,w,1,1.685,2.017498951,1,1,7,1,29,2,1,,,,,,,,,,,,,,
,,,,,,,,,,,right.png,,p,left,6171d8d0854fad3442e253a3,2021-10-21_22h49.57.016,arrow_simon_punish,2021.1.2,Win32,59.91252771,,,,,,,,,,,,,,p,1,1.3352,1.591377513,1,1,7,2,30,0,1,,,,,,,,,,,,,,
,,,,,,,,,,,right.png,,p,right,6171d8d0854fad3442e253a3,2021-10-21_22h49.57.016,arrow_simon_punish,2021.1.2,Win32,59.91252771,,,,,,,,,,,,,,p,1,1.3594,1.8234555,1,1,7,3,31,1,1,,,,,,,,,,,,,,
,,,,,,,,,,,right.png,,p,left,6171d8d0854fad3442e253a3,2021-10-21_22h49.57.016,arrow_simon_punish,2021.1.2,Win32,59.91252771,,,,,,,,,,,,,,p,1,1.9335,2.211050039,1,1,8,0,32,0,1,,,,,,,,,,,,,,
,,,,,,,,,,,right.png,,p,right,6171d8d0854fad3442e253a3,2021-10-21_22h49.57.016,arrow_simon_punish,2021.1.2,Win32,59.91252771,,,,,,,,,,,,,,p,1,1.4355,1.979455893,0,1,8,1,33,1,1,,,,,,,,,,,,,,
,,,,,,,,,,,right.png,,p,left,6171d8d0854fad3442e253a3,2021-10-21_22h49.57.016,arrow_simon_punish,2021.1.2,Win32,59.91252771,,,,,,,,,,,,,,p,1,1.8688,2.319004814,1,1,8,2,34,0,1,,,,,,,,,,,,,,
,,,,,,,,,,,left.png,,w,left,6171d8d0854fad3442e253a3,2021-10-21_22h49.57.016,arrow_simon_punish,2021.1.2,Win32,59.91252771,,,,,,,,,,,,,,w,1,1.29,1.800592957,1,1,8,3,35,2,1,,,,,,,,,,,,,,
,,,,,,,,,,,left.png,,w,right,6171d8d0854fad3442e253a3,2021-10-21_22h49.57.016,arrow_simon_punish,2021.1.2,Win32,59.91252771,,,,,,,,,,,,,,w,1,1.8521,2.318119984,1,1,9,0,36,3,1,,,,,,,,,,,,,,
,,,,,,,,,,,right.png,,p,right,6171d8d0854fad3442e253a3,2021-10-21_22h49.57.016,arrow_simon_punish,2021.1.2,Win32,59.91252771,,,,,,,,,,,,,,p,1,1.4931,1.98359218,0,1,9,1,37,1,1,,,,,,,,,,,,,,
,,,,,,,,,,,left.png,,w,right,6171d8d0854fad3442e253a3,2021-10-21_22h49.57.016,arrow_simon_punish,2021.1.2,Win32,59.91252771,,,,,,,,,,,,,,w,1,1.6516,2.128763393,1,1,9,2,38,3,1,,,,,,,,,,,,,,
,,,,,,,,,,,left.png,,w,right,6171d8d0854fad3442e253a3,2021-10-21_22h49.57.016,arrow_simon_punish,2021.1.2,Win32,59.91252771,,,,,,,,,,,,,,w,1,1.6761,2.212566177,1,1,9,3,39,3,1,,,,,,,,,,,,,,
,,,,,,,,,,,right.png,,p,right,6171d8d0854fad3442e253a3,2021-10-21_22h49.57.016,arrow_simon_punish,2021.1.2,Win32,59.91252771,,,,,,,,,,,,,,p,1,1.1575,1.647572719,1,1,10,0,40,1,1,,,,,,,,,,,,,,
,,,,,,,,,,,right.png,,p,left,6171d8d0854fad3442e253a3,2021-10-21_22h49.57.016,arrow_simon_punish,2021.1.2,Win32,59.91252771,,,,,,,,,,,,,,w,0,1.1519,1.649018469,1,1,10,1,41,0,1,,,,,,,,,,,,,,
,,,,,,,,,,,left.png,,w,left,6171d8d0854fad3442e253a3,2021-10-21_22h49.57.016,arrow_simon_punish,2021.1.2,Win32,59.91252771,,,,,,,,,,,,,,w,1,1.841,2.383158873,1,1,10,2,42,2,1,,,,,,,,,,,,,,
,,,,,,,,,,,right.png,,p,right,6171d8d0854fad3442e253a3,2021-10-21_22h49.57.016,arrow_simon_punish,2021.1.2,Win32,59.91252771,,,,,,,,,,,,,,p,1,1.1524,1.694181798,1,1,10,3,43,1,1,,,,,,,,,,,,,,
,,,,,,,,,,,right.png,,p,left,6171d8d0854fad3442e253a3,2021-10-21_22h49.57.016,arrow_simon_punish,2021.1.2,Win32,59.91252771,,,,,,,,,,,,,,p,1,1.1766,1.620285187,1,1,11,0,44,0,1,,,,,,,,,,,,,,
,,,,,,,,,,,left.png,,w,left,6171d8d0854fad3442e253a3,2021-10-21_22h49.57.016,arrow_simon_punish,2021.1.2,Win32,59.91252771,,,,,,,,,,,,,,w,1,1.2187,1.702054467,1,1,11,1,45,2,1,,,,,,,,,,,,,,
,,,,,,,,,,,right.png,,p,left,6171d8d0854fad3442e253a3,2021-10-21_22h49.57.016,arrow_simon_punish,2021.1.2,Win32,59.91252771,,,,,,,,,,,,,,p,1,1.5526,1.966911094,0,1,11,2,46,0,1,,,,,,,,,,,,,,
,,,,,,,,,,,right.png,,p,left,6171d8d0854fad3442e253a3,2021-10-21_22h49.57.016,arrow_simon_punish,2021.1.2,Win32,59.91252771,,,,,,,,,,,,,,p,1,1.5688,2.049751558,0,1,11,3,47,0,1,,,,,,,,,,,,,,
,,,,,,,,,,,right.png,,p,right,6171d8d0854fad3442e253a3,2021-10-21_22h49.57.016,arrow_simon_punish,2021.1.2,Win32,59.91252771,,,,,,,,,,,,,,p,1,1.6989,2.219774655,1,1,12,0,48,1,1,,,,,,,,,,,,,,
,,,,,,,,,,,left.png,,w,left,6171d8d0854fad3442e253a3,2021-10-21_22h49.57.016,arrow_simon_punish,2021.1.2,Win32,59.91252771,,,,,,,,,,,,,,w,1,1.2642,1.809455724,1,1,12,1,49,2,1,,,,,,,,,,,,,,
,,,,,,,,,,,left.png,,w,right,6171d8d0854fad3442e253a3,2021-10-21_22h49.57.016,arrow_simon_punish,2021.1.2,Win32,59.91252771,,,,,,,,,,,,,,p,0,1.4753,2.00740444,1,1,12,2,50,3,1,,,,,,,,,,,,,,
,,,,,,,,,,,right.png,,p,right,6171d8d0854fad3442e253a3,2021-10-21_22h49.57.016,arrow_simon_punish,2021.1.2,Win32,59.91252771,,,,,,,,,,,,,,w,0,1.7691,2.323301341,1,1,12,3,51,1,1,,,,,,,,,,,,,,
,,,,,,,,,,,right.png,,p,left,6171d8d0854fad3442e253a3,2021-10-21_22h49.57.016,arrow_simon_punish,2021.1.2,Win32,59.91252771,,,,,,,,,,,,,,p,1,1.1354,1.628562306,1,1,13,0,52,0,1,,,,,,,,,,,,,,
,,,,,,,,,,,left.png,,w,right,6171d8d0854fad3442e253a3,2021-10-21_22h49.57.016,arrow_simon_punish,2021.1.2,Win32,59.91252771,,,,,,,,,,,,,,w,1,1.4795,1.91496945,0,1,13,1,53,3,1,,,,,,,,,,,,,,
,,,,,,,,,,,right.png,,p,right,6171d8d0854fad3442e253a3,2021-10-21_22h49.57.016,arrow_simon_punish,2021.1.2,Win32,59.91252771,,,,,,,,,,,,,,p,1,1.4984,2.104785357,0,1,13,2,54,1,1,,,,,,,,,,,,,,
,,,,,,,,,,,left.png,,w,right,6171d8d0854fad3442e253a3,2021-10-21_22h49.57.016,arrow_simon_punish,2021.1.2,Win32,59.91252771,,,,,,,,,,,,,,w,1,1.7519,2.238899464,1,1,13,3,55,3,1,,,,,,,,,,,,,,
,,,,,,,,,,,right.png,,p,right,6171d8d0854fad3442e253a3,2021-10-21_22h49.57.016,arrow_simon_punish,2021.1.2,Win32,59.91252771,,,,,,,,,,,,,,p,1,1.1018,1.622354462,1,1,14,0,56,1,1,,,,,,,,,,,,,,
,,,,,,,,,,,right.png,,p,right,6171d8d0854fad3442e253a3,2021-10-21_22h49.57.016,arrow_simon_punish,2021.1.2,Win32,59.91252771,,,,,,,,,,,,,,p,1,1.3596,1.924401203,1,1,14,1,57,1,1,,,,,,,,,,,,,,
,,,,,,,,,,,left.png,,w,left,6171d8d0854fad3442e253a3,2021-10-21_22h49.57.016,arrow_simon_punish,2021.1.2,Win32,59.91252771,,,,,,,,,,,,,,w,1,1.9526,2.423799787,1,1,14,2,58,2,1,,,,,,,,,,,,,,
,,,,,,,,,,,right.png,,p,right,6171d8d0854fad3442e253a3,2021-10-21_22h49.57.016,arrow_simon_punish,2021.1.2,Win32,59.91252771,,,,,,,,,,,,,,p,1,1.6184,2.182768013,1,1,14,3,59,1,1,,,,,,,,,,,,,,
,,,,,,,,,,,,,,,6171d8d0854fad3442e253a3,2021-10-21_22h49.57.016,arrow_simon_punish,2021.1.2,Win32,59.91252771,,,,,,,,,,,,,,,,,,,,,,,,,space,6.6459,6,2,0,4,0,1,1,,,,,
,,,,,,,,,,,left.png,,w,left,6171d8d0854fad3442e253a3,2021-10-21_22h49.57.016,arrow_simon_punish,2021.1.2,Win32,59.91252771,,,,,,,,,,,,,,w,1,1.3522,1.780143318,1,5,0,0,0,2,1,,,,,,,,,,,,,,
,,,,,,,,,,,right.png,,p,left,6171d8d0854fad3442e253a3,2021-10-21_22h49.57.016,arrow_simon_punish,2021.1.2,Win32,59.91252771,,,,,,,,,,,,,,p,1,1.1885,1.66379739,1,5,0,1,1,0,1,,,,,,,,,,,,,,
,,,,,,,,,,,right.png,,p,right,6171d8d0854fad3442e253a3,2021-10-21_22h49.57.016,arrow_simon_punish,2021.1.2,Win32,59.91252771,,,,,,,,,,,,,,p,1,1.8689,2.438542295,1,5,0,2,2,1,1,,,,,,,,,,,,,,
,,,,,,,,,,,right.png,,p,left,6171d8d0854fad3442e253a3,2021-10-21_22h49.57.016,arrow_simon_punish,2021.1.2,Win32,59.91252771,,,,,,,,,,,,,,p,1,1.1855,1.698168966,1,5,0,3,3,0,1,,,,,,,,,,,,,,
,,,,,,,,,,,left.png,,w,right,6171d8d0854fad3442e253a3,2021-10-21_22h49.57.016,arrow_simon_punish,2021.1.2,Win32,59.91252771,,,,,,,,,,,,,,w,1,1.3351,1.774144065,1,5,1,0,4,3,1,,,,,,,,,,,,,,
,,,,,,,,,,,left.png,,w,left,6171d8d0854fad3442e253a3,2021-10-21_22h49.57.016,arrow_simon_punish,2021.1.2,Win32,59.91252771,,,,,,,,,,,,,,p,0,1.8407,1.86090095,1,5,1,1,5,2,1,,,,,,,,,,,,,,
,,,,,,,,,,,right.png,,p,left,6171d8d0854fad3442e253a3,2021-10-21_22h49.57.016,arrow_simon_punish,2021.1.2,Win32,59.91252771,,,,,,,,,,,,,,w,0,1.2383,1.610902279,1,5,1,2,6,0,1,,,,,,,,,,,,,,
,,,,,,,,,,,right.png,,p,right,6171d8d0854fad3442e253a3,2021-10-21_22h49.57.016,arrow_simon_punish,2021.1.2,Win32,59.91252771,,,,,,,,,,,,,,p,1,2.0544,2.299905299,1,5,1,3,7,1,1,,,,,,,,,,,,,,
,,,,,,,,,,,left.png,,w,right,6171d8d0854fad3442e253a3,2021-10-21_22h49.57.016,arrow_simon_punish,2021.1.2,Win32,59.91252771,,,,,,,,,,,,,,w,1,1.7856,1.938457575,1,5,2,0,8,3,1,,,,,,,,,,,,,,
,,,,,,,,,,,left.png,,w,right,6171d8d0854fad3442e253a3,2021-10-21_22h49.57.016,arrow_simon_punish,2021.1.2,Win32,59.91252771,,,,,,,,,,,,,,w,1,1.3689,1.845271248,1,5,2,1,9,3,1,,,,,,,,,,,,,,
,,,,,,,,,,,left.png,,w,right,6171d8d0854fad3442e253a3,2021-10-21_22h49.57.016,arrow_simon_punish,2021.1.2,Win32,59.91252771,,,,,,,,,,,,,,w,1,1.4527,1.997411321,0,5,2,2,10,3,1,,,,,,,,,,,,,,
,,,,,,,,,,,right.png,,p,right,6171d8d0854fad3442e253a3,2021-10-21_22h49.57.016,arrow_simon_punish,2021.1.2,Win32,59.91252771,,,,,,,,,,,,,,p,1,1.1577,1.644372776,1,5,2,3,11,1,1,,,,,,,,,,,,,,
,,,,,,,,,,,right.png,,p,left,6171d8d0854fad3442e253a3,2021-10-21_22h49.57.016,arrow_simon_punish,2021.1.2,Win32,59.91252771,,,,,,,,,,,,,,p,1,1.769,1.801292099,1,5,3,0,12,0,1,,,,,,,,,,,,,,
,,,,,,,,,,,left.png,,w,right,6171d8d0854fad3442e253a3,2021-10-21_22h49.57.016,arrow_simon_punish,2021.1.2,Win32,59.91252771,,,,,,,,,,,,,,w,1,1.8881,2.207075836,1,5,3,1,13,3,1,,,,,,,,,,,,,,
,,,,,,,,,,,left.png,,w,right,6171d8d0854fad3442e253a3,2021-10-21_22h49.57.016,arrow_simon_punish,2021.1.2,Win32,59.91252771,,,,,,,,,,,,,,w,1,1.7857,2.245367594,1,5,3,2,14,3,1,,,,,,,,,,,,,,
,,,,,,,,,,,left.png,,w,right,6171d8d0854fad3442e253a3,2021-10-21_22h49.57.016,arrow_simon_punish,2021.1.2,Win32,59.91252771,,,,,,,,,,,,,,w,1,1.5555,1.988588334,0,5,3,3,15,3,1,,,,,,,,,,,,,,
,,,,,,,,,,,left.png,,w,right,6171d8d0854fad3442e253a3,2021-10-21_22h49.57.016,arrow_simon_punish,2021.1.2,Win32,59.91252771,,,,,,,,,,,,,,w,1,1.9076,2.489206091,1,5,4,0,16,3,1,,,,,,,,,,,,,,
,,,,,,,,,,,left.png,,w,right,6171d8d0854fad3442e253a3,2021-10-21_22h49.57.016,arrow_simon_punish,2021.1.2,Win32,59.91252771,,,,,,,,,,,,,,w,1,1.7999,2.406826137,1,5,4,1,17,3,1,,,,,,,,,,,,,,
,,,,,,,,,,,left.png,,w,left,6171d8d0854fad3442e253a3,2021-10-21_22h49.57.016,arrow_simon_punish,2021.1.2,Win32,59.91252771,,,,,,,,,,,,,,w,1,1.3227,1.610245375,1,5,4,2,18,2,1,,,,,,,,,,,,,,
,,,,,,,,,,,right.png,,p,left,6171d8d0854fad3442e253a3,2021-10-21_22h49.57.016,arrow_simon_punish,2021.1.2,Win32,59.91252771,,,,,,,,,,,,,,p,1,1.1457,1.655280208,1,5,4,3,19,0,1,,,,,,,,,,,,,,
,,,,,,,,,,,right.png,,p,left,6171d8d0854fad3442e253a3,2021-10-21_22h49.57.016,arrow_simon_punish,2021.1.2,Win32,59.91252771,,,,,,,,,,,,,,p,1,1.2747,1.748401997,1,5,5,0,20,0,1,,,,,,,,,,,,,,
,,,,,,,,,,,right.png,,p,right,6171d8d0854fad3442e253a3,2021-10-21_22h49.57.016,arrow_simon_punish,2021.1.2,Win32,59.91252771,,,,,,,,,,,,,,p,1,1.9524,2.325828342,1,5,5,1,21,1,1,,,,,,,,,,,,,,
,,,,,,,,,,,left.png,,w,right,6171d8d0854fad3442e253a3,2021-10-21_22h49.57.016,arrow_simon_punish,2021.1.2,Win32,59.91252771,,,,,,,,,,,,,,p,0,1.8523,2.38711738,1,5,5,2,22,3,1,,,,,,,,,,,,,,
,,,,,,,,,,,right.png,,p,right,6171d8d0854fad3442e253a3,2021-10-21_22h49.57.016,arrow_simon_punish,2021.1.2,Win32,59.91252771,,,,,,,,,,,,,,p,1,1.3446,1.850766006,1,5,5,3,23,1,1,,,,,,,,,,,,,,
,,,,,,,,,,,left.png,,w,right,6171d8d0854fad3442e253a3,2021-10-21_22h49.57.016,arrow_simon_punish,2021.1.2,Win32,59.91252771,,,,,,,,,,,,,,w,1,2.0404,2.467651377,1,5,6,0,24,3,1,,,,,,,,,,,,,,
,,,,,,,,,,,left.png,,w,left,6171d8d0854fad3442e253a3,2021-10-21_22h49.57.016,arrow_simon_punish,2021.1.2,Win32,59.91252771,,,,,,,,,,,,,,w,1,1.6397,1.966770364,1,5,6,1,25,2,1,,,,,,,,,,,,,,
,,,,,,,,,,,left.png,,w,right,6171d8d0854fad3442e253a3,2021-10-21_22h49.57.016,arrow_simon_punish,2021.1.2,Win32,59.91252771,,,,,,,,,,,,,,p,0,1.8858,2.459075173,1,5,6,2,26,3,1,,,,,,,,,,,,,,
,,,,,,,,,,,left.png,,w,left,6171d8d0854fad3442e253a3,2021-10-21_22h49.57.016,arrow_simon_punish,2021.1.2,Win32,59.91252771,,,,,,,,,,,,,,w,1,1.3553,1.845102482,1,5,6,3,27,2,1,,,,,,,,,,,,,,
,,,,,,,,,,,right.png,,p,right,6171d8d0854fad3442e253a3,2021-10-21_22h49.57.016,arrow_simon_punish,2021.1.2,Win32,59.91252771,,,,,,,,,,,,,,p,1,1.7677,1.884400814,1,5,7,0,28,1,1,,,,,,,,,,,,,,
,,,,,,,,,,,right.png,,p,left,6171d8d0854fad3442e253a3,2021-10-21_22h49.57.016,arrow_simon_punish,2021.1.2,Win32,59.91252771,,,,,,,,,,,,,,p,1,1.2197,1.595654041,1,5,7,1,29,0,1,,,,,,,,,,,,,,
,,,,,,,,,,,right.png,,p,left,6171d8d0854fad3442e253a3,2021-10-21_22h49.57.016,arrow_simon_punish,2021.1.2,Win32,59.91252771,,,,,,,,,,,,,,p,1,1.8427,2.467023963,1,5,7,2,30,0,1,,,,,,,,,,,,,,
,,,,,,,,,,,left.png,,w,right,6171d8d0854fad3442e253a3,2021-10-21_22h49.57.016,arrow_simon_punish,2021.1.2,Win32,59.91252771,,,,,,,,,,,,,,w,1,1.9191,2.309700486,1,5,7,3,31,3,1,,,,,,,,,,,,,,
,,,,,,,,,,,left.png,,w,left,6171d8d0854fad3442e253a3,2021-10-21_22h49.57.016,arrow_simon_punish,2021.1.2,Win32,59.91252771,,,,,,,,,,,,,,w,1,1.3204,1.774391606,1,5,8,0,32,2,1,,,,,,,,,,,,,,
,,,,,,,,,,,left.png,,w,left,6171d8d0854fad3442e253a3,2021-10-21_22h49.57.016,arrow_simon_punish,2021.1.2,Win32,59.91252771,,,,,,,,,,,,,,w,1,1.752,2.307768518,1,5,8,1,33,2,1,,,,,,,,,,,,,,
,,,,,,,,,,,right.png,,p,right,6171d8d0854fad3442e253a3,2021-10-21_22h49.57.016,arrow_simon_punish,2021.1.2,Win32,59.91252771,,,,,,,,,,,,,,p,1,1.8194,2.335487583,1,5,8,2,34,1,1,,,,,,,,,,,,,,
,,,,,,,,,,,right.png,,p,left,6171d8d0854fad3442e253a3,2021-10-21_22h49.57.016,arrow_simon_punish,2021.1.2,Win32,59.91252771,,,,,,,,,,,,,,p,1,1.8693,2.142851525,1,5,8,3,35,0,1,,,,,,,,,,,,,,
,,,,,,,,,,,right.png,,p,left,6171d8d0854fad3442e253a3,2021-10-21_22h49.57.016,arrow_simon_punish,2021.1.2,Win32,59.91252771,,,,,,,,,,,,,,p,1,1.8571,2.102240821,1,5,9,0,36,0,1,,,,,,,,,,,,,,
,,,,,,,,,,,right.png,,p,right,6171d8d0854fad3442e253a3,2021-10-21_22h49.57.016,arrow_simon_punish,2021.1.2,Win32,59.91252771,,,,,,,,,,,,,,p,1,1.6359,2.126650803,1,5,9,1,37,1,1,,,,,,,,,,,,,,
,,,,,,,,,,,right.png,,p,right,6171d8d0854fad3442e253a3,2021-10-21_22h49.57.016,arrow_simon_punish,2021.1.2,Win32,59.91252771,,,,,,,,,,,,,,p,1,1.5997,2.191123651,0,5,9,2,38,1,1,,,,,,,,,,,,,,
,,,,,,,,,,,left.png,,w,left,6171d8d0854fad3442e253a3,2021-10-21_22h49.57.016,arrow_simon_punish,2021.1.2,Win32,59.91252771,,,,,,,,,,,,,,w,1,1.3184,1.879732698,1,5,9,3,39,2,1,,,,,,,,,,,,,,
,,,,,,,,,,,left.png,,w,left,6171d8d0854fad3442e253a3,2021-10-21_22h49.57.016,arrow_simon_punish,2021.1.2,Win32,59.91252771,,,,,,,,,,,,,,w,1,1.4405,1.623362394,0,5,10,0,40,2,1,,,,,,,,,,,,,,
,,,,,,,,,,,right.png,,p,right,6171d8d0854fad3442e253a3,2021-10-21_22h49.57.016,arrow_simon_punish,2021.1.2,Win32,59.91252771,,,,,,,,,,,,,,p,1,1.6627,2.386735124,1,5,10,1,41,1,1,,,,,,,,,,,,,,
,,,,,,,,,,,left.png,,w,left,6171d8d0854fad3442e253a3,2021-10-21_22h49.57.016,arrow_simon_punish,2021.1.2,Win32,59.91252771,,,,,,,,,,,,,,w,1,1.6327,2.260976889,1,5,10,2,42,2,1,,,,,,,,,,,,,,
,,,,,,,,,,,right.png,,p,right,6171d8d0854fad3442e253a3,2021-10-21_22h49.57.016,arrow_simon_punish,2021.1.2,Win32,59.91252771,,,,,,,,,,,,,,p,1,1.6358,2.170258799,1,5,10,3,43,1,1,,,,,,,,,,,,,,
,,,,,,,,,,,right.png,,p,left,6171d8d0854fad3442e253a3,2021-10-21_22h49.57.016,arrow_simon_punish,2021.1.2,Win32,59.91252771,,,,,,,,,,,,,,w,0,1.6965,1.614786844,1,5,11,0,44,0,1,,,,,,,,,,,,,,
,,,,,,,,,,,left.png,,w,left,6171d8d0854fad3442e253a3,2021-10-21_22h49.57.016,arrow_simon_punish,2021.1.2,Win32,59.91252771,,,,,,,,,,,,,,p,0,1.8684,1.941972153,1,5,11,1,45,2,1,,,,,,,,,,,,,,
,,,,,,,,,,,left.png,,w,left,6171d8d0854fad3442e253a3,2021-10-21_22h49.57.016,arrow_simon_punish,2021.1.2,Win32,59.91252771,,,,,,,,,,,,,,w,1,1.3685,1.728602727,1,5,11,2,46,2,1,,,,,,,,,,,,,,
,,,,,,,,,,,left.png,,w,left,6171d8d0854fad3442e253a3,2021-10-21_22h49.57.016,arrow_simon_punish,2021.1.2,Win32,59.91252771,,,,,,,,,,,,,,w,1,1.4855,2.034302149,0,5,11,3,47,2,1,,,,,,,,,,,,,,
,,,,,,,,,,,left.png,,w,left,6171d8d0854fad3442e253a3,2021-10-21_22h49.57.016,arrow_simon_punish,2021.1.2,Win32,59.91252771,,,,,,,,,,,,,,w,1,1.8791,2.47891909,1,5,12,0,48,2,1,,,,,,,,,,,,,,
,,,,,,,,,,,left.png,,w,right,6171d8d0854fad3442e253a3,2021-10-21_22h49.57.016,arrow_simon_punish,2021.1.2,Win32,59.91252771,,,,,,,,,,,,,,p,0,1.7998,1.89578476,1,5,12,1,49,3,1,,,,,,,,,,,,,,
,,,,,,,,,,,right.png,,p,left,6171d8d0854fad3442e253a3,2021-10-21_22h49.57.016,arrow_simon_punish,2021.1.2,Win32,59.91252771,,,,,,,,,,,,,,p,1,1.7509,1.590933663,1,5,12,2,50,0,1,,,,,,,,,,,,,,
,,,,,,,,,,,right.png,,p,left,6171d8d0854fad3442e253a3,2021-10-21_22h49.57.016,arrow_simon_punish,2021.1.2,Win32,59.91252771,,,,,,,,,,,,,,p,1,1.7539,1.588445937,1,5,12,3,51,0,1,,,,,,,,,,,,,,
,,,,,,,,,,,right.png,,p,right,6171d8d0854fad3442e253a3,2021-10-21_22h49.57.016,arrow_simon_punish,2021.1.2,Win32,59.91252771,,,,,,,,,,,,,,p,1,1.7271,2.192959536,1,5,13,0,52,1,1,,,,,,,,,,,,,,
,,,,,,,,,,,right.png,,p,right,6171d8d0854fad3442e253a3,2021-10-21_22h49.57.016,arrow_simon_punish,2021.1.2,Win32,59.91252771,,,,,,,,,,,,,,p,1,1.7023,1.951710834,1,5,13,1,53,1,1,,,,,,,,,,,,,,
,,,,,,,,,,,right.png,,p,left,6171d8d0854fad3442e253a3,2021-10-21_22h49.57.016,arrow_simon_punish,2021.1.2,Win32,59.91252771,,,,,,,,,,,,,,p,1,1.3855,1.545200949,1,5,13,2,54,0,1,,,,,,,,,,,,,,
,,,,,,,,,,,right.png,,p,right,6171d8d0854fad3442e253a3,2021-10-21_22h49.57.016,arrow_simon_punish,2021.1.2,Win32,59.91252771,,,,,,,,,,,,,,p,1,1.6961,2.421945376,1,5,13,3,55,1,1,,,,,,,,,,,,,,
,,,,,,,,,,,left.png,,w,left,6171d8d0854fad3442e253a3,2021-10-21_22h49.57.016,arrow_simon_punish,2021.1.2,Win32,59.91252771,,,,,,,,,,,,,,w,1,1.8027,2.29007711,1,5,14,0,56,2,1,,,,,,,,,,,,,,
,,,,,,,,,,,right.png,,p,right,6171d8d0854fad3442e253a3,2021-10-21_22h49.57.016,arrow_simon_punish,2021.1.2,Win32,59.91252771,,,,,,,,,,,,,,p,1,1.4689,1.983418234,0,5,14,1,57,1,1,,,,,,,,,,,,,,
,,,,,,,,,,,right.png,,p,left,6171d8d0854fad3442e253a3,2021-10-21_22h49.57.016,arrow_simon_punish,2021.1.2,Win32,59.91252771,,,,,,,,,,,,,,w,0,1.5024,1.986044839,1,5,14,2,58,0,1,,,,,,,,,,,,,,
,,,,,,,,,,,left.png,,w,right,6171d8d0854fad3442e253a3,2021-10-21_22h49.57.016,arrow_simon_punish,2021.1.2,Win32,59.91252771,,,,,,,,,,,,,,w,1,1.7664,2.00822125,1,5,14,3,59,3,1,,,,,,,,,,,,,,
,,,,,,,,,,,,,,,6171d8d0854fad3442e253a3,2021-10-21_22h49.57.016,arrow_simon_punish,2021.1.2,Win32,59.91252771,,,,,,,,,,,,,,,,,,,,,,,,,space,8.121,7,2,1,5,1,1,5,,,,,
,,,,,,,,,,,right.png,,p,right,6171d8d0854fad3442e253a3,2021-10-21_22h49.57.016,arrow_simon_punish,2021.1.2,Win32,59.91252771,,,,,,,,,,,,,,p,1,0.9852,1.511801654,1,1,0,0,0,1,1,,,,,,,,,,,,,,
,,,,,,,,,,,right.png,,p,right,6171d8d0854fad3442e253a3,2021-10-21_22h49.57.016,arrow_simon_punish,2021.1.2,Win32,59.91252771,,,,,,,,,,,,,,p,1,1.6426,1.841217505,1,1,0,1,1,1,1,,,,,,,,,,,,,,
,,,,,,,,,,,right.png,,p,left,6171d8d0854fad3442e253a3,2021-10-21_22h49.57.016,arrow_simon_punish,2021.1.2,Win32,59.91252771,,,,,,,,,,,,,,p,1,1.744,1.602809245,1,1,0,2,2,0,1,,,,,,,,,,,,,,
,,,,,,,,,,,right.png,,p,left,6171d8d0854fad3442e253a3,2021-10-21_22h49.57.016,arrow_simon_punish,2021.1.2,Win32,59.91252771,,,,,,,,,,,,,,w,0,1.7504,2.352920434,1,1,0,3,3,0,1,,,,,,,,,,,,,,
,,,,,,,,,,,left.png,,w,right,6171d8d0854fad3442e253a3,2021-10-21_22h49.57.016,arrow_simon_punish,2021.1.2,Win32,59.91252771,,,,,,,,,,,,,,w,1,1.6063,1.68814661,1,1,1,0,4,3,1,,,,,,,,,,,,,,
,,,,,,,,,,,left.png,,w,right,6171d8d0854fad3442e253a3,2021-10-21_22h49.57.016,arrow_simon_punish,2021.1.2,Win32,59.91252771,,,,,,,,,,,,,,w,1,1.4345,1.570150151,0,1,1,1,5,3,1,,,,,,,,,,,,,,
,,,,,,,,,,,right.png,,p,left,6171d8d0854fad3442e253a3,2021-10-21_22h49.57.016,arrow_simon_punish,2021.1.2,Win32,59.91252771,,,,,,,,,,,,,,p,1,1.8335,2.319116679,1,1,1,2,6,0,1,,,,,,,,,,,,,,
,,,,,,,,,,,left.png,,w,right,6171d8d0854fad3442e253a3,2021-10-21_22h49.57.016,arrow_simon_punish,2021.1.2,Win32,59.91252771,,,,,,,,,,,,,,w,1,1.5685,1.879037769,0,1,1,3,7,3,1,,,,,,,,,,,,,,
,,,,,,,,,,,right.png,,p,left,6171d8d0854fad3442e253a3,2021-10-21_22h49.57.016,arrow_simon_punish,2021.1.2,Win32,59.91252771,,,,,,,,,,,,,,p,1,1.7613,2.003869154,1,1,2,0,8,0,1,,,,,,,,,,,,,,
,,,,,,,,,,,right.png,,p,right,6171d8d0854fad3442e253a3,2021-10-21_22h49.57.016,arrow_simon_punish,2021.1.2,Win32,59.91252771,,,,,,,,,,,,,,p,1,2.1633,2.430801152,1,1,2,1,9,1,1,,,,,,,,,,,,,,
,,,,,,,,,,,left.png,,w,left,6171d8d0854fad3442e253a3,2021-10-21_22h49.57.016,arrow_simon_punish,2021.1.2,Win32,59.91252771,,,,,,,,,,,,,,w,1,1.803,2.297484165,1,1,2,2,10,2,1,,,,,,,,,,,,,,
,,,,,,,,,,,left.png,,w,right,6171d8d0854fad3442e253a3,2021-10-21_22h49.57.016,arrow_simon_punish,2021.1.2,Win32,59.91252771,,,,,,,,,,,,,,p,0,1.9356,1.896795638,1,1,2,3,11,3,1,,,,,,,,,,,,,,
,,,,,,,,,,,left.png,,w,left,6171d8d0854fad3442e253a3,2021-10-21_22h49.57.016,arrow_simon_punish,2021.1.2,Win32,59.91252771,,,,,,,,,,,,,,w,1,1.5185,1.663044989,0,1,3,0,12,2,1,,,,,,,,,,,,,,
,,,,,,,,,,,right.png,,p,left,6171d8d0854fad3442e253a3,2021-10-21_22h49.57.016,arrow_simon_punish,2021.1.2,Win32,59.91252771,,,,,,,,,,,,,,p,1,1.9354,2.367977205,1,1,3,1,13,0,1,,,,,,,,,,,,,,
,,,,,,,,,,,left.png,,w,right,6171d8d0854fad3442e253a3,2021-10-21_22h49.57.016,arrow_simon_punish,2021.1.2,Win32,59.91252771,,,,,,,,,,,,,,w,1,1.4814,1.748261969,0,1,3,2,14,3,1,,,,,,,,,,,,,,
,,,,,,,,,,,left.png,,w,left,6171d8d0854fad3442e253a3,2021-10-21_22h49.57.016,arrow_simon_punish,2021.1.2,Win32,59.91252771,,,,,,,,,,,,,,w,1,1.652,1.675671294,1,1,3,3,15,2,1,,,,,,,,,,,,,,
,,,,,,,,,,,right.png,,p,left,6171d8d0854fad3442e253a3,2021-10-21_22h49.57.016,arrow_simon_punish,2021.1.2,Win32,59.91252771,,,,,,,,,,,,,,p,1,1.9027,2.319894685,1,1,4,0,16,0,1,,,,,,,,,,,,,,
,,,,,,,,,,,right.png,,p,left,6171d8d0854fad3442e253a3,2021-10-21_22h49.57.016,arrow_simon_punish,2021.1.2,Win32,59.91252771,,,,,,,,,,,,,,p,1,1.8861,2.197606439,1,1,4,1,17,0,1,,,,,,,,,,,,,,
,,,,,,,,,,,left.png,,w,left,6171d8d0854fad3442e253a3,2021-10-21_22h49.57.016,arrow_simon_punish,2021.1.2,Win32,59.91252771,,,,,,,,,,,,,,w,1,1.9453,1.977560241,1,1,4,2,18,2,1,,,,,,,,,,,,,,
,,,,,,,,,,,right.png,,p,left,6171d8d0854fad3442e253a3,2021-10-21_22h49.57.016,arrow_simon_punish,2021.1.2,Win32,59.91252771,,,,,,,,,,,,,,p,1,1.7336,2.180156772,1,1,4,3,19,0,1,,,,,,,,,,,,,,
,,,,,,,,,,,left.png,,w,left,6171d8d0854fad3442e253a3,2021-10-21_22h49.57.016,arrow_simon_punish,2021.1.2,Win32,59.91252771,,,,,,,,,,,,,,w,1,1.6838,2.036668224,1,1,5,0,20,2,1,,,,,,,,,,,,,,
,,,,,,,,,,,left.png,,w,right,6171d8d0854fad3442e253a3,2021-10-21_22h49.57.016,arrow_simon_punish,2021.1.2,Win32,59.91252771,,,,,,,,,,,,,,p,0,1.5122,2.102461803,1,1,5,1,21,3,1,,,,,,,,,,,,,,
,,,,,,,,,,,left.png,,w,left,6171d8d0854fad3442e253a3,2021-10-21_22h49.57.016,arrow_simon_punish,2021.1.2,Win32,59.91252771,,,,,,,,,,,,,,w,1,1.6905,2.205015605,1,1,5,2,22,2,1,,,,,,,,,,,,,,
,,,,,,,,,,,left.png,,w,left,6171d8d0854fad3442e253a3,2021-10-21_22h49.57.016,arrow_simon_punish,2021.1.2,Win32,59.91252771,,,,,,,,,,,,,,w,1,1.2191,1.774143907,1,1,5,3,23,2,1,,,,,,,,,,,,,,
,,,,,,,,,,,left.png,,w,right,6171d8d0854fad3442e253a3,2021-10-21_22h49.57.016,arrow_simon_punish,2021.1.2,Win32,59.91252771,,,,,,,,,,,,,,p,0,1.7472,1.933050593,1,1,6,0,24,3,1,,,,,,,,,,,,,,
,,,,,,,,,,,right.png,,p,right,6171d8d0854fad3442e253a3,2021-10-21_22h49.57.016,arrow_simon_punish,2021.1.2,Win32,59.91252771,,,,,,,,,,,,,,w,0,1.6856,2.3077633,1,1,6,1,25,1,1,,,,,,,,,,,,,,
,,,,,,,,,,,left.png,,w,right,6171d8d0854fad3442e253a3,2021-10-21_22h49.57.016,arrow_simon_punish,2021.1.2,Win32,59.91252771,,,,,,,,,,,,,,p,0,1.3783,1.953022097,1,1,6,2,26,3,1,,,,,,,,,,,,,,
,,,,,,,,,,,right.png,,p,left,6171d8d0854fad3442e253a3,2021-10-21_22h49.57.016,arrow_simon_punish,2021.1.2,Win32,59.91252771,,,,,,,,,,,,,,p,1,2.168,1.99777717,1,1,6,3,27,0,1,,,,,,,,,,,,,,
,,,,,,,,,,,left.png,,w,left,6171d8d0854fad3442e253a3,2021-10-21_22h49.57.016,arrow_simon_punish,2021.1.2,Win32,59.91252771,,,,,,,,,,,,,,w,1,1.305,1.742973773,1,1,7,0,28,2,1,,,,,,,,,,,,,,
,,,,,,,,,,,right.png,,p,left,6171d8d0854fad3442e253a3,2021-10-21_22h49.57.016,arrow_simon_punish,2021.1.2,Win32,59.91252771,,,,,,,,,,,,,,p,1,1.3855,1.792513558,1,1,7,1,29,0,1,,,,,,,,,,,,,,
,,,,,,,,,,,right.png,,p,right,6171d8d0854fad3442e253a3,2021-10-21_22h49.57.016,arrow_simon_punish,2021.1.2,Win32,59.91252771,,,,,,,,,,,,,,p,1,1.65,1.984269185,1,1,7,2,30,1,1,,,,,,,,,,,,,,
,,,,,,,,,,,left.png,,w,left,6171d8d0854fad3442e253a3,2021-10-21_22h49.57.016,arrow_simon_punish,2021.1.2,Win32,59.91252771,,,,,,,,,,,,,,w,1,1.8761,2.472346255,1,1,7,3,31,2,1,,,,,,,,,,,,,,
,,,,,,,,,,,right.png,,p,right,6171d8d0854fad3442e253a3,2021-10-21_22h49.57.016,arrow_simon_punish,2021.1.2,Win32,59.91252771,,,,,,,,,,,,,,p,1,1.7691,2.322109729,1,1,8,0,32,1,1,,,,,,,,,,,,,,
,,,,,,,,,,,left.png,,w,right,6171d8d0854fad3442e253a3,2021-10-21_22h49.57.016,arrow_simon_punish,2021.1.2,Win32,59.91252771,,,,,,,,,,,,,,w,1,1.4858,1.933392553,0,1,8,1,33,3,1,,,,,,,,,,,,,,
,,,,,,,,,,,right.png,,p,right,6171d8d0854fad3442e253a3,2021-10-21_22h49.57.016,arrow_simon_punish,2021.1.2,Win32,59.91252771,,,,,,,,,,,,,,p,1,1.8028,2.368309065,1,1,8,2,34,1,1,,,,,,,,,,,,,,
,,,,,,,,,,,left.png,,w,right,6171d8d0854fad3442e253a3,2021-10-21_22h49.57.016,arrow_simon_punish,2021.1.2,Win32,59.91252771,,,,,,,,,,,,,,w,1,1.4842,1.771909474,0,1,8,3,35,3,1,,,,,,,,,,,,,,
,,,,,,,,,,,right.png,,p,right,6171d8d0854fad3442e253a3,2021-10-21_22h49.57.016,arrow_simon_punish,2021.1.2,Win32,59.91252771,,,,,,,,,,,,,,p,1,1.709,2.262267047,1,1,9,0,36,1,1,,,,,,,,,,,,,,
,,,,,,,,,,,right.png,,p,right,6171d8d0854fad3442e253a3,2021-10-21_22h49.57.016,arrow_simon_punish,2021.1.2,Win32,59.91252771,,,,,,,,,,,,,,p,1,1.6691,2.159763437,1,1,9,1,37,1,1,,,,,,,,,,,,,,
,,,,,,,,,,,left.png,,w,right,6171d8d0854fad3442e253a3,2021-10-21_22h49.57.016,arrow_simon_punish,2021.1.2,Win32,59.91252771,,,,,,,,,,,,,,w,1,1.8841,2.359114282,1,1,9,2,38,3,1,,,,,,,,,,,,,,
,,,,,,,,,,,right.png,,p,right,6171d8d0854fad3442e253a3,2021-10-21_22h49.57.016,arrow_simon_punish,2021.1.2,Win32,59.91252771,,,,,,,,,,,,,,p,1,1.6358,2.180961135,1,1,9,3,39,1,1,,,,,,,,,,,,,,
,,,,,,,,,,,left.png,,w,left,6171d8d0854fad3442e253a3,2021-10-21_22h49.57.016,arrow_simon_punish,2021.1.2,Win32,59.91252771,,,,,,,,,,,,,,w,1,1.8666,2.392272588,1,1,10,0,40,2,1,,,,,,,,,,,,,,
,,,,,,,,,,,right.png,,p,left,6171d8d0854fad3442e253a3,2021-10-21_22h49.57.016,arrow_simon_punish,2021.1.2,Win32,59.91252771,,,,,,,,,,,,,,p,1,1.5712,1.782875463,0,1,10,1,41,0,1,,,,,,,,,,,,,,
,,,,,,,,,,,left.png,,w,left,6171d8d0854fad3442e253a3,2021-10-21_22h49.57.016,arrow_simon_punish,2021.1.2,Win32,59.91252771,,,,,,,,,,,,,,w,1,1.5056,2.171224941,0,1,10,2,42,2,1,,,,,,,,,,,,,,
,,,,,,,,,,,left.png,,w,left,6171d8d0854fad3442e253a3,2021-10-21_22h49.57.016,arrow_simon_punish,2021.1.2,Win32,59.91252771,,,,,,,,,,,,,,w,1,1.7024,2.226583998,1,1,10,3,43,2,1,,,,,,,,,,,,,,
,,,,,,,,,,,right.png,,p,right,6171d8d0854fad3442e253a3,2021-10-21_22h49.57.016,arrow_simon_punish,2021.1.2,Win32,59.91252771,,,,,,,,,,,,,,w,0,1.8112,2.33697008,1,1,11,0,44,1,1,,,,,,,,,,,,,,
,,,,,,,,,,,left.png,,w,left,6171d8d0854fad3442e253a3,2021-10-21_22h49.57.016,arrow_simon_punish,2021.1.2,Win32,59.91252771,,,,,,,,,,,,,,w,1,1.1947,1.55753388,1,1,11,1,45,2,1,,,,,,,,,,,,,,
,,,,,,,,,,,left.png,,w,right,6171d8d0854fad3442e253a3,2021-10-21_22h49.57.016,arrow_simon_punish,2021.1.2,Win32,59.91252771,,,,,,,,,,,,,,w,1,1.5121,1.937391352,0,1,11,2,46,3,1,,,,,,,,,,,,,,
,,,,,,,,,,,right.png,,p,right,6171d8d0854fad3442e253a3,2021-10-21_22h49.57.016,arrow_simon_punish,2021.1.2,Win32,59.91252771,,,,,,,,,,,,,,p,1,1.8149,2.4262062,1,1,11,3,47,1,1,,,,,,,,,,,,,,
,,,,,,,,,,,left.png,,w,left,6171d8d0854fad3442e253a3,2021-10-21_22h49.57.016,arrow_simon_punish,2021.1.2,Win32,59.91252771,,,,,,,,,,,,,,w,1,1.1357,1.520138126,1,1,12,0,48,2,1,,,,,,,,,,,,,,
,,,,,,,,,,,left.png,,w,left,6171d8d0854fad3442e253a3,2021-10-21_22h49.57.016,arrow_simon_punish,2021.1.2,Win32,59.91252771,,,,,,,,,,,,,,w,1,1.7857,2.314743006,1,1,12,1,49,2,1,,,,,,,,,,,,,,
,,,,,,,,,,,right.png,,p,right,6171d8d0854fad3442e253a3,2021-10-21_22h49.57.016,arrow_simon_punish,2021.1.2,Win32,59.91252771,,,,,,,,,,,,,,p,1,1.8192,2.416021754,1,1,12,2,50,1,1,,,,,,,,,,,,,,
,,,,,,,,,,,right.png,,p,right,6171d8d0854fad3442e253a3,2021-10-21_22h49.57.016,arrow_simon_punish,2021.1.2,Win32,59.91252771,,,,,,,,,,,,,,p,1,1.7525,2.205246999,1,1,12,3,51,1,1,,,,,,,,,,,,,,
,,,,,,,,,,,left.png,,w,right,6171d8d0854fad3442e253a3,2021-10-21_22h49.57.016,arrow_simon_punish,2021.1.2,Win32,59.91252771,,,,,,,,,,,,,,w,1,1.202,1.539491384,1,1,13,0,52,3,1,,,,,,,,,,,,,,
,,,,,,,,,,,right.png,,p,left,6171d8d0854fad3442e253a3,2021-10-21_22h49.57.016,arrow_simon_punish,2021.1.2,Win32,59.91252771,,,,,,,,,,,,,,p,1,1.3282,1.752092226,1,1,13,1,53,0,1,,,,,,,,,,,,,,
,,,,,,,,,,,left.png,,w,right,6171d8d0854fad3442e253a3,2021-10-21_22h49.57.016,arrow_simon_punish,2021.1.2,Win32,59.91252771,,,,,,,,,,,,,,w,1,1.4221,1.952069852,0,1,13,2,54,3,1,,,,,,,,,,,,,,
,,,,,,,,,,,right.png,,p,left,6171d8d0854fad3442e253a3,2021-10-21_22h49.57.016,arrow_simon_punish,2021.1.2,Win32,59.91252771,,,,,,,,,,,,,,p,1,1.1167,1.570769818,1,1,13,3,55,0,1,,,,,,,,,,,,,,
,,,,,,,,,,,right.png,,p,left,6171d8d0854fad3442e253a3,2021-10-21_22h49.57.016,arrow_simon_punish,2021.1.2,Win32,59.91252771,,,,,,,,,,,,,,p,1,1.6354,2.079451147,1,1,14,0,56,0,1,,,,,,,,,,,,,,
,,,,,,,,,,,right.png,,p,left,6171d8d0854fad3442e253a3,2021-10-21_22h49.57.016,arrow_simon_punish,2021.1.2,Win32,59.91252771,,,,,,,,,,,,,,p,1,1.752,1.846521519,1,1,14,1,57,0,1,,,,,,,,,,,,,,
,,,,,,,,,,,left.png,,w,right,6171d8d0854fad3442e253a3,2021-10-21_22h49.57.016,arrow_simon_punish,2021.1.2,Win32,59.91252771,,,,,,,,,,,,,,w,1,1.5905,1.595207378,0,1,14,2,58,3,1,,,,,,,,,,,,,,
,,,,,,,,,,,right.png,,p,right,6171d8d0854fad3442e253a3,2021-10-21_22h49.57.016,arrow_simon_punish,2021.1.2,Win32,59.91252771,,,,,,,,,,,,,,p,1,1.8857,2.45321981,1,1,14,3,59,1,1,,,,,,,,,,,,,,
,,,,,,,,,,,,,,,6171d8d0854fad3442e253a3,2021-10-21_22h49.57.016,arrow_simon_punish,2021.1.2,Win32,59.91252771,,,,,,,,,,,,,,,,,,,,,,,,,space,9.2311,8,3,0,6,0,1,1,,,,,
,,,,,,,,,,,right.png,,p,right,6171d8d0854fad3442e253a3,2021-10-21_22h49.57.016,arrow_simon_punish,2021.1.2,Win32,59.91252771,,,,,,,,,,,,,,p,1,1.8185,2.371318365,1,5,0,0,0,1,1,,,,,,,,,,,,,,
,,,,,,,,,,,right.png,,p,right,6171d8d0854fad3442e253a3,2021-10-21_22h49.57.016,arrow_simon_punish,2021.1.2,Win32,59.91252771,,,,,,,,,,,,,,p,1,1.8034,2.423999173,1,5,0,1,1,1,1,,,,,,,,,,,,,,
,,,,,,,,,,,right.png,,p,right,6171d8d0854fad3442e253a3,2021-10-21_22h49.57.016,arrow_simon_punish,2021.1.2,Win32,59.91252771,,,,,,,,,,,,,,p,1,1.2079,1.701064007,1,5,0,2,2,1,1,,,,,,,,,,,,,,
,,,,,,,,,,,right.png,,p,left,6171d8d0854fad3442e253a3,2021-10-21_22h49.57.016,arrow_simon_punish,2021.1.2,Win32,59.91252771,,,,,,,,,,,,,,w,0,1.8524,2.384517404,1,5,0,3,3,0,1,,,,,,,,,,,,,,
,,,,,,,,,,,right.png,,p,right,6171d8d0854fad3442e253a3,2021-10-21_22h49.57.016,arrow_simon_punish,2021.1.2,Win32,59.91252771,,,,,,,,,,,,,,p,1,1.4217,2.066952132,0,5,1,0,4,1,1,,,,,,,,,,,,,,
,,,,,,,,,,,left.png,,w,right,6171d8d0854fad3442e253a3,2021-10-21_22h49.57.016,arrow_simon_punish,2021.1.2,Win32,59.91252771,,,,,,,,,,,,,,w,1,1.4292,1.522675541,0,5,1,1,5,3,1,,,,,,,,,,,,,,
,,,,,,,,,,,left.png,,w,right,6171d8d0854fad3442e253a3,2021-10-21_22h49.57.016,arrow_simon_punish,2021.1.2,Win32,59.91252771,,,,,,,,,,,,,,w,1,1.7077,2.191001142,1,5,1,2,6,3,1,,,,,,,,,,,,,,
,,,,,,,,,,,right.png,,p,right,6171d8d0854fad3442e253a3,2021-10-21_22h49.57.016,arrow_simon_punish,2021.1.2,Win32,59.91252771,,,,,,,,,,,,,,p,1,1.3024,1.809765815,1,5,1,3,7,1,1,,,,,,,,,,,,,,
