instruct_resp_simon.keys,instruct_resp_simon.corr,instruct_resp_simon.rt,trial_resp_simon.keys,trial_resp_simon.corr,trial_resp_simon.rt,trials_train_simon.thisRepN,trials_train_simon.thisTrialN,trials_train_simon.thisN,trials_train_simon.thisIndex,trials_train_simon.ran,target_file,target_pos,target_resp,target_side,participant,date,expName,psychopyVersion,OS,frameRate,instruct_resp_timing.keys,instruct_resp_timing.corr,instruct_resp_timing.rt,trial_resp_timing.keys,trial_resp_timing.rt,trials_train_timing.thisRepN,trials_train_timing.thisTrialN,trials_train_timing.thisN,trials_train_timing.thisIndex,trials_train_timing.ran,instruct_resp.keys,instruct_resp.corr,instruct_resp.rt,trial_resp.keys,trial_resp.corr,trial_resp.rt,target_onset,err,pun,trials.thisRepN,trials.thisTrialN,trials.thisN,trials.thisIndex,trials.ran,block_note_resp.keys,block_note_resp.rt,block_num,blocks.thisRepN,blocks.thisTrialN,blocks.thisN,blocks.thisIndex,blocks.ran,punish,complete_resp.keys,complete_resp.rt,raffle_trial,raffle_err,raffle_rew
space,0,26.441,w,1,1.571,0,0,0,2,1,left.png,,w,left,6172fb642fdd00cfee2ab88b,2021-10-27_12h03.57.928,arrow_simon_punish,2021.1.2,MacIntel,58.82352941,,,,,,,,,,,,,,,,,,,,,,,,,,,,,,,,,,,,,,
,,,p,1,1.123,0,1,1,0,1,right.png,,p,left,6172fb642fdd00cfee2ab88b,2021-10-27_12h03.57.928,arrow_simon_punish,2021.1.2,MacIntel,58.82352941,,,,,,,,,,,,,,,,,,,,,,,,,,,,,,,,,,,,,,
,,,p,1,1.039,0,2,2,1,1,right.png,,p,right,6172fb642fdd00cfee2ab88b,2021-10-27_12h03.57.928,arrow_simon_punish,2021.1.2,MacIntel,58.82352941,,,,,,,,,,,,,,,,,,,,,,,,,,,,,,,,,,,,,,
,,,w,1,1.23,0,3,3,3,1,left.png,,w,right,6172fb642fdd00cfee2ab88b,2021-10-27_12h03.57.928,arrow_simon_punish,2021.1.2,MacIntel,58.82352941,,,,,,,,,,,,,,,,,,,,,,,,,,,,,,,,,,,,,,
,,,w,1,1.257,1,0,4,3,1,left.png,,w,right,6172fb642fdd00cfee2ab88b,2021-10-27_12h03.57.928,arrow_simon_punish,2021.1.2,MacIntel,58.82352941,,,,,,,,,,,,,,,,,,,,,,,,,,,,,,,,,,,,,,
,,,p,1,1.222,1,1,5,1,1,right.png,,p,right,6172fb642fdd00cfee2ab88b,2021-10-27_12h03.57.928,arrow_simon_punish,2021.1.2,MacIntel,58.82352941,,,,,,,,,,,,,,,,,,,,,,,,,,,,,,,,,,,,,,
,,,w,1,1.439,1,2,6,2,1,left.png,,w,left,6172fb642fdd00cfee2ab88b,2021-10-27_12h03.57.928,arrow_simon_punish,2021.1.2,MacIntel,58.82352941,,,,,,,,,,,,,,,,,,,,,,,,,,,,,,,,,,,,,,
,,,p,1,0.973,1,3,7,0,1,right.png,,p,left,6172fb642fdd00cfee2ab88b,2021-10-27_12h03.57.928,arrow_simon_punish,2021.1.2,MacIntel,58.82352941,,,,,,,,,,,,,,,,,,,,,,,,,,,,,,,,,,,,,,
,,,p,1,1.327,2,0,8,0,1,right.png,,p,left,6172fb642fdd00cfee2ab88b,2021-10-27_12h03.57.928,arrow_simon_punish,2021.1.2,MacIntel,58.82352941,,,,,,,,,,,,,,,,,,,,,,,,,,,,,,,,,,,,,,
,,,w,1,1.004,2,1,9,2,1,left.png,,w,left,6172fb642fdd00cfee2ab88b,2021-10-27_12h03.57.928,arrow_simon_punish,2021.1.2,MacIntel,58.82352941,,,,,,,,,,,,,,,,,,,,,,,,,,,,,,,,,,,,,,
,,,p,1,1.134,2,2,10,1,1,right.png,,p,right,6172fb642fdd00cfee2ab88b,2021-10-27_12h03.57.928,arrow_simon_punish,2021.1.2,MacIntel,58.82352941,,,,,,,,,,,,,,,,,,,,,,,,,,,,,,,,,,,,,,
,,,p,0,1.415,2,3,11,3,1,left.png,,w,right,6172fb642fdd00cfee2ab88b,2021-10-27_12h03.57.928,arrow_simon_punish,2021.1.2,MacIntel,58.82352941,,,,,,,,,,,,,,,,,,,,,,,,,,,,,,,,,,,,,,
,,,w,1,0.752,3,0,12,3,1,left.png,,w,right,6172fb642fdd00cfee2ab88b,2021-10-27_12h03.57.928,arrow_simon_punish,2021.1.2,MacIntel,58.82352941,,,,,,,,,,,,,,,,,,,,,,,,,,,,,,,,,,,,,,
,,,p,1,1.122,3,1,13,0,1,right.png,,p,left,6172fb642fdd00cfee2ab88b,2021-10-27_12h03.57.928,arrow_simon_punish,2021.1.2,MacIntel,58.82352941,,,,,,,,,,,,,,,,,,,,,,,,,,,,,,,,,,,,,,
,,,p,1,1.091,3,2,14,1,1,right.png,,p,right,6172fb642fdd00cfee2ab88b,2021-10-27_12h03.57.928,arrow_simon_punish,2021.1.2,MacIntel,58.82352941,,,,,,,,,,,,,,,,,,,,,,,,,,,,,,,,,,,,,,
,,,w,1,1.205,3,3,15,2,1,left.png,,w,left,6172fb642fdd00cfee2ab88b,2021-10-27_12h03.57.928,arrow_simon_punish,2021.1.2,MacIntel,58.82352941,,,,,,,,,,,,,,,,,,,,,,,,,,,,,,,,,,,,,,
,,,p,1,1.177,4,0,16,0,1,right.png,,p,left,6172fb642fdd00cfee2ab88b,2021-10-27_12h03.57.928,arrow_simon_punish,2021.1.2,MacIntel,58.82352941,,,,,,,,,,,,,,,,,,,,,,,,,,,,,,,,,,,,,,
,,,p,1,0.937,4,1,17,1,1,right.png,,p,right,6172fb642fdd00cfee2ab88b,2021-10-27_12h03.57.928,arrow_simon_punish,2021.1.2,MacIntel,58.82352941,,,,,,,,,,,,,,,,,,,,,,,,,,,,,,,,,,,,,,
,,,w,1,0.724,4,2,18,2,1,left.png,,w,left,6172fb642fdd00cfee2ab88b,2021-10-27_12h03.57.928,arrow_simon_punish,2021.1.2,MacIntel,58.82352941,,,,,,,,,,,,,,,,,,,,,,,,,,,,,,,,,,,,,,
,,,w,1,1.843,4,3,19,3,1,left.png,,w,right,6172fb642fdd00cfee2ab88b,2021-10-27_12h03.57.928,arrow_simon_punish,2021.1.2,MacIntel,58.82352941,,,,,,,,,,,,,,,,,,,,,,,,,,,,,,,,,,,,,,
,,,p,1,0.938,5,0,20,1,1,right.png,,p,right,6172fb642fdd00cfee2ab88b,2021-10-27_12h03.57.928,arrow_simon_punish,2021.1.2,MacIntel,58.82352941,,,,,,,,,,,,,,,,,,,,,,,,,,,,,,,,,,,,,,
,,,w,1,0.953,5,1,21,2,1,left.png,,w,left,6172fb642fdd00cfee2ab88b,2021-10-27_12h03.57.928,arrow_simon_punish,2021.1.2,MacIntel,58.82352941,,,,,,,,,,,,,,,,,,,,,,,,,,,,,,,,,,,,,,
,,,w,1,0.869,5,2,22,3,1,left.png,,w,right,6172fb642fdd00cfee2ab88b,2021-10-27_12h03.57.928,arrow_simon_punish,2021.1.2,MacIntel,58.82352941,,,,,,,,,,,,,,,,,,,,,,,,,,,,,,,,,,,,,,
,,,p,1,0.938,5,3,23,0,1,right.png,,p,left,6172fb642fdd00cfee2ab88b,2021-10-27_12h03.57.928,arrow_simon_punish,2021.1.2,MacIntel,58.82352941,,,,,,,,,,,,,,,,,,,,,,,,,,,,,,,,,,,,,,
,,,p,1,1.286,6,0,24,0,1,right.png,,p,left,6172fb642fdd00cfee2ab88b,2021-10-27_12h03.57.928,arrow_simon_punish,2021.1.2,MacIntel,58.82352941,,,,,,,,,,,,,,,,,,,,,,,,,,,,,,,,,,,,,,
,,,p,1,1.206,6,1,25,1,1,right.png,,p,right,6172fb642fdd00cfee2ab88b,2021-10-27_12h03.57.928,arrow_simon_punish,2021.1.2,MacIntel,58.82352941,,,,,,,,,,,,,,,,,,,,,,,,,,,,,,,,,,,,,,
,,,w,1,0.739,6,2,26,3,1,left.png,,w,right,6172fb642fdd00cfee2ab88b,2021-10-27_12h03.57.928,arrow_simon_punish,2021.1.2,MacIntel,58.82352941,,,,,,,,,,,,,,,,,,,,,,,,,,,,,,,,,,,,,,
,,,w,1,1.143,6,3,27,2,1,left.png,,w,left,6172fb642fdd00cfee2ab88b,2021-10-27_12h03.57.928,arrow_simon_punish,2021.1.2,MacIntel,58.82352941,,,,,,,,,,,,,,,,,,,,,,,,,,,,,,,,,,,,,,
,,,p,1,1.643,7,0,28,0,1,right.png,,p,left,6172fb642fdd00cfee2ab88b,2021-10-27_12h03.57.928,arrow_simon_punish,2021.1.2,MacIntel,58.82352941,,,,,,,,,,,,,,,,,,,,,,,,,,,,,,,,,,,,,,
,,,w,1,0.593,7,1,29,2,1,left.png,,w,left,6172fb642fdd00cfee2ab88b,2021-10-27_12h03.57.928,arrow_simon_punish,2021.1.2,MacIntel,58.82352941,,,,,,,,,,,,,,,,,,,,,,,,,,,,,,,,,,,,,,
,,,p,1,1.391,7,2,30,1,1,right.png,,p,right,6172fb642fdd00cfee2ab88b,2021-10-27_12h03.57.928,arrow_simon_punish,2021.1.2,MacIntel,58.82352941,,,,,,,,,,,,,,,,,,,,,,,,,,,,,,,,,,,,,,
,,,w,1,1.02,7,3,31,3,1,left.png,,w,right,6172fb642fdd00cfee2ab88b,2021-10-27_12h03.57.928,arrow_simon_punish,2021.1.2,MacIntel,58.82352941,,,,,,,,,,,,,,,,,,,,,,,,,,,,,,,,,,,,,,
,,,p,1,1.048,8,0,32,1,1,right.png,,p,right,6172fb642fdd00cfee2ab88b,2021-10-27_12h03.57.928,arrow_simon_punish,2021.1.2,MacIntel,58.82352941,,,,,,,,,,,,,,,,,,,,,,,,,,,,,,,,,,,,,,
,,,w,1,1.637,8,1,33,2,1,left.png,,w,left,6172fb642fdd00cfee2ab88b,2021-10-27_12h03.57.928,arrow_simon_punish,2021.1.2,MacIntel,58.82352941,,,,,,,,,,,,,,,,,,,,,,,,,,,,,,,,,,,,,,
,,,p,1,1.42,8,2,34,0,1,right.png,,p,left,6172fb642fdd00cfee2ab88b,2021-10-27_12h03.57.928,arrow_simon_punish,2021.1.2,MacIntel,58.82352941,,,,,,,,,,,,,,,,,,,,,,,,,,,,,,,,,,,,,,
,,,w,1,0.776,8,3,35,3,1,left.png,,w,right,6172fb642fdd00cfee2ab88b,2021-10-27_12h03.57.928,arrow_simon_punish,2021.1.2,MacIntel,58.82352941,,,,,,,,,,,,,,,,,,,,,,,,,,,,,,,,,,,,,,
,,,p,1,0.693,9,0,36,1,1,right.png,,p,right,6172fb642fdd00cfee2ab88b,2021-10-27_12h03.57.928,arrow_simon_punish,2021.1.2,MacIntel,58.82352941,,,,,,,,,,,,,,,,,,,,,,,,,,,,,,,,,,,,,,
,,,w,1,1.24,9,1,37,2,1,left.png,,w,left,6172fb642fdd00cfee2ab88b,2021-10-27_12h03.57.928,arrow_simon_punish,2021.1.2,MacIntel,58.82352941,,,,,,,,,,,,,,,,,,,,,,,,,,,,,,,,,,,,,,
,,,w,1,0.937,9,2,38,3,1,left.png,,w,right,6172fb642fdd00cfee2ab88b,2021-10-27_12h03.57.928,arrow_simon_punish,2021.1.2,MacIntel,58.82352941,,,,,,,,,,,,,,,,,,,,,,,,,,,,,,,,,,,,,,
,,,p,1,0.808,9,3,39,0,1,right.png,,p,left,6172fb642fdd00cfee2ab88b,2021-10-27_12h03.57.928,arrow_simon_punish,2021.1.2,MacIntel,58.82352941,,,,,,,,,,,,,,,,,,,,,,,,,,,,,,,,,,,,,,
,,,,,,,,,,,,,,,6172fb642fdd00cfee2ab88b,2021-10-27_12h03.57.928,arrow_simon_punish,2021.1.2,MacIntel,58.82352941,space,0,34.93,w,2.854,0,0,0,0,1,,,,,,,,,,,,,,,,,,,,,,,,,,,,
,,,,,,,,,,,,,,,6172fb642fdd00cfee2ab88b,2021-10-27_12h03.57.928,arrow_simon_punish,2021.1.2,MacIntel,58.82352941,,,,p,2.755,1,0,1,0,1,,,,,,,,,,,,,,,,,,,,,,,,,,,,
,,,,,,,,,,,,,,,6172fb642fdd00cfee2ab88b,2021-10-27_12h03.57.928,arrow_simon_punish,2021.1.2,MacIntel,58.82352941,,,,w,2.47,2,0,2,0,1,,,,,,,,,,,,,,,,,,,,,,,,,,,,
,,,,,,,,,,,,,,,6172fb642fdd00cfee2ab88b,2021-10-27_12h03.57.928,arrow_simon_punish,2021.1.2,MacIntel,58.82352941,,,,p,2.193,3,0,3,0,1,,,,,,,,,,,,,,,,,,,,,,,,,,,,
,,,,,,,,,,,,,,,6172fb642fdd00cfee2ab88b,2021-10-27_12h03.57.928,arrow_simon_punish,2021.1.2,MacIntel,58.82352941,,,,w,2.439,4,0,4,0,1,,,,,,,,,,,,,,,,,,,,,,,,,,,,
,,,,,,,,,,,,,,,6172fb642fdd00cfee2ab88b,2021-10-27_12h03.57.928,arrow_simon_punish,2021.1.2,MacIntel,58.82352941,,,,p,2.474,5,0,5,0,1,,,,,,,,,,,,,,,,,,,,,,,,,,,,
,,,,,,,,,,,,,,,6172fb642fdd00cfee2ab88b,2021-10-27_12h03.57.928,arrow_simon_punish,2021.1.2,MacIntel,58.82352941,,,,w,2.191,6,0,6,0,1,,,,,,,,,,,,,,,,,,,,,,,,,,,,
,,,,,,,,,,,,,,,6172fb642fdd00cfee2ab88b,2021-10-27_12h03.57.928,arrow_simon_punish,2021.1.2,MacIntel,58.82352941,,,,p,2.46,7,0,7,0,1,,,,,,,,,,,,,,,,,,,,,,,,,,,,
,,,,,,,,,,,,,,,6172fb642fdd00cfee2ab88b,2021-10-27_12h03.57.928,arrow_simon_punish,2021.1.2,MacIntel,58.82352941,,,,w,2.686,8,0,8,0,1,,,,,,,,,,,,,,,,,,,,,,,,,,,,
,,,,,,,,,,,,,,,6172fb642fdd00cfee2ab88b,2021-10-27_12h03.57.928,arrow_simon_punish,2021.1.2,MacIntel,58.82352941,,,,p,2.438,9,0,9,0,1,,,,,,,,,,,,,,,,,,,,,,,,,,,,
,,,,,,,,,,,,,,,6172fb642fdd00cfee2ab88b,2021-10-27_12h03.57.928,arrow_simon_punish,2021.1.2,MacIntel,58.82352941,,,,w,2.405,10,0,10,0,1,,,,,,,,,,,,,,,,,,,,,,,,,,,,
,,,,,,,,,,,,,,,6172fb642fdd00cfee2ab88b,2021-10-27_12h03.57.928,arrow_simon_punish,2021.1.2,MacIntel,58.82352941,,,,p,2.408,11,0,11,0,1,,,,,,,,,,,,,,,,,,,,,,,,,,,,
,,,,,,,,,,,,,,,6172fb642fdd00cfee2ab88b,2021-10-27_12h03.57.928,arrow_simon_punish,2021.1.2,MacIntel,58.82352941,,,,w,2.438,12,0,12,0,1,,,,,,,,,,,,,,,,,,,,,,,,,,,,
,,,,,,,,,,,,,,,6172fb642fdd00cfee2ab88b,2021-10-27_12h03.57.928,arrow_simon_punish,2021.1.2,MacIntel,58.82352941,,,,p,2.341,13,0,13,0,1,,,,,,,,,,,,,,,,,,,,,,,,,,,,
,,,,,,,,,,,,,,,6172fb642fdd00cfee2ab88b,2021-10-27_12h03.57.928,arrow_simon_punish,2021.1.2,MacIntel,58.82352941,,,,w,2.467,14,0,14,0,1,,,,,,,,,,,,,,,,,,,,,,,,,,,,
,,,,,,,,,,,,,,,6172fb642fdd00cfee2ab88b,2021-10-27_12h03.57.928,arrow_simon_punish,2021.1.2,MacIntel,58.82352941,,,,p,2.522,15,0,15,0,1,,,,,,,,,,,,,,,,,,,,,,,,,,,,
,,,,,,,,,,,,,,,6172fb642fdd00cfee2ab88b,2021-10-27_12h03.57.928,arrow_simon_punish,2021.1.2,MacIntel,58.82352941,,,,w,2.372,16,0,16,0,1,,,,,,,,,,,,,,,,,,,,,,,,,,,,
,,,,,,,,,,,,,,,6172fb642fdd00cfee2ab88b,2021-10-27_12h03.57.928,arrow_simon_punish,2021.1.2,MacIntel,58.82352941,,,,p,1.724,17,0,17,0,1,,,,,,,,,,,,,,,,,,,,,,,,,,,,
,,,,,,,,,,,,,,,6172fb642fdd00cfee2ab88b,2021-10-27_12h03.57.928,arrow_simon_punish,2021.1.2,MacIntel,58.82352941,,,,w,2.423,18,0,18,0,1,,,,,,,,,,,,,,,,,,,,,,,,,,,,
,,,,,,,,,,,,,,,6172fb642fdd00cfee2ab88b,2021-10-27_12h03.57.928,arrow_simon_punish,2021.1.2,MacIntel,58.82352941,,,,w,2.44,19,0,19,0,1,,,,,,,,,,,,,,,,,,,,,,,,,,,,
,,,,,,,,,,,,,,,6172fb642fdd00cfee2ab88b,2021-10-27_12h03.57.928,arrow_simon_punish,2021.1.2,MacIntel,58.82352941,,,,w,2.657,20,0,20,0,1,,,,,,,,,,,,,,,,,,,,,,,,,,,,
,,,,,,,,,,,,,,,6172fb642fdd00cfee2ab88b,2021-10-27_12h03.57.928,arrow_simon_punish,2021.1.2,MacIntel,58.82352941,,,,w,2.256,21,0,21,0,1,,,,,,,,,,,,,,,,,,,,,,,,,,,,
,,,,,,,,,,,,,,,6172fb642fdd00cfee2ab88b,2021-10-27_12h03.57.928,arrow_simon_punish,2021.1.2,MacIntel,58.82352941,,,,w,2.472,22,0,22,0,1,,,,,,,,,,,,,,,,,,,,,,,,,,,,
,,,,,,,,,,,,,,,6172fb642fdd00cfee2ab88b,2021-10-27_12h03.57.928,arrow_simon_punish,2021.1.2,MacIntel,58.82352941,,,,p,2.271,23,0,23,0,1,,,,,,,,,,,,,,,,,,,,,,,,,,,,
,,,,,,,,,,,,,,,6172fb642fdd00cfee2ab88b,2021-10-27_12h03.57.928,arrow_simon_punish,2021.1.2,MacIntel,58.82352941,,,,w,2.622,24,0,24,0,1,,,,,,,,,,,,,,,,,,,,,,,,,,,,
,,,,,,,,,,,,,,,6172fb642fdd00cfee2ab88b,2021-10-27_12h03.57.928,arrow_simon_punish,2021.1.2,MacIntel,58.82352941,,,,w,2.385,25,0,25,0,1,,,,,,,,,,,,,,,,,,,,,,,,,,,,
,,,,,,,,,,,,,,,6172fb642fdd00cfee2ab88b,2021-10-27_12h03.57.928,arrow_simon_punish,2021.1.2,MacIntel,58.82352941,,,,p,2.478,26,0,26,0,1,,,,,,,,,,,,,,,,,,,,,,,,,,,,
,,,,,,,,,,,,,,,6172fb642fdd00cfee2ab88b,2021-10-27_12h03.57.928,arrow_simon_punish,2021.1.2,MacIntel,58.82352941,,,,w,2.478,27,0,27,0,1,,,,,,,,,,,,,,,,,,,,,,,,,,,,
,,,,,,,,,,,,,,,6172fb642fdd00cfee2ab88b,2021-10-27_12h03.57.928,arrow_simon_punish,2021.1.2,MacIntel,58.82352941,,,,p,2.412,28,0,28,0,1,,,,,,,,,,,,,,,,,,,,,,,,,,,,
,,,,,,,,,,,,,,,6172fb642fdd00cfee2ab88b,2021-10-27_12h03.57.928,arrow_simon_punish,2021.1.2,MacIntel,58.82352941,,,,w,2.24,29,0,29,0,1,,,,,,,,,,,,,,,,,,,,,,,,,,,,
,,,,,,,,,,,,,,,6172fb642fdd00cfee2ab88b,2021-10-27_12h03.57.928,arrow_simon_punish,2021.1.2,MacIntel,58.82352941,,,,p,2.458,30,0,30,0,1,,,,,,,,,,,,,,,,,,,,,,,,,,,,
,,,,,,,,,,,,,,,6172fb642fdd00cfee2ab88b,2021-10-27_12h03.57.928,arrow_simon_punish,2021.1.2,MacIntel,58.82352941,,,,p,2.409,31,0,31,0,1,,,,,,,,,,,,,,,,,,,,,,,,,,,,
,,,,,,,,,,,,,,,6172fb642fdd00cfee2ab88b,2021-10-27_12h03.57.928,arrow_simon_punish,2021.1.2,MacIntel,58.82352941,,,,p,2.342,32,0,32,0,1,,,,,,,,,,,,,,,,,,,,,,,,,,,,
,,,,,,,,,,,,,,,6172fb642fdd00cfee2ab88b,2021-10-27_12h03.57.928,arrow_simon_punish,2021.1.2,MacIntel,58.82352941,,,,p,2.384,33,0,33,0,1,,,,,,,,,,,,,,,,,,,,,,,,,,,,
,,,,,,,,,,,,,,,6172fb642fdd00cfee2ab88b,2021-10-27_12h03.57.928,arrow_simon_punish,2021.1.2,MacIntel,58.82352941,,,,p,2.421,34,0,34,0,1,,,,,,,,,,,,,,,,,,,,,,,,,,,,
,,,,,,,,,,,,,,,6172fb642fdd00cfee2ab88b,2021-10-27_12h03.57.928,arrow_simon_punish,2021.1.2,MacIntel,58.82352941,,,,p,2.47,35,0,35,0,1,,,,,,,,,,,,,,,,,,,,,,,,,,,,
,,,,,,,,,,,,,,,6172fb642fdd00cfee2ab88b,2021-10-27_12h03.57.928,arrow_simon_punish,2021.1.2,MacIntel,58.82352941,,,,p,2.439,36,0,36,0,1,,,,,,,,,,,,,,,,,,,,,,,,,,,,
,,,,,,,,,,,,,,,6172fb642fdd00cfee2ab88b,2021-10-27_12h03.57.928,arrow_simon_punish,2021.1.2,MacIntel,58.82352941,,,,p,2.422,37,0,37,0,1,,,,,,,,,,,,,,,,,,,,,,,,,,,,
,,,,,,,,,,,,,,,6172fb642fdd00cfee2ab88b,2021-10-27_12h03.57.928,arrow_simon_punish,2021.1.2,MacIntel,58.82352941,,,,p,2.438,38,0,38,0,1,,,,,,,,,,,,,,,,,,,,,,,,,,,,
,,,,,,,,,,,,,,,6172fb642fdd00cfee2ab88b,2021-10-27_12h03.57.928,arrow_simon_punish,2021.1.2,MacIntel,58.82352941,,,,p,2.44,39,0,39,0,1,,,,,,,,,,,,,,,,,,,,,,,,,,,,
,,,,,,,,,,,,,,,6172fb642fdd00cfee2ab88b,2021-10-27_12h03.57.928,arrow_simon_punish,2021.1.2,MacIntel,58.82352941,,,,p,2.471,40,0,40,0,1,,,,,,,,,,,,,,,,,,,,,,,,,,,,
,,,,,,,,,,,,,,,6172fb642fdd00cfee2ab88b,2021-10-27_12h03.57.928,arrow_simon_punish,2021.1.2,MacIntel,58.82352941,,,,p,2.455,41,0,41,0,1,,,,,,,,,,,,,,,,,,,,,,,,,,,,
,,,,,,,,,,,,,,,6172fb642fdd00cfee2ab88b,2021-10-27_12h03.57.928,arrow_simon_punish,2021.1.2,MacIntel,58.82352941,,,,p,2.508,42,0,42,0,1,,,,,,,,,,,,,,,,,,,,,,,,,,,,
,,,,,,,,,,,,,,,6172fb642fdd00cfee2ab88b,2021-10-27_12h03.57.928,arrow_simon_punish,2021.1.2,MacIntel,58.82352941,,,,p,2.577,43,0,43,0,1,,,,,,,,,,,,,,,,,,,,,,,,,,,,
,,,,,,,,,,,,,,,6172fb642fdd00cfee2ab88b,2021-10-27_12h03.57.928,arrow_simon_punish,2021.1.2,MacIntel,58.82352941,,,,p,2.624,44,0,44,0,1,,,,,,,,,,,,,,,,,,,,,,,,,,,,
,,,,,,,,,,,,,,,6172fb642fdd00cfee2ab88b,2021-10-27_12h03.57.928,arrow_simon_punish,2021.1.2,MacIntel,58.82352941,,,,p,2.406,45,0,45,0,1,,,,,,,,,,,,,,,,,,,,,,,,,,,,
,,,,,,,,,,,,,,,6172fb642fdd00cfee2ab88b,2021-10-27_12h03.57.928,arrow_simon_punish,2021.1.2,MacIntel,58.82352941,,,,p,2.522,46,0,46,0,1,,,,,,,,,,,,,,,,,,,,,,,,,,,,
,,,,,,,,,,,,,,,6172fb642fdd00cfee2ab88b,2021-10-27_12h03.57.928,arrow_simon_punish,2021.1.2,MacIntel,58.82352941,,,,p,2.485,47,0,47,0,1,,,,,,,,,,,,,,,,,,,,,,,,,,,,
,,,,,,,,,,,,,,,6172fb642fdd00cfee2ab88b,2021-10-27_12h03.57.928,arrow_simon_punish,2021.1.2,MacIntel,58.82352941,,,,p,2.64,48,0,48,0,1,,,,,,,,,,,,,,,,,,,,,,,,,,,,
,,,,,,,,,,,,,,,6172fb642fdd00cfee2ab88b,2021-10-27_12h03.57.928,arrow_simon_punish,2021.1.2,MacIntel,58.82352941,,,,p,2.424,49,0,49,0,1,,,,,,,,,,,,,,,,,,,,,,,,,,,,
,,,,,,,,,,,,,,,6172fb642fdd00cfee2ab88b,2021-10-27_12h03.57.928,arrow_simon_punish,2021.1.2,MacIntel,58.82352941,,,,p,2.525,50,0,50,0,1,,,,,,,,,,,,,,,,,,,,,,,,,,,,
,,,,,,,,,,,,,,,6172fb642fdd00cfee2ab88b,2021-10-27_12h03.57.928,arrow_simon_punish,2021.1.2,MacIntel,58.82352941,,,,p,2.627,51,0,51,0,1,,,,,,,,,,,,,,,,,,,,,,,,,,,,
,,,,,,,,,,,,,,,6172fb642fdd00cfee2ab88b,2021-10-27_12h03.57.928,arrow_simon_punish,2021.1.2,MacIntel,58.82352941,,,,p,2.655,52,0,52,0,1,,,,,,,,,,,,,,,,,,,,,,,,,,,,
,,,,,,,,,,,,,,,6172fb642fdd00cfee2ab88b,2021-10-27_12h03.57.928,arrow_simon_punish,2021.1.2,MacIntel,58.82352941,,,,p,2.605,53,0,53,0,1,,,,,,,,,,,,,,,,,,,,,,,,,,,,
,,,,,,,,,,,,,,,6172fb642fdd00cfee2ab88b,2021-10-27_12h03.57.928,arrow_simon_punish,2021.1.2,MacIntel,58.82352941,,,,p,2.477,54,0,54,0,1,,,,,,,,,,,,,,,,,,,,,,,,,,,,
,,,,,,,,,,,,,,,6172fb642fdd00cfee2ab88b,2021-10-27_12h03.57.928,arrow_simon_punish,2021.1.2,MacIntel,58.82352941,,,,p,2.471,55,0,55,0,1,,,,,,,,,,,,,,,,,,,,,,,,,,,,
,,,,,,,,,,,,,,,6172fb642fdd00cfee2ab88b,2021-10-27_12h03.57.928,arrow_simon_punish,2021.1.2,MacIntel,58.82352941,,,,p,2.44,56,0,56,0,1,,,,,,,,,,,,,,,,,,,,,,,,,,,,
,,,,,,,,,,,,,,,6172fb642fdd00cfee2ab88b,2021-10-27_12h03.57.928,arrow_simon_punish,2021.1.2,MacIntel,58.82352941,,,,p,2.388,57,0,57,0,1,,,,,,,,,,,,,,,,,,,,,,,,,,,,
,,,,,,,,,,,,,,,6172fb642fdd00cfee2ab88b,2021-10-27_12h03.57.928,arrow_simon_punish,2021.1.2,MacIntel,58.82352941,,,,p,2.443,58,0,58,0,1,,,,,,,,,,,,,,,,,,,,,,,,,,,,
,,,,,,,,,,,,,,,6172fb642fdd00cfee2ab88b,2021-10-27_12h03.57.928,arrow_simon_punish,2021.1.2,MacIntel,58.82352941,,,,p,2.619,59,0,59,0,1,,,,,,,,,,,,,,,,,,,,,,,,,,,,
,,,,,,,,,,,left.png,,w,right,6172fb642fdd00cfee2ab88b,2021-10-27_12h03.57.928,arrow_simon_punish,2021.1.2,MacIntel,58.82352941,,,,,,,,,,,space,0,64.726,p,0,1.867,1.868405771,1,1,0,0,0,3,1,,,,,,,,,,,,,,
,,,,,,,,,,,left.png,,w,left,6172fb642fdd00cfee2ab88b,2021-10-27_12h03.57.928,arrow_simon_punish,2021.1.2,MacIntel,58.82352941,,,,,,,,,,,,,,w,1,1.241,1.830235075,1,1,0,1,1,2,1,,,,,,,,,,,,,,
,,,,,,,,,,,left.png,,w,right,6172fb642fdd00cfee2ab88b,2021-10-27_12h03.57.928,arrow_simon_punish,2021.1.2,MacIntel,58.82352941,,,,,,,,,,,,,,w,1,4.303,1.748558517,1,1,0,2,2,3,1,,,,,,,,,,,,,,
,,,,,,,,,,,right.png,,p,left,6172fb642fdd00cfee2ab88b,2021-10-27_12h03.57.928,arrow_simon_punish,2021.1.2,MacIntel,58.82352941,,,,,,,,,,,,,,p,1,1.752,2.204307063,1,1,0,3,3,0,1,,,,,,,,,,,,,,
,,,,,,,,,,,left.png,,w,left,6172fb642fdd00cfee2ab88b,2021-10-27_12h03.57.928,arrow_simon_punish,2021.1.2,MacIntel,58.82352941,,,,,,,,,,,,,,w,1,1.006,1.632449737,1,1,1,0,4,2,1,,,,,,,,,,,,,,
,,,,,,,,,,,right.png,,p,left,6172fb642fdd00cfee2ab88b,2021-10-27_12h03.57.928,arrow_simon_punish,2021.1.2,MacIntel,58.82352941,,,,,,,,,,,,,,p,1,1.479,1.689939149,0,1,1,1,5,0,1,,,,,,,,,,,,,,
,,,,,,,,,,,right.png,,p,left,6172fb642fdd00cfee2ab88b,2021-10-27_12h03.57.928,arrow_simon_punish,2021.1.2,MacIntel,58.82352941,,,,,,,,,,,,,,p,1,1.971,2.343296417,1,1,1,2,6,0,1,,,,,,,,,,,,,,
,,,,,,,,,,,left.png,,w,left,6172fb642fdd00cfee2ab88b,2021-10-27_12h03.57.928,arrow_simon_punish,2021.1.2,MacIntel,58.82352941,,,,,,,,,,,,,,w,1,1.541,2.170245582,0,1,1,3,7,2,1,,,,,,,,,,,,,,
,,,,,,,,,,,right.png,,p,right,6172fb642fdd00cfee2ab88b,2021-10-27_12h03.57.928,arrow_simon_punish,2021.1.2,MacIntel,58.82352941,,,,,,,,,,,,,,p,1,1.27,1.618902867,1,1,2,0,8,1,1,,,,,,,,,,,,,,
,,,,,,,,,,,right.png,,p,left,6172fb642fdd00cfee2ab88b,2021-10-27_12h03.57.928,arrow_simon_punish,2021.1.2,MacIntel,58.82352941,,,,,,,,,,,,,,w,0,2.045,2.048654687,1,1,2,1,9,0,1,,,,,,,,,,,,,,
,,,,,,,,,,,right.png,,p,right,6172fb642fdd00cfee2ab88b,2021-10-27_12h03.57.928,arrow_simon_punish,2021.1.2,MacIntel,58.82352941,,,,,,,,,,,,,,p,1,1.874,1.550449314,1,1,2,2,10,1,1,,,,,,,,,,,,,,
,,,,,,,,,,,right.png,,p,left,6172fb642fdd00cfee2ab88b,2021-10-27_12h03.57.928,arrow_simon_punish,2021.1.2,MacIntel,58.82352941,,,,,,,,,,,,,,p,1,1.807,1.82077511,1,1,2,3,11,0,1,,,,,,,,,,,,,,
,,,,,,,,,,,right.png,,p,right,6172fb642fdd00cfee2ab88b,2021-10-27_12h03.57.928,arrow_simon_punish,2021.1.2,MacIntel,58.82352941,,,,,,,,,,,,,,p,1,1.628,2.117351208,1,1,3,0,12,1,1,,,,,,,,,,,,,,
,,,,,,,,,,,left.png,,w,right,6172fb642fdd00cfee2ab88b,2021-10-27_12h03.57.928,arrow_simon_punish,2021.1.2,MacIntel,58.82352941,,,,,,,,,,,,,,w,1,1.274,1.6337977,1,1,3,1,13,3,1,,,,,,,,,,,,,,
,,,,,,,,,,,right.png,,p,right,6172fb642fdd00cfee2ab88b,2021-10-27_12h03.57.928,arrow_simon_punish,2021.1.2,MacIntel,58.82352941,,,,,,,,,,,,,,p,1,1.755,2.432492082,1,1,3,2,14,1,1,,,,,,,,,,,,,,
,,,,,,,,,,,left.png,,w,left,6172fb642fdd00cfee2ab88b,2021-10-27_12h03.57.928,arrow_simon_punish,2021.1.2,MacIntel,58.82352941,,,,,,,,,,,,,,w,1,1.272,1.927799535,1,1,3,3,15,2,1,,,,,,,,,,,,,,
,,,,,,,,,,,right.png,,p,right,6172fb642fdd00cfee2ab88b,2021-10-27_12h03.57.928,arrow_simon_punish,2021.1.2,MacIntel,58.82352941,,,,,,,,,,,,,,p,1,1.579,2.21997263,0,1,4,0,16,1,1,,,,,,,,,,,,,,
,,,,,,,,,,,left.png,,w,left,6172fb642fdd00cfee2ab88b,2021-10-27_12h03.57.928,arrow_simon_punish,2021.1.2,MacIntel,58.82352941,,,,,,,,,,,,,,w,1,1.076,1.658555402,1,1,4,1,17,2,1,,,,,,,,,,,,,,
,,,,,,,,,,,right.png,,p,right,6172fb642fdd00cfee2ab88b,2021-10-27_12h03.57.928,arrow_simon_punish,2021.1.2,MacIntel,58.82352941,,,,,,,,,,,,,,p,1,1.404,2.032924965,0,1,4,2,18,1,1,,,,,,,,,,,,,,
,,,,,,,,,,,left.png,,w,left,6172fb642fdd00cfee2ab88b,2021-10-27_12h03.57.928,arrow_simon_punish,2021.1.2,MacIntel,58.82352941,,,,,,,,,,,,,,w,1,1.571,2.190141548,0,1,4,3,19,2,1,,,,,,,,,,,,,,
,,,,,,,,,,,left.png,,w,left,6172fb642fdd00cfee2ab88b,2021-10-27_12h03.57.928,arrow_simon_punish,2021.1.2,MacIntel,58.82352941,,,,,,,,,,,,,,w,1,1.906,1.933153616,1,1,5,0,20,2,1,,,,,,,,,,,,,,
,,,,,,,,,,,left.png,,w,left,6172fb642fdd00cfee2ab88b,2021-10-27_12h03.57.928,arrow_simon_punish,2021.1.2,MacIntel,58.82352941,,,,,,,,,,,,,,w,1,1.551,2.144731039,0,1,5,1,21,2,1,,,,,,,,,,,,,,
,,,,,,,,,,,left.png,,w,right,6172fb642fdd00cfee2ab88b,2021-10-27_12h03.57.928,arrow_simon_punish,2021.1.2,MacIntel,58.82352941,,,,,,,,,,,,,,p,0,1.905,2.271265543,1,1,5,2,22,3,1,,,,,,,,,,,,,,
,,,,,,,,,,,right.png,,p,right,6172fb642fdd00cfee2ab88b,2021-10-27_12h03.57.928,arrow_simon_punish,2021.1.2,MacIntel,58.82352941,,,,,,,,,,,,,,p,1,1.737,2.123170949,1,1,5,3,23,1,1,,,,,,,,,,,,,,
,,,,,,,,,,,right.png,,p,left,6172fb642fdd00cfee2ab88b,2021-10-27_12h03.57.928,arrow_simon_punish,2021.1.2,MacIntel,58.82352941,,,,,,,,,,,,,,p,1,1.754,1.956071684,1,1,6,0,24,0,1,,,,,,,,,,,,,,
,,,,,,,,,,,right.png,,p,left,6172fb642fdd00cfee2ab88b,2021-10-27_12h03.57.928,arrow_simon_punish,2021.1.2,MacIntel,58.82352941,,,,,,,,,,,,,,p,1,2.161,2.45034712,1,1,6,1,25,0,1,,,,,,,,,,,,,,
,,,,,,,,,,,left.png,,w,right,6172fb642fdd00cfee2ab88b,2021-10-27_12h03.57.928,arrow_simon_punish,2021.1.2,MacIntel,58.82352941,,,,,,,,,,,,,,w,1,1.371,1.808850172,1,1,6,2,26,3,1,,,,,,,,,,,,,,
,,,,,,,,,,,left.png,,w,left,6172fb642fdd00cfee2ab88b,2021-10-27_12h03.57.928,arrow_simon_punish,2021.1.2,MacIntel,58.82352941,,,,,,,,,,,,,,w,1,1.856,1.959988679,1,1,6,3,27,2,1,,,,,,,,,,,,,,
,,,,,,,,,,,left.png,,w,right,6172fb642fdd00cfee2ab88b,2021-10-27_12h03.57.928,arrow_simon_punish,2021.1.2,MacIntel,58.82352941,,,,,,,,,,,,,,p,0,2.087,2.363479008,1,1,7,0,28,3,1,,,,,,,,,,,,,,
,,,,,,,,,,,right.png,,p,left,6172fb642fdd00cfee2ab88b,2021-10-27_12h03.57.928,arrow_simon_punish,2021.1.2,MacIntel,58.82352941,,,,,,,,,,,,,,p,1,3.059,2.201799231,1,1,7,1,29,0,1,,,,,,,,,,,,,,
,,,,,,,,,,,right.png,,p,right,6172fb642fdd00cfee2ab88b,2021-10-27_12h03.57.928,arrow_simon_punish,2021.1.2,MacIntel,58.82352941,,,,,,,,,,,,,,p,1,1.652,2.08471292,1,1,7,2,30,1,1,,,,,,,,,,,,,,
,,,,,,,,,,,right.png,,p,right,6172fb642fdd00cfee2ab88b,2021-10-27_12h03.57.928,arrow_simon_punish,2021.1.2,MacIntel,58.82352941,,,,,,,,,,,,,,p,1,1.384,1.837809396,1,1,7,3,31,1,1,,,,,,,,,,,,,,
,,,,,,,,,,,left.png,,w,left,6172fb642fdd00cfee2ab88b,2021-10-27_12h03.57.928,arrow_simon_punish,2021.1.2,MacIntel,58.82352941,,,,,,,,,,,,,,w,1,1.823,1.685304093,1,1,8,0,32,2,1,,,,,,,,,,,,,,
,,,,,,,,,,,left.png,,w,left,6172fb642fdd00cfee2ab88b,2021-10-27_12h03.57.928,arrow_simon_punish,2021.1.2,MacIntel,58.82352941,,,,,,,,,,,,,,w,1,2.071,2.419593697,1,1,8,1,33,2,1,,,,,,,,,,,,,,
,,,,,,,,,,,right.png,,p,right,6172fb642fdd00cfee2ab88b,2021-10-27_12h03.57.928,arrow_simon_punish,2021.1.2,MacIntel,58.82352941,,,,,,,,,,,,,,p,1,1.237,1.788791902,1,1,8,2,34,1,1,,,,,,,,,,,,,,
,,,,,,,,,,,left.png,,w,left,6172fb642fdd00cfee2ab88b,2021-10-27_12h03.57.928,arrow_simon_punish,2021.1.2,MacIntel,58.82352941,,,,,,,,,,,,,,w,1,2.721,2.294498107,1,1,8,3,35,2,1,,,,,,,,,,,,,,
,,,,,,,,,,,right.png,,p,right,6172fb642fdd00cfee2ab88b,2021-10-27_12h03.57.928,arrow_simon_punish,2021.1.2,MacIntel,58.82352941,,,,,,,,,,,,,,p,1,1.042,1.570164823,1,1,9,0,36,1,1,,,,,,,,,,,,,,
,,,,,,,,,,,right.png,,p,right,6172fb642fdd00cfee2ab88b,2021-10-27_12h03.57.928,arrow_simon_punish,2021.1.2,MacIntel,58.82352941,,,,,,,,,,,,,,p,1,1.609,2.128811549,1,1,9,1,37,1,1,,,,,,,,,,,,,,
,,,,,,,,,,,left.png,,w,left,6172fb642fdd00cfee2ab88b,2021-10-27_12h03.57.928,arrow_simon_punish,2021.1.2,MacIntel,58.82352941,,,,,,,,,,,,,,w,1,1.722,2.281988115,1,1,9,2,38,2,1,,,,,,,,,,,,,,
,,,,,,,,,,,left.png,,w,right,6172fb642fdd00cfee2ab88b,2021-10-27_12h03.57.928,arrow_simon_punish,2021.1.2,MacIntel,58.82352941,,,,,,,,,,,,,,w,1,2.623,2.483648138,1,1,9,3,39,3,1,,,,,,,,,,,,,,
,,,,,,,,,,,right.png,,p,right,6172fb642fdd00cfee2ab88b,2021-10-27_12h03.57.928,arrow_simon_punish,2021.1.2,MacIntel,58.82352941,,,,,,,,,,,,,,p,1,1.66,2.071326553,1,1,10,0,40,1,1,,,,,,,,,,,,,,
,,,,,,,,,,,left.png,,w,left,6172fb642fdd00cfee2ab88b,2021-10-27_12h03.57.928,arrow_simon_punish,2021.1.2,MacIntel,58.82352941,,,,,,,,,,,,,,w,1,1.342,1.768486254,1,1,10,1,41,2,1,,,,,,,,,,,,,,
,,,,,,,,,,,right.png,,p,right,6172fb642fdd00cfee2ab88b,2021-10-27_12h03.57.928,arrow_simon_punish,2021.1.2,MacIntel,58.82352941,,,,,,,,,,,,,,p,1,3.39,2.189674902,1,1,10,2,42,1,1,,,,,,,,,,,,,,
,,,,,,,,,,,left.png,,w,right,6172fb642fdd00cfee2ab88b,2021-10-27_12h03.57.928,arrow_simon_punish,2021.1.2,MacIntel,58.82352941,,,,,,,,,,,,,,w,1,1.21,1.562273854,1,1,10,3,43,3,1,,,,,,,,,,,,,,
,,,,,,,,,,,left.png,,w,right,6172fb642fdd00cfee2ab88b,2021-10-27_12h03.57.928,arrow_simon_punish,2021.1.2,MacIntel,58.82352941,,,,,,,,,,,,,,w,1,2.322,2.344319536,1,1,11,0,44,3,1,,,,,,,,,,,,,,
,,,,,,,,,,,left.png,,w,right,6172fb642fdd00cfee2ab88b,2021-10-27_12h03.57.928,arrow_simon_punish,2021.1.2,MacIntel,58.82352941,,,,,,,,,,,,,,p,0,2.092,2.481346746,1,1,11,1,45,3,1,,,,,,,,,,,,,,
,,,,,,,,,,,left.png,,w,left,6172fb642fdd00cfee2ab88b,2021-10-27_12h03.57.928,arrow_simon_punish,2021.1.2,MacIntel,58.82352941,,,,,,,,,,,,,,w,1,2.223,1.820265143,1,1,11,2,46,2,1,,,,,,,,,,,,,,
,,,,,,,,,,,right.png,,p,left,6172fb642fdd00cfee2ab88b,2021-10-27_12h03.57.928,arrow_simon_punish,2021.1.2,MacIntel,58.82352941,,,,,,,,,,,,,,p,1,2.087,2.320394794,1,1,11,3,47,0,1,,,,,,,,,,,,,,
,,,,,,,,,,,right.png,,p,right,6172fb642fdd00cfee2ab88b,2021-10-27_12h03.57.928,arrow_simon_punish,2021.1.2,MacIntel,58.82352941,,,,,,,,,,,,,,p,1,1.877,2.291284226,1,1,12,0,48,1,1,,,,,,,,,,,,,,
,,,,,,,,,,,left.png,,w,right,6172fb642fdd00cfee2ab88b,2021-10-27_12h03.57.928,arrow_simon_punish,2021.1.2,MacIntel,58.82352941,,,,,,,,,,,,,,w,1,1.693,1.994843598,1,1,12,1,49,3,1,,,,,,,,,,,,,,
,,,,,,,,,,,right.png,,p,left,6172fb642fdd00cfee2ab88b,2021-10-27_12h03.57.928,arrow_simon_punish,2021.1.2,MacIntel,58.82352941,,,,,,,,,,,,,,p,1,2.176,1.705652002,1,1,12,2,50,0,1,,,,,,,,,,,,,,
,,,,,,,,,,,left.png,,w,right,6172fb642fdd00cfee2ab88b,2021-10-27_12h03.57.928,arrow_simon_punish,2021.1.2,MacIntel,58.82352941,,,,,,,,,,,,,,w,1,2.028,2.063217809,1,1,12,3,51,3,1,,,,,,,,,,,,,,
,,,,,,,,,,,right.png,,p,left,6172fb642fdd00cfee2ab88b,2021-10-27_12h03.57.928,arrow_simon_punish,2021.1.2,MacIntel,58.82352941,,,,,,,,,,,,,,p,1,1.555,1.502203829,0,1,13,0,52,0,1,,,,,,,,,,,,,,
,,,,,,,,,,,left.png,,w,right,6172fb642fdd00cfee2ab88b,2021-10-27_12h03.57.928,arrow_simon_punish,2021.1.2,MacIntel,58.82352941,,,,,,,,,,,,,,w,1,1.691,1.699300319,1,1,13,1,53,3,1,,,,,,,,,,,,,,
,,,,,,,,,,,right.png,,p,left,6172fb642fdd00cfee2ab88b,2021-10-27_12h03.57.928,arrow_simon_punish,2021.1.2,MacIntel,58.82352941,,,,,,,,,,,,,,p,1,1.643,1.678863844,1,1,13,2,54,0,1,,,,,,,,,,,,,,
,,,,,,,,,,,left.png,,w,right,6172fb642fdd00cfee2ab88b,2021-10-27_12h03.57.928,arrow_simon_punish,2021.1.2,MacIntel,58.82352941,,,,,,,,,,,,,,w,1,1.673,2.09694448,1,1,13,3,55,3,1,,,,,,,,,,,,,,
,,,,,,,,,,,left.png,,w,right,6172fb642fdd00cfee2ab88b,2021-10-27_12h03.57.928,arrow_simon_punish,2021.1.2,MacIntel,58.82352941,,,,,,,,,,,,,,w,1,1.905,2.237987991,1,1,14,0,56,3,1,,,,,,,,,,,,,,
,,,,,,,,,,,right.png,,p,left,6172fb642fdd00cfee2ab88b,2021-10-27_12h03.57.928,arrow_simon_punish,2021.1.2,MacIntel,58.82352941,,,,,,,,,,,,,,p,1,1.976,2.356014883,1,1,14,1,57,0,1,,,,,,,,,,,,,,
,,,,,,,,,,,right.png,,p,left,6172fb642fdd00cfee2ab88b,2021-10-27_12h03.57.928,arrow_simon_punish,2021.1.2,MacIntel,58.82352941,,,,,,,,,,,,,,p,1,2.472,2.28393671,1,1,14,2,58,0,1,,,,,,,,,,,,,,
,,,,,,,,,,,right.png,,p,left,6172fb642fdd00cfee2ab88b,2021-10-27_12h03.57.928,arrow_simon_punish,2021.1.2,MacIntel,58.82352941,,,,,,,,,,,,,,w,0,1.472,2.022859925,1,1,14,3,59,0,1,,,,,,,,,,,,,,
,,,,,,,,,,,,,,,6172fb642fdd00cfee2ab88b,2021-10-27_12h03.57.928,arrow_simon_punish,2021.1.2,MacIntel,58.82352941,,,,,,,,,,,,,,,,,,,,,,,,,space,15.148,2,0,0,0,0,1,1,,,,,
,,,,,,,,,,,left.png,,w,left,6172fb642fdd00cfee2ab88b,2021-10-27_12h03.57.928,arrow_simon_punish,2021.1.2,MacIntel,58.82352941,,,,,,,,,,,,,,w,1,1.739,2.288504099,1,5,0,0,0,2,1,,,,,,,,,,,,,,
,,,,,,,,,,,left.png,,w,right,6172fb642fdd00cfee2ab88b,2021-10-27_12h03.57.928,arrow_simon_punish,2021.1.2,MacIntel,58.82352941,,,,,,,,,,,,,,p,0,1.619,2.348407196,1,5,0,1,1,3,1,,,,,,,,,,,,,,
,,,,,,,,,,,left.png,,w,right,6172fb642fdd00cfee2ab88b,2021-10-27_12h03.57.928,arrow_simon_punish,2021.1.2,MacIntel,58.82352941,,,,,,,,,,,,,,p,0,1.172,1.583122812,1,5,0,2,2,3,1,,,,,,,,,,,,,,
,,,,,,,,,,,right.png,,p,left,6172fb642fdd00cfee2ab88b,2021-10-27_12h03.57.928,arrow_simon_punish,2021.1.2,MacIntel,58.82352941,,,,,,,,,,,,,,p,1,1.985,2.113558316,1,5,0,3,3,0,1,,,,,,,,,,,,,,
,,,,,,,,,,,left.png,,w,right,6172fb642fdd00cfee2ab88b,2021-10-27_12h03.57.928,arrow_simon_punish,2021.1.2,MacIntel,58.82352941,,,,,,,,,,,,,,w,1,1.608,1.843974181,1,5,1,0,4,3,1,,,,,,,,,,,,,,
,,,,,,,,,,,right.png,,p,right,6172fb642fdd00cfee2ab88b,2021-10-27_12h03.57.928,arrow_simon_punish,2021.1.2,MacIntel,58.82352941,,,,,,,,,,,,,,p,1,1.375,1.565627637,1,5,1,1,5,1,1,,,,,,,,,,,,,,
,,,,,,,,,,,left.png,,w,left,6172fb642fdd00cfee2ab88b,2021-10-27_12h03.57.928,arrow_simon_punish,2021.1.2,MacIntel,58.82352941,,,,,,,,,,,,,,w,1,2.525,2.121727041,1,5,1,2,6,2,1,,,,,,,,,,,,,,
,,,,,,,,,,,left.png,,w,left,6172fb642fdd00cfee2ab88b,2021-10-27_12h03.57.928,arrow_simon_punish,2021.1.2,MacIntel,58.82352941,,,,,,,,,,,,,,w,1,1.84,2.360181117,1,5,1,3,7,2,1,,,,,,,,,,,,,,
,,,,,,,,,,,left.png,,w,right,6172fb642fdd00cfee2ab88b,2021-10-27_12h03.57.928,arrow_simon_punish,2021.1.2,MacIntel,58.82352941,,,,,,,,,,,,,,w,1,1.854,1.583497179,1,5,2,0,8,3,1,,,,,,,,,,,,,,
,,,,,,,,,,,right.png,,p,right,6172fb642fdd00cfee2ab88b,2021-10-27_12h03.57.928,arrow_simon_punish,2021.1.2,MacIntel,58.82352941,,,,,,,,,,,,,,p,1,1.739,1.840440952,1,5,2,1,9,1,1,,,,,,,,,,,,,,
,,,,,,,,,,,left.png,,w,right,6172fb642fdd00cfee2ab88b,2021-10-27_12h03.57.928,arrow_simon_punish,2021.1.2,MacIntel,58.82352941,,,,,,,,,,,,,,w,1,2.071,1.723378575,1,5,2,2,10,3,1,,,,,,,,,,,,,,
,,,,,,,,,,,right.png,,p,left,6172fb642fdd00cfee2ab88b,2021-10-27_12h03.57.928,arrow_simon_punish,2021.1.2,MacIntel,58.82352941,,,,,,,,,,,,,,p,1,2.17,2.248019732,1,5,2,3,11,0,1,,,,,,,,,,,,,,
,,,,,,,,,,,right.png,,p,right,6172fb642fdd00cfee2ab88b,2021-10-27_12h03.57.928,arrow_simon_punish,2021.1.2,MacIntel,58.82352941,,,,,,,,,,,,,,p,1,1.809,1.712719512,1,5,3,0,12,1,1,,,,,,,,,,,,,,
,,,,,,,,,,,left.png,,w,right,6172fb642fdd00cfee2ab88b,2021-10-27_12h03.57.928,arrow_simon_punish,2021.1.2,MacIntel,58.82352941,,,,,,,,,,,,,,w,1,1.576,1.791131594,0,5,3,1,13,3,1,,,,,,,,,,,,,,
,,,,,,,,,,,right.png,,p,right,6172fb642fdd00cfee2ab88b,2021-10-27_12h03.57.928,arrow_simon_punish,2021.1.2,MacIntel,58.82352941,,,,,,,,,,,,,,p,1,1.358,1.728470841,1,5,3,2,14,1,1,,,,,,,,,,,,,,
,,,,,,,,,,,left.png,,w,right,6172fb642fdd00cfee2ab88b,2021-10-27_12h03.57.928,arrow_simon_punish,2021.1.2,MacIntel,58.82352941,,,,,,,,,,,,,,w,1,1.388,1.768130125,1,5,3,3,15,3,1,,,,,,,,,,,,,,
,,,,,,,,,,,right.png,,p,right,6172fb642fdd00cfee2ab88b,2021-10-27_12h03.57.928,arrow_simon_punish,2021.1.2,MacIntel,58.82352941,,,,,,,,,,,,,,p,1,1.413,1.840424976,0,5,4,0,16,1,1,,,,,,,,,,,,,,
,,,,,,,,,,,right.png,,p,left,6172fb642fdd00cfee2ab88b,2021-10-27_12h03.57.928,arrow_simon_punish,2021.1.2,MacIntel,58.82352941,,,,,,,,,,,,,,p,1,1.641,2.030036974,1,5,4,1,17,0,1,,,,,,,,,,,,,,
,,,,,,,,,,,right.png,,p,left,6172fb642fdd00cfee2ab88b,2021-10-27_12h03.57.928,arrow_simon_punish,2021.1.2,MacIntel,58.82352941,,,,,,,,,,,,,,p,1,2.006,2.465376505,1,5,4,2,18,0,1,,,,,,,,,,,,,,
,,,,,,,,,,,right.png,,p,left,6172fb642fdd00cfee2ab88b,2021-10-27_12h03.57.928,arrow_simon_punish,2021.1.2,MacIntel,58.82352941,,,,,,,,,,,,,,w,0,1.579,2.129878786,1,5,4,3,19,0,1,,,,,,,,,,,,,,
,,,,,,,,,,,left.png,,w,left,6172fb642fdd00cfee2ab88b,2021-10-27_12h03.57.928,arrow_simon_punish,2021.1.2,MacIntel,58.82352941,,,,,,,,,,,,,,w,1,1.488,1.882039083,0,5,5,0,20,2,1,,,,,,,,,,,,,,
,,,,,,,,,,,left.png,,w,left,6172fb642fdd00cfee2ab88b,2021-10-27_12h03.57.928,arrow_simon_punish,2021.1.2,MacIntel,58.82352941,,,,,,,,,,,,,,w,1,1.489,1.97925961,0,5,5,1,21,2,1,,,,,,,,,,,,,,
,,,,,,,,,,,left.png,,w,right,6172fb642fdd00cfee2ab88b,2021-10-27_12h03.57.928,arrow_simon_punish,2021.1.2,MacIntel,58.82352941,,,,,,,,,,,,,,w,1,2.089,2.000381472,1,5,5,2,22,3,1,,,,,,,,,,,,,,
,,,,,,,,,,,right.png,,p,right,6172fb642fdd00cfee2ab88b,2021-10-27_12h03.57.928,arrow_simon_punish,2021.1.2,MacIntel,58.82352941,,,,,,,,,,,,,,p,1,1.843,2.140898216,1,5,5,3,23,1,1,,,,,,,,,,,,,,
,,,,,,,,,,,left.png,,w,right,6172fb642fdd00cfee2ab88b,2021-10-27_12h03.57.928,arrow_simon_punish,2021.1.2,MacIntel,58.82352941,,,,,,,,,,,,,,w,1,2.204,1.693846943,1,5,6,0,24,3,1,,,,,,,,,,,,,,
,,,,,,,,,,,left.png,,w,right,6172fb642fdd00cfee2ab88b,2021-10-27_12h03.57.928,arrow_simon_punish,2021.1.2,MacIntel,58.82352941,,,,,,,,,,,,,,w,1,2.244,2.067227472,1,5,6,1,25,3,1,,,,,,,,,,,,,,
,,,,,,,,,,,left.png,,w,left,6172fb642fdd00cfee2ab88b,2021-10-27_12h03.57.928,arrow_simon_punish,2021.1.2,MacIntel,58.82352941,,,,,,,,,,,,,,w,1,1.64,2.131195292,1,5,6,2,26,2,1,,,,,,,,,,,,,,
,,,,,,,,,,,right.png,,p,left,6172fb642fdd00cfee2ab88b,2021-10-27_12h03.57.928,arrow_simon_punish,2021.1.2,MacIntel,58.82352941,,,,,,,,,,,,,,p,1,2.056,1.936291617,1,5,6,3,27,0,1,,,,,,,,,,,,,,
,,,,,,,,,,,right.png,,p,right,6172fb642fdd00cfee2ab88b,2021-10-27_12h03.57.928,arrow_simon_punish,2021.1.2,MacIntel,58.82352941,,,,,,,,,,,,,,p,1,2.441,2.353263151,1,5,7,0,28,1,1,,,,,,,,,,,,,,
,,,,,,,,,,,left.png,,w,right,6172fb642fdd00cfee2ab88b,2021-10-27_12h03.57.928,arrow_simon_punish,2021.1.2,MacIntel,58.82352941,,,,,,,,,,,,,,w,1,1.837,1.862707393,1,5,7,1,29,3,1,,,,,,,,,,,,,,
,,,,,,,,,,,right.png,,p,right,6172fb642fdd00cfee2ab88b,2021-10-27_12h03.57.928,arrow_simon_punish,2021.1.2,MacIntel,58.82352941,,,,,,,,,,,,,,p,1,1.387,1.579222913,1,5,7,2,30,1,1,,,,,,,,,,,,,,
,,,,,,,,,,,right.png,,p,left,6172fb642fdd00cfee2ab88b,2021-10-27_12h03.57.928,arrow_simon_punish,2021.1.2,MacIntel,58.82352941,,,,,,,,,,,,,,p,1,1.306,1.675403902,1,5,7,3,31,0,1,,,,,,,,,,,,,,
,,,,,,,,,,,left.png,,w,left,6172fb642fdd00cfee2ab88b,2021-10-27_12h03.57.928,arrow_simon_punish,2021.1.2,MacIntel,58.82352941,,,,,,,,,,,,,,w,1,1.545,1.912905718,0,5,8,0,32,2,1,,,,,,,,,,,,,,
,,,,,,,,,,,left.png,,w,right,6172fb642fdd00cfee2ab88b,2021-10-27_12h03.57.928,arrow_simon_punish,2021.1.2,MacIntel,58.82352941,,,,,,,,,,,,,,w,1,2.169,2.220141164,1,5,8,1,33,3,1,,,,,,,,,,,,,,
,,,,,,,,,,,right.png,,p,left,6172fb642fdd00cfee2ab88b,2021-10-27_12h03.57.928,arrow_simon_punish,2021.1.2,MacIntel,58.82352941,,,,,,,,,,,,,,p,1,1.788,2.039010438,1,5,8,2,34,0,1,,,,,,,,,,,,,,
,,,,,,,,,,,left.png,,w,left,6172fb642fdd00cfee2ab88b,2021-10-27_12h03.57.928,arrow_simon_punish,2021.1.2,MacIntel,58.82352941,,,,,,,,,,,,,,w,1,1.589,1.929764011,0,5,8,3,35,2,1,,,,,,,,,,,,,,
,,,,,,,,,,,right.png,,p,right,6172fb642fdd00cfee2ab88b,2021-10-27_12h03.57.928,arrow_simon_punish,2021.1.2,MacIntel,58.82352941,,,,,,,,,,,,,,p,1,1.79,2.383364381,1,5,9,0,36,1,1,,,,,,,,,,,,,,
,,,,,,,,,,,right.png,,p,right,6172fb642fdd00cfee2ab88b,2021-10-27_12h03.57.928,arrow_simon_punish,2021.1.2,MacIntel,58.82352941,,,,,,,,,,,,,,p,1,2.006,2.460044144,1,5,9,1,37,1,1,,,,,,,,,,,,,,
,,,,,,,,,,,left.png,,w,left,6172fb642fdd00cfee2ab88b,2021-10-27_12h03.57.928,arrow_simon_punish,2021.1.2,MacIntel,58.82352941,,,,,,,,,,,,,,w,1,1.47,2.036842,0,5,9,2,38,2,1,,,,,,,,,,,,,,
,,,,,,,,,,,left.png,,w,left,6172fb642fdd00cfee2ab88b,2021-10-27_12h03.57.928,arrow_simon_punish,2021.1.2,MacIntel,58.82352941,,,,,,,,,,,,,,w,1,1.538,2.079818015,0,5,9,3,39,2,1,,,,,,,,,,,,,,
,,,,,,,,,,,left.png,,w,left,6172fb642fdd00cfee2ab88b,2021-10-27_12h03.57.928,arrow_simon_punish,2021.1.2,MacIntel,58.82352941,,,,,,,,,,,,,,w,1,1.755,2.341919486,1,5,10,0,40,2,1,,,,,,,,,,,,,,
,,,,,,,,,,,right.png,,p,right,6172fb642fdd00cfee2ab88b,2021-10-27_12h03.57.928,arrow_simon_punish,2021.1.2,MacIntel,58.82352941,,,,,,,,,,,,,,p,1,1.57,2.067086069,0,5,10,1,41,1,1,,,,,,,,,,,,,,
,,,,,,,,,,,left.png,,w,right,6172fb642fdd00cfee2ab88b,2021-10-27_12h03.57.928,arrow_simon_punish,2021.1.2,MacIntel,58.82352941,,,,,,,,,,,,,,w,1,2.289,2.403541116,1,5,10,2,42,3,1,,,,,,,,,,,,,,
,,,,,,,,,,,right.png,,p,left,6172fb642fdd00cfee2ab88b,2021-10-27_12h03.57.928,arrow_simon_punish,2021.1.2,MacIntel,58.82352941,,,,,,,,,,,,,,p,1,2.553,2.046769898,1,5,10,3,43,0,1,,,,,,,,,,,,,,
,,,,,,,,,,,right.png,,p,left,6172fb642fdd00cfee2ab88b,2021-10-27_12h03.57.928,arrow_simon_punish,2021.1.2,MacIntel,58.82352941,,,,,,,,,,,,,,p,1,1.655,1.50448989,1,5,11,0,44,0,1,,,,,,,,,,,,,,
,,,,,,,,,,,left.png,,w,left,6172fb642fdd00cfee2ab88b,2021-10-27_12h03.57.928,arrow_simon_punish,2021.1.2,MacIntel,58.82352941,,,,,,,,,,,,,,w,1,1.373,1.965090121,1,5,11,1,45,2,1,,,,,,,,,,,,,,
,,,,,,,,,,,left.png,,w,right,6172fb642fdd00cfee2ab88b,2021-10-27_12h03.57.928,arrow_simon_punish,2021.1.2,MacIntel,58.82352941,,,,,,,,,,,,,,w,1,2.044,1.990861581,1,5,11,2,46,3,1,,,,,,,,,,,,,,
,,,,,,,,,,,right.png,,p,right,6172fb642fdd00cfee2ab88b,2021-10-27_12h03.57.928,arrow_simon_punish,2021.1.2,MacIntel,58.82352941,,,,,,,,,,,,,,p,1,1.917,1.642801537,1,5,11,3,47,1,1,,,,,,,,,,,,,,
,,,,,,,,,,,right.png,,p,left,6172fb642fdd00cfee2ab88b,2021-10-27_12h03.57.928,arrow_simon_punish,2021.1.2,MacIntel,58.82352941,,,,,,,,,,,,,,p,1,2.072,1.678485379,1,5,12,0,48,0,1,,,,,,,,,,,,,,
,,,,,,,,,,,left.png,,w,left,6172fb642fdd00cfee2ab88b,2021-10-27_12h03.57.928,arrow_simon_punish,2021.1.2,MacIntel,58.82352941,,,,,,,,,,,,,,w,1,2.022,2.487535395,1,5,12,1,49,2,1,,,,,,,,,,,,,,
,,,,,,,,,,,left.png,,w,left,6172fb642fdd00cfee2ab88b,2021-10-27_12h03.57.928,arrow_simon_punish,2021.1.2,MacIntel,58.82352941,,,,,,,,,,,,,,w,1,1.343,1.877903988,1,5,12,2,50,2,1,,,,,,,,,,,,,,
,,,,,,,,,,,right.png,,p,left,6172fb642fdd00cfee2ab88b,2021-10-27_12h03.57.928,arrow_simon_punish,2021.1.2,MacIntel,58.82352941,,,,,,,,,,,,,,p,1,2.142,2.408801922,1,5,12,3,51,0,1,,,,,,,,,,,,,,
,,,,,,,,,,,right.png,,p,right,6172fb642fdd00cfee2ab88b,2021-10-27_12h03.57.928,arrow_simon_punish,2021.1.2,MacIntel,58.82352941,,,,,,,,,,,,,,p,1,1.559,1.848162067,0,5,13,0,52,1,1,,,,,,,,,,,,,,
,,,,,,,,,,,left.png,,w,right,6172fb642fdd00cfee2ab88b,2021-10-27_12h03.57.928,arrow_simon_punish,2021.1.2,MacIntel,58.82352941,,,,,,,,,,,,,,w,1,1.573,1.982709652,0,5,13,1,53,3,1,,,,,,,,,,,,,,
,,,,,,,,,,,right.png,,p,left,6172fb642fdd00cfee2ab88b,2021-10-27_12h03.57.928,arrow_simon_punish,2021.1.2,MacIntel,58.82352941,,,,,,,,,,,,,,p,1,1.256,1.634121612,1,5,13,2,54,0,1,,,,,,,,,,,,,,
,,,,,,,,,,,right.png,,p,right,6172fb642fdd00cfee2ab88b,2021-10-27_12h03.57.928,arrow_simon_punish,2021.1.2,MacIntel,58.82352941,,,,,,,,,,,,,,p,1,1.756,2.379540018,1,5,13,3,55,1,1,,,,,,,,,,,,,,
,,,,,,,,,,,left.png,,w,left,6172fb642fdd00cfee2ab88b,2021-10-27_12h03.57.928,arrow_simon_punish,2021.1.2,MacIntel,58.82352941,,,,,,,,,,,,,,w,1,0.988,1.531684554,1,5,14,0,56,2,1,,,,,,,,,,,,,,
,,,,,,,,,,,right.png,,p,left,6172fb642fdd00cfee2ab88b,2021-10-27_12h03.57.928,arrow_simon_punish,2021.1.2,MacIntel,58.82352941,,,,,,,,,,,,,,p,1,1.956,2.412951445,1,5,14,1,57,0,1,,,,,,,,,,,,,,
,,,,,,,,,,,right.png,,p,right,6172fb642fdd00cfee2ab88b,2021-10-27_12h03.57.928,arrow_simon_punish,2021.1.2,MacIntel,58.82352941,,,,,,,,,,,,,,p,1,1.961,2.084081115,1,5,14,2,58,1,1,,,,,,,,,,,,,,
,,,,,,,,,,,right.png,,p,left,6172fb642fdd00cfee2ab88b,2021-10-27_12h03.57.928,arrow_simon_punish,2021.1.2,MacIntel,58.82352941,,,,,,,,,,,,,,p,1,2.79,2.225489968,1,5,14,3,59,0,1,,,,,,,,,,,,,,
,,,,,,,,,,,,,,,6172fb642fdd00cfee2ab88b,2021-10-27_12h03.57.928,arrow_simon_punish,2021.1.2,MacIntel,58.82352941,,,,,,,,,,,,,,,,,,,,,,,,,space,114.666,3,0,1,1,1,1,5,,,,,
,,,,,,,,,,,right.png,,p,right,6172fb642fdd00cfee2ab88b,2021-10-27_12h03.57.928,arrow_simon_punish,2021.1.2,MacIntel,58.82352941,,,,,,,,,,,,,,p,1,1.056,1.63870658,1,1,0,0,0,1,1,,,,,,,,,,,,,,
,,,,,,,,,,,right.png,,p,left,6172fb642fdd00cfee2ab88b,2021-10-27_12h03.57.928,arrow_simon_punish,2021.1.2,MacIntel,58.82352941,,,,,,,,,,,,,,w,0,1.626,2.233820051,1,1,0,1,1,0,1,,,,,,,,,,,,,,
,,,,,,,,,,,right.png,,p,right,6172fb642fdd00cfee2ab88b,2021-10-27_12h03.57.928,arrow_simon_punish,2021.1.2,MacIntel,58.82352941,,,,,,,,,,,,,,p,1,1.337,1.908044026,1,1,0,2,2,1,1,,,,,,,,,,,,,,
,,,,,,,,,,,right.png,,p,left,6172fb642fdd00cfee2ab88b,2021-10-27_12h03.57.928,arrow_simon_punish,2021.1.2,MacIntel,58.82352941,,,,,,,,,,,,,,p,1,1.526,1.816733413,0,1,0,3,3,0,1,,,,,,,,,,,,,,
,,,,,,,,,,,left.png,,w,right,6172fb642fdd00cfee2ab88b,2021-10-27_12h03.57.928,arrow_simon_punish,2021.1.2,MacIntel,58.82352941,,,,,,,,,,,,,,w,1,1.877,2.336815091,1,1,1,0,4,3,1,,,,,,,,,,,,,,
,,,,,,,,,,,right.png,,p,right,6172fb642fdd00cfee2ab88b,2021-10-27_12h03.57.928,arrow_simon_punish,2021.1.2,MacIntel,58.82352941,,,,,,,,,,,,,,p,1,1.735,1.961660271,1,1,1,1,5,1,1,,,,,,,,,,,,,,
,,,,,,,,,,,left.png,,w,right,6172fb642fdd00cfee2ab88b,2021-10-27_12h03.57.928,arrow_simon_punish,2021.1.2,MacIntel,58.82352941,,,,,,,,,,,,,,w,1,1.222,1.528783487,1,1,1,2,6,3,1,,,,,,,,,,,,,,
,,,,,,,,,,,left.png,,w,left,6172fb642fdd00cfee2ab88b,2021-10-27_12h03.57.928,arrow_simon_punish,2021.1.2,MacIntel,58.82352941,,,,,,,,,,,,,,w,1,1.307,1.774429456,1,1,1,3,7,2,1,,,,,,,,,,,,,,
,,,,,,,,,,,right.png,,p,left,6172fb642fdd00cfee2ab88b,2021-10-27_12h03.57.928,arrow_simon_punish,2021.1.2,MacIntel,58.82352941,,,,,,,,,,,,,,p,1,1.827,2.247411791,1,1,2,0,8,0,1,,,,,,,,,,,,,,
,,,,,,,,,,,right.png,,p,left,6172fb642fdd00cfee2ab88b,2021-10-27_12h03.57.928,arrow_simon_punish,2021.1.2,MacIntel,58.82352941,,,,,,,,,,,,,,p,1,1.918,2.338403783,1,1,2,1,9,0,1,,,,,,,,,,,,,,
,,,,,,,,,,,right.png,,p,right,6172fb642fdd00cfee2ab88b,2021-10-27_12h03.57.928,arrow_simon_punish,2021.1.2,MacIntel,58.82352941,,,,,,,,,,,,,,p,1,1.105,1.556837495,1,1,2,2,10,1,1,,,,,,,,,,,,,,
,,,,,,,,,,,left.png,,w,left,6172fb642fdd00cfee2ab88b,2021-10-27_12h03.57.928,arrow_simon_punish,2021.1.2,MacIntel,58.82352941,,,,,,,,,,,,,,w,1,2.439,2.405946393,1,1,2,3,11,2,1,,,,,,,,,,,,,,
,,,,,,,,,,,right.png,,p,right,6172fb642fdd00cfee2ab88b,2021-10-27_12h03.57.928,arrow_simon_punish,2021.1.2,MacIntel,58.82352941,,,,,,,,,,,,,,p,1,1.623,2.098804078,1,1,3,0,12,1,1,,,,,,,,,,,,,,
,,,,,,,,,,,right.png,,p,left,6172fb642fdd00cfee2ab88b,2021-10-27_12h03.57.928,arrow_simon_punish,2021.1.2,MacIntel,58.82352941,,,,,,,,,,,,,,p,1,1.525,1.921109877,0,1,3,1,13,0,1,,,,,,,,,,,,,,
,,,,,,,,,,,left.png,,w,left,6172fb642fdd00cfee2ab88b,2021-10-27_12h03.57.928,arrow_simon_punish,2021.1.2,MacIntel,58.82352941,,,,,,,,,,,,,,w,1,1.288,1.762274616,1,1,3,2,14,2,1,,,,,,,,,,,,,,
,,,,,,,,,,,right.png,,p,right,6172fb642fdd00cfee2ab88b,2021-10-27_12h03.57.928,arrow_simon_punish,2021.1.2,MacIntel,58.82352941,,,,,,,,,,,,,,p,1,1.675,2.148400287,1,1,3,3,15,1,1,,,,,,,,,,,,,,
,,,,,,,,,,,left.png,,w,right,6172fb642fdd00cfee2ab88b,2021-10-27_12h03.57.928,arrow_simon_punish,2021.1.2,MacIntel,58.82352941,,,,,,,,,,,,,,w,1,1.776,2.257977832,1,1,4,0,16,3,1,,,,,,,,,,,,,,
,,,,,,,,,,,right.png,,p,right,6172fb642fdd00cfee2ab88b,2021-10-27_12h03.57.928,arrow_simon_punish,2021.1.2,MacIntel,58.82352941,,,,,,,,,,,,,,p,1,1.142,1.568508393,1,1,4,1,17,1,1,,,,,,,,,,,,,,
,,,,,,,,,,,left.png,,w,right,6172fb642fdd00cfee2ab88b,2021-10-27_12h03.57.928,arrow_simon_punish,2021.1.2,MacIntel,58.82352941,,,,,,,,,,,,,,w,1,1.759,2.2222,1,1,4,2,18,3,1,,,,,,,,,,,,,,
,,,,,,,,,,,right.png,,p,left,6172fb642fdd00cfee2ab88b,2021-10-27_12h03.57.928,arrow_simon_punish,2021.1.2,MacIntel,58.82352941,,,,,,,,,,,,,,p,1,1.225,1.595766119,1,1,4,3,19,0,1,,,,,,,,,,,,,,
,,,,,,,,,,,left.png,,w,right,6172fb642fdd00cfee2ab88b,2021-10-27_12h03.57.928,arrow_simon_punish,2021.1.2,MacIntel,58.82352941,,,,,,,,,,,,,,w,1,1.142,1.565889889,1,1,5,0,20,3,1,,,,,,,,,,,,,,
,,,,,,,,,,,left.png,,w,right,6172fb642fdd00cfee2ab88b,2021-10-27_12h03.57.928,arrow_simon_punish,2021.1.2,MacIntel,58.82352941,,,,,,,,,,,,,,w,1,1.338,1.798174274,1,1,5,1,21,3,1,,,,,,,,,,,,,,
,,,,,,,,,,,left.png,,w,left,6172fb642fdd00cfee2ab88b,2021-10-27_12h03.57.928,arrow_simon_punish,2021.1.2,MacIntel,58.82352941,,,,,,,,,,,,,,w,1,1.438,1.94549753,0,1,5,2,22,2,1,,,,,,,,,,,,,,
,,,,,,,,,,,right.png,,p,right,6172fb642fdd00cfee2ab88b,2021-10-27_12h03.57.928,arrow_simon_punish,2021.1.2,MacIntel,58.82352941,,,,,,,,,,,,,,p,1,1.773,2.484653597,1,1,5,3,23,1,1,,,,,,,,,,,,,,
,,,,,,,,,,,right.png,,p,left,6172fb642fdd00cfee2ab88b,2021-10-27_12h03.57.928,arrow_simon_punish,2021.1.2,MacIntel,58.82352941,,,,,,,,,,,,,,p,1,2.459,2.078960557,1,1,6,0,24,0,1,,,,,,,,,,,,,,
,,,,,,,,,,,right.png,,p,right,6172fb642fdd00cfee2ab88b,2021-10-27_12h03.57.928,arrow_simon_punish,2021.1.2,MacIntel,58.82352941,,,,,,,,,,,,,,p,1,1.471,1.982200452,0,1,6,1,25,1,1,,,,,,,,,,,,,,
,,,,,,,,,,,left.png,,w,left,6172fb642fdd00cfee2ab88b,2021-10-27_12h03.57.928,arrow_simon_punish,2021.1.2,MacIntel,58.82352941,,,,,,,,,,,,,,w,1,1.236,1.809082524,1,1,6,2,26,2,1,,,,,,,,,,,,,,
,,,,,,,,,,,right.png,,p,left,6172fb642fdd00cfee2ab88b,2021-10-27_12h03.57.928,arrow_simon_punish,2021.1.2,MacIntel,58.82352941,,,,,,,,,,,,,,p,1,1.895,1.905424959,1,1,6,3,27,0,1,,,,,,,,,,,,,,
,,,,,,,,,,,right.png,,p,left,6172fb642fdd00cfee2ab88b,2021-10-27_12h03.57.928,arrow_simon_punish,2021.1.2,MacIntel,58.82352941,,,,,,,,,,,,,,p,1,1.638,1.686458914,1,1,7,0,28,0,1,,,,,,,,,,,,,,
,,,,,,,,,,,left.png,,w,right,6172fb642fdd00cfee2ab88b,2021-10-27_12h03.57.928,arrow_simon_punish,2021.1.2,MacIntel,58.82352941,,,,,,,,,,,,,,w,1,1.072,1.668985148,1,1,7,1,29,3,1,,,,,,,,,,,,,,
,,,,,,,,,,,left.png,,w,right,6172fb642fdd00cfee2ab88b,2021-10-27_12h03.57.928,arrow_simon_punish,2021.1.2,MacIntel,58.82352941,,,,,,,,,,,,,,w,1,1.688,1.857364353,1,1,7,2,30,3,1,,,,,,,,,,,,,,
,,,,,,,,,,,left.png,,w,right,6172fb642fdd00cfee2ab88b,2021-10-27_12h03.57.928,arrow_simon_punish,2021.1.2,MacIntel,58.82352941,,,,,,,,,,,,,,w,1,1.122,1.598645734,1,1,7,3,31,3,1,,,,,,,,,,,,,,
,,,,,,,,,,,right.png,,p,right,6172fb642fdd00cfee2ab88b,2021-10-27_12h03.57.928,arrow_simon_punish,2021.1.2,MacIntel,58.82352941,,,,,,,,,,,,,,p,1,1.488,2.164843728,0,1,8,0,32,1,1,,,,,,,,,,,,,,
,,,,,,,,,,,right.png,,p,right,6172fb642fdd00cfee2ab88b,2021-10-27_12h03.57.928,arrow_simon_punish,2021.1.2,MacIntel,58.82352941,,,,,,,,,,,,,,p,1,1.112,1.716237662,1,1,8,1,33,1,1,,,,,,,,,,,,,,
,,,,,,,,,,,left.png,,w,left,6172fb642fdd00cfee2ab88b,2021-10-27_12h03.57.928,arrow_simon_punish,2021.1.2,MacIntel,58.82352941,,,,,,,,,,,,,,w,1,1.188,1.854644096,1,1,8,2,34,2,1,,,,,,,,,,,,,,
,,,,,,,,,,,right.png,,p,left,6172fb642fdd00cfee2ab88b,2021-10-27_12h03.57.928,arrow_simon_punish,2021.1.2,MacIntel,58.82352941,,,,,,,,,,,,,,p,1,1.488,2.114542964,0,1,8,3,35,0,1,,,,,,,,,,,,,,
,,,,,,,,,,,left.png,,w,left,6172fb642fdd00cfee2ab88b,2021-10-27_12h03.57.928,arrow_simon_punish,2021.1.2,MacIntel,58.82352941,,,,,,,,,,,,,,w,1,1.542,2.182723835,0,1,9,0,36,2,1,,,,,,,,,,,,,,
,,,,,,,,,,,left.png,,w,right,6172fb642fdd00cfee2ab88b,2021-10-27_12h03.57.928,arrow_simon_punish,2021.1.2,MacIntel,58.82352941,,,,,,,,,,,,,,w,1,1.855,2.29228066,1,1,9,1,37,3,1,,,,,,,,,,,,,,
,,,,,,,,,,,left.png,,w,right,6172fb642fdd00cfee2ab88b,2021-10-27_12h03.57.928,arrow_simon_punish,2021.1.2,MacIntel,58.82352941,,,,,,,,,,,,,,w,1,2.109,2.172217223,1,1,9,2,38,3,1,,,,,,,,,,,,,,
,,,,,,,,,,,right.png,,p,left,6172fb642fdd00cfee2ab88b,2021-10-27_12h03.57.928,arrow_simon_punish,2021.1.2,MacIntel,58.82352941,,,,,,,,,,,,,,p,1,1.805,1.542980585,1,1,9,3,39,0,1,,,,,,,,,,,,,,
,,,,,,,,,,,right.png,,p,left,6172fb642fdd00cfee2ab88b,2021-10-27_12h03.57.928,arrow_simon_punish,2021.1.2,MacIntel,58.82352941,,,,,,,,,,,,,,p,1,1.808,2.361197809,1,1,10,0,40,0,1,,,,,,,,,,,,,,
,,,,,,,,,,,left.png,,w,right,6172fb642fdd00cfee2ab88b,2021-10-27_12h03.57.928,arrow_simon_punish,2021.1.2,MacIntel,58.82352941,,,,,,,,,,,,,,w,1,1.742,2.227630839,1,1,10,1,41,3,1,,,,,,,,,,,,,,
,,,,,,,,,,,left.png,,w,left,6172fb642fdd00cfee2ab88b,2021-10-27_12h03.57.928,arrow_simon_punish,2021.1.2,MacIntel,58.82352941,,,,,,,,,,,,,,w,1,1.687,2.169267547,1,1,10,2,42,2,1,,,,,,,,,,,,,,
,,,,,,,,,,,left.png,,w,left,6172fb642fdd00cfee2ab88b,2021-10-27_12h03.57.928,arrow_simon_punish,2021.1.2,MacIntel,58.82352941,,,,,,,,,,,,,,w,1,2.174,2.408814093,1,1,10,3,43,2,1,,,,,,,,,,,,,,
,,,,,,,,,,,right.png,,p,right,6172fb642fdd00cfee2ab88b,2021-10-27_12h03.57.928,arrow_simon_punish,2021.1.2,MacIntel,58.82352941,,,,,,,,,,,,,,p,1,1.528,2.027545651,0,1,11,0,44,1,1,,,,,,,,,,,,,,
,,,,,,,,,,,left.png,,w,left,6172fb642fdd00cfee2ab88b,2021-10-27_12h03.57.928,arrow_simon_punish,2021.1.2,MacIntel,58.82352941,,,,,,,,,,,,,,w,1,1.106,1.72500017,1,1,11,1,45,2,1,,,,,,,,,,,,,,
,,,,,,,,,,,left.png,,w,left,6172fb642fdd00cfee2ab88b,2021-10-27_12h03.57.928,arrow_simon_punish,2021.1.2,MacIntel,58.82352941,,,,,,,,,,,,,,w,1,1.121,1.520132211,1,1,11,2,46,2,1,,,,,,,,,,,,,,
,,,,,,,,,,,left.png,,w,left,6172fb642fdd00cfee2ab88b,2021-10-27_12h03.57.928,arrow_simon_punish,2021.1.2,MacIntel,58.82352941,,,,,,,,,,,,,,w,1,1.587,2.026293111,0,1,11,3,47,2,1,,,,,,,,,,,,,,
,,,,,,,,,,,left.png,,w,right,6172fb642fdd00cfee2ab88b,2021-10-27_12h03.57.928,arrow_simon_punish,2021.1.2,MacIntel,58.82352941,,,,,,,,,,,,,,w,1,1.959,2.341646704,1,1,12,0,48,3,1,,,,,,,,,,,,,,
,,,,,,,,,,,right.png,,p,left,6172fb642fdd00cfee2ab88b,2021-10-27_12h03.57.928,arrow_simon_punish,2021.1.2,MacIntel,58.82352941,,,,,,,,,,,,,,p,1,2.121,2.487443803,1,1,12,1,49,0,1,,,,,,,,,,,,,,
,,,,,,,,,,,left.png,,w,right,6172fb642fdd00cfee2ab88b,2021-10-27_12h03.57.928,arrow_simon_punish,2021.1.2,MacIntel,58.82352941,,,,,,,,,,,,,,w,1,1.207,1.70651428,1,1,12,2,50,3,1,,,,,,,,,,,,,,
,,,,,,,,,,,right.png,,p,left,6172fb642fdd00cfee2ab88b,2021-10-27_12h03.57.928,arrow_simon_punish,2021.1.2,MacIntel,58.82352941,,,,,,,,,,,,,,p,1,1.671,2.202836067,1,1,12,3,51,0,1,,,,,,,,,,,,,,
,,,,,,,,,,,left.png,,w,left,6172fb642fdd00cfee2ab88b,2021-10-27_12h03.57.928,arrow_simon_punish,2021.1.2,MacIntel,58.82352941,,,,,,,,,,,,,,w,1,1.572,1.645567781,0,1,13,0,52,2,1,,,,,,,,,,,,,,
,,,,,,,,,,,left.png,,w,left,6172fb642fdd00cfee2ab88b,2021-10-27_12h03.57.928,arrow_simon_punish,2021.1.2,MacIntel,58.82352941,,,,,,,,,,,,,,w,1,1.36,1.840277149,1,1,13,1,53,2,1,,,,,,,,,,,,,,
,,,,,,,,,,,right.png,,p,left,6172fb642fdd00cfee2ab88b,2021-10-27_12h03.57.928,arrow_simon_punish,2021.1.2,MacIntel,58.82352941,,,,,,,,,,,,,,p,1,1.205,1.682535316,1,1,13,2,54,0,1,,,,,,,,,,,,,,
,,,,,,,,,,,right.png,,p,right,6172fb642fdd00cfee2ab88b,2021-10-27_12h03.57.928,arrow_simon_punish,2021.1.2,MacIntel,58.82352941,,,,,,,,,,,,,,p,1,1.539,2.153035004,0,1,13,3,55,1,1,,,,,,,,,,,,,,
,,,,,,,,,,,left.png,,w,left,6172fb642fdd00cfee2ab88b,2021-10-27_12h03.57.928,arrow_simon_punish,2021.1.2,MacIntel,58.82352941,,,,,,,,,,,,,,w,1,1.377,1.988699927,1,1,14,0,56,2,1,,,,,,,,,,,,,,
,,,,,,,,,,,right.png,,p,right,6172fb642fdd00cfee2ab88b,2021-10-27_12h03.57.928,arrow_simon_punish,2021.1.2,MacIntel,58.82352941,,,,,,,,,,,,,,p,1,1.39,2.062445619,1,1,14,1,57,1,1,,,,,,,,,,,,,,
,,,,,,,,,,,left.png,,w,right,6172fb642fdd00cfee2ab88b,2021-10-27_12h03.57.928,arrow_simon_punish,2021.1.2,MacIntel,58.82352941,,,,,,,,,,,,,,w,1,1.954,2.323299455,1,1,14,2,58,3,1,,,,,,,,,,,,,,
,,,,,,,,,,,right.png,,p,right,6172fb642fdd00cfee2ab88b,2021-10-27_12h03.57.928,arrow_simon_punish,2021.1.2,MacIntel,58.82352941,,,,,,,,,,,,,,p,1,1.429,1.975209877,0,1,14,3,59,1,1,,,,,,,,,,,,,,
,,,,,,,,,,,,,,,6172fb642fdd00cfee2ab88b,2021-10-27_12h03.57.928,arrow_simon_punish,2021.1.2,MacIntel,58.82352941,,,,,,,,,,,,,,,,,,,,,,,,,space,6.887,4,1,0,2,0,1,1,,,,,
,,,,,,,,,,,left.png,,w,right,6172fb642fdd00cfee2ab88b,2021-10-27_12h03.57.928,arrow_simon_punish,2021.1.2,MacIntel,58.82352941,,,,,,,,,,,,,,w,1,1.589,1.990513299,0,5,0,0,0,3,1,,,,,,,,,,,,,,
,,,,,,,,,,,left.png,,w,left,6172fb642fdd00cfee2ab88b,2021-10-27_12h03.57.928,arrow_simon_punish,2021.1.2,MacIntel,58.82352941,,,,,,,,,,,,,,w,1,1.672,2.188960046,1,5,0,1,1,2,1,,,,,,,,,,,,,,
,,,,,,,,,,,left.png,,w,right,6172fb642fdd00cfee2ab88b,2021-10-27_12h03.57.928,arrow_simon_punish,2021.1.2,MacIntel,58.82352941,,,,,,,,,,,,,,w,1,1.871,2.297714897,1,5,0,2,2,3,1,,,,,,,,,,,,,,
,,,,,,,,,,,right.png,,p,right,6172fb642fdd00cfee2ab88b,2021-10-27_12h03.57.928,arrow_simon_punish,2021.1.2,MacIntel,58.82352941,,,,,,,,,,,,,,p,1,1.654,2.333641338,1,5,0,3,3,1,1,,,,,,,,,,,,,,
,,,,,,,,,,,right.png,,p,left,6172fb642fdd00cfee2ab88b,2021-10-27_12h03.57.928,arrow_simon_punish,2021.1.2,MacIntel,58.82352941,,,,,,,,,,,,,,p,1,1.902,2.420363799,1,5,1,0,4,0,1,,,,,,,,,,,,,,
,,,,,,,,,,,left.png,,w,right,6172fb642fdd00cfee2ab88b,2021-10-27_12h03.57.928,arrow_simon_punish,2021.1.2,MacIntel,58.82352941,,,,,,,,,,,,,,w,1,1.372,1.835495918,1,5,1,1,5,3,1,,,,,,,,,,,,,,
,,,,,,,,,,,left.png,,w,left,6172fb642fdd00cfee2ab88b,2021-10-27_12h03.57.928,arrow_simon_punish,2021.1.2,MacIntel,58.82352941,,,,,,,,,,,,,,w,1,1.294,1.818767519,1,5,1,2,6,2,1,,,,,,,,,,,,,,
,,,,,,,,,,,left.png,,w,left,6172fb642fdd00cfee2ab88b,2021-10-27_12h03.57.928,arrow_simon_punish,2021.1.2,MacIntel,58.82352941,,,,,,,,,,,,,,w,1,1.326,1.894612825,1,5,1,3,7,2,1,,,,,,,,,,,,,,
,,,,,,,,,,,left.png,,w,right,6172fb642fdd00cfee2ab88b,2021-10-27_12h03.57.928,arrow_simon_punish,2021.1.2,MacIntel,58.82352941,,,,,,,,,,,,,,w,1,1.17,1.64972072,1,5,2,0,8,3,1,,,,,,,,,,,,,,
,,,,,,,,,,,right.png,,p,right,6172fb642fdd00cfee2ab88b,2021-10-27_12h03.57.928,arrow_simon_punish,2021.1.2,MacIntel,58.82352941,,,,,,,,,,,,,,p,1,2.02,1.83232218,1,5,2,1,9,1,1,,,,,,,,,,,,,,
,,,,,,,,,,,left.png,,w,right,6172fb642fdd00cfee2ab88b,2021-10-27_12h03.57.928,arrow_simon_punish,2021.1.2,MacIntel,58.82352941,,,,,,,,,,,,,,w,1,1.45,1.952617862,0,5,2,2,10,3,1,,,,,,,,,,,,,,
,,,,,,,,,,,left.png,,w,left,6172fb642fdd00cfee2ab88b,2021-10-27_12h03.57.928,arrow_simon_punish,2021.1.2,MacIntel,58.82352941,,,,,,,,,,,,,,w,1,1.289,1.801542098,1,5,2,3,11,2,1,,,,,,,,,,,,,,
,,,,,,,,,,,left.png,,w,right,6172fb642fdd00cfee2ab88b,2021-10-27_12h03.57.928,arrow_simon_punish,2021.1.2,MacIntel,58.82352941,,,,,,,,,,,,,,w,1,1.64,1.535418711,1,5,3,0,12,3,1,,,,,,,,,,,,,,
,,,,,,,,,,,right.png,,p,right,6172fb642fdd00cfee2ab88b,2021-10-27_12h03.57.928,arrow_simon_punish,2021.1.2,MacIntel,58.82352941,,,,,,,,,,,,,,p,1,1.736,2.097969142,1,5,3,1,13,1,1,,,,,,,,,,,,,,
,,,,,,,,,,,right.png,,p,left,6172fb642fdd00cfee2ab88b,2021-10-27_12h03.57.928,arrow_simon_punish,2021.1.2,MacIntel,58.82352941,,,,,,,,,,,,,,p,1,1.66,2.10766285,1,5,3,2,14,0,1,,,,,,,,,,,,,,
,,,,,,,,,,,left.png,,w,left,6172fb642fdd00cfee2ab88b,2021-10-27_12h03.57.928,arrow_simon_punish,2021.1.2,MacIntel,58.82352941,,,,,,,,,,,,,,w,1,1.871,2.390047789,1,5,3,3,15,2,1,,,,,,,,,,,,,,
,,,,,,,,,,,left.png,,w,right,6172fb642fdd00cfee2ab88b,2021-10-27_12h03.57.928,arrow_simon_punish,2021.1.2,MacIntel,58.82352941,,,,,,,,,,,,,,w,1,2.14,2.415398358,1,5,4,0,16,3,1,,,,,,,,,,,,,,
,,,,,,,,,,,left.png,,w,right,6172fb642fdd00cfee2ab88b,2021-10-27_12h03.57.928,arrow_simon_punish,2021.1.2,MacIntel,58.82352941,,,,,,,,,,,,,,w,1,1.741,2.28244457,1,5,4,1,17,3,1,,,,,,,,,,,,,,
,,,,,,,,,,,left.png,,w,right,6172fb642fdd00cfee2ab88b,2021-10-27_12h03.57.928,arrow_simon_punish,2021.1.2,MacIntel,58.82352941,,,,,,,,,,,,,,p,0,2.309,2.369814862,1,5,4,2,18,3,1,,,,,,,,,,,,,,
,,,,,,,,,,,right.png,,p,left,6172fb642fdd00cfee2ab88b,2021-10-27_12h03.57.928,arrow_simon_punish,2021.1.2,MacIntel,58.82352941,,,,,,,,,,,,,,p,1,2.174,2.266560748,1,5,4,3,19,0,1,,,,,,,,,,,,,,
,,,,,,,,,,,right.png,,p,right,6172fb642fdd00cfee2ab88b,2021-10-27_12h03.57.928,arrow_simon_punish,2021.1.2,MacIntel,58.82352941,,,,,,,,,,,,,,p,1,1.873,2.385691078,1,5,5,0,20,1,1,,,,,,,,,,,,,,
,,,,,,,,,,,right.png,,p,right,6172fb642fdd00cfee2ab88b,2021-10-27_12h03.57.928,arrow_simon_punish,2021.1.2,MacIntel,58.82352941,,,,,,,,,,,,,,p,1,1.888,2.338362956,1,5,5,1,21,1,1,,,,,,,,,,,,,,
,,,,,,,,,,,right.png,,p,right,6172fb642fdd00cfee2ab88b,2021-10-27_12h03.57.928,arrow_simon_punish,2021.1.2,MacIntel,58.82352941,,,,,,,,,,,,,,p,1,1.46,1.843582587,0,5,5,2,22,1,1,,,,,,,,,,,,,,
,,,,,,,,,,,left.png,,w,left,6172fb642fdd00cfee2ab88b,2021-10-27_12h03.57.928,arrow_simon_punish,2021.1.2,MacIntel,58.82352941,,,,,,,,,,,,,,w,1,1.738,2.223469095,1,5,5,3,23,2,1,,,,,,,,,,,,,,
,,,,,,,,,,,right.png,,p,left,6172fb642fdd00cfee2ab88b,2021-10-27_12h03.57.928,arrow_simon_punish,2021.1.2,MacIntel,58.82352941,,,,,,,,,,,,,,p,1,1.326,1.629095471,1,5,6,0,24,0,1,,,,,,,,,,,,,,
,,,,,,,,,,,right.png,,p,right,6172fb642fdd00cfee2ab88b,2021-10-27_12h03.57.928,arrow_simon_punish,2021.1.2,MacIntel,58.82352941,,,,,,,,,,,,,,p,1,1.572,2.128453187,0,5,6,1,25,1,1,,,,,,,,,,,,,,
,,,,,,,,,,,right.png,,p,left,6172fb642fdd00cfee2ab88b,2021-10-27_12h03.57.928,arrow_simon_punish,2021.1.2,MacIntel,58.82352941,,,,,,,,,,,,,,p,1,1.073,1.525082976,1,5,6,2,26,0,1,,,,,,,,,,,,,,
,,,,,,,,,,,right.png,,p,left,6172fb642fdd00cfee2ab88b,2021-10-27_12h03.57.928,arrow_simon_punish,2021.1.2,MacIntel,58.82352941,,,,,,,,,,,,,,p,1,1.64,1.997550848,1,5,6,3,27,0,1,,,,,,,,,,,,,,
,,,,,,,,,,,left.png,,w,left,6172fb642fdd00cfee2ab88b,2021-10-27_12h03.57.928,arrow_simon_punish,2021.1.2,MacIntel,58.82352941,,,,,,,,,,,,,,w,1,1.733,1.868025045,1,5,7,0,28,2,1,,,,,,,,,,,,,,
,,,,,,,,,,,right.png,,p,left,6172fb642fdd00cfee2ab88b,2021-10-27_12h03.57.928,arrow_simon_punish,2021.1.2,MacIntel,58.82352941,,,,,,,,,,,,,,p,1,1.06,1.598502021,1,5,7,1,29,0,1,,,,,,,,,,,,,,
,,,,,,,,,,,right.png,,p,right,6172fb642fdd00cfee2ab88b,2021-10-27_12h03.57.928,arrow_simon_punish,2021.1.2,MacIntel,58.82352941,,,,,,,,,,,,,,p,1,0.993,1.555160799,1,5,7,2,30,1,1,,,,,,,,,,,,,,
,,,,,,,,,,,left.png,,w,right,6172fb642fdd00cfee2ab88b,2021-10-27_12h03.57.928,arrow_simon_punish,2021.1.2,MacIntel,58.82352941,,,,,,,,,,,,,,w,1,1.895,2.341375613,1,5,7,3,31,3,1,,,,,,,,,,,,,,
,,,,,,,,,,,right.png,,p,right,6172fb642fdd00cfee2ab88b,2021-10-27_12h03.57.928,arrow_simon_punish,2021.1.2,MacIntel,58.82352941,,,,,,,,,,,,,,p,1,1.577,2.087646904,0,5,8,0,32,1,1,,,,,,,,,,,,,,
,,,,,,,,,,,right.png,,p,left,6172fb642fdd00cfee2ab88b,2021-10-27_12h03.57.928,arrow_simon_punish,2021.1.2,MacIntel,58.82352941,,,,,,,,,,,,,,p,1,1.572,1.93559637,0,5,8,1,33,0,1,,,,,,,,,,,,,,
,,,,,,,,,,,right.png,,p,left,6172fb642fdd00cfee2ab88b,2021-10-27_12h03.57.928,arrow_simon_punish,2021.1.2,MacIntel,58.82352941,,,,,,,,,,,,,,p,1,1.568,1.953586127,0,5,8,2,34,0,1,,,,,,,,,,,,,,
,,,,,,,,,,,right.png,,p,left,6172fb642fdd00cfee2ab88b,2021-10-27_12h03.57.928,arrow_simon_punish,2021.1.2,MacIntel,58.82352941,,,,,,,,,,,,,,p,1,1.704,1.681142662,1,5,8,3,35,0,1,,,,,,,,,,,,,,
,,,,,,,,,,,left.png,,w,right,6172fb642fdd00cfee2ab88b,2021-10-27_12h03.57.928,arrow_simon_punish,2021.1.2,MacIntel,58.82352941,,,,,,,,,,,,,,w,1,1.656,2.137052858,1,5,9,0,36,3,1,,,,,,,,,,,,,,
,,,,,,,,,,,left.png,,w,right,6172fb642fdd00cfee2ab88b,2021-10-27_12h03.57.928,arrow_simon_punish,2021.1.2,MacIntel,58.82352941,,,,,,,,,,,,,,w,1,1.571,1.975690597,0,5,9,1,37,3,1,,,,,,,,,,,,,,
,,,,,,,,,,,left.png,,w,right,6172fb642fdd00cfee2ab88b,2021-10-27_12h03.57.928,arrow_simon_punish,2021.1.2,MacIntel,58.82352941,,,,,,,,,,,,,,w,1,1.822,2.387363852,1,5,9,2,38,3,1,,,,,,,,,,,,,,
,,,,,,,,,,,right.png,,p,left,6172fb642fdd00cfee2ab88b,2021-10-27_12h03.57.928,arrow_simon_punish,2021.1.2,MacIntel,58.82352941,,,,,,,,,,,,,,p,1,2.173,2.23310666,1,5,9,3,39,0,1,,,,,,,,,,,,,,
,,,,,,,,,,,left.png,,w,left,6172fb642fdd00cfee2ab88b,2021-10-27_12h03.57.928,arrow_simon_punish,2021.1.2,MacIntel,58.82352941,,,,,,,,,,,,,,w,1,1.542,2.159687894,0,5,10,0,40,2,1,,,,,,,,,,,,,,
,,,,,,,,,,,right.png,,p,right,6172fb642fdd00cfee2ab88b,2021-10-27_12h03.57.928,arrow_simon_punish,2021.1.2,MacIntel,58.82352941,,,,,,,,,,,,,,p,1,1.857,2.483350446,1,5,10,1,41,1,1,,,,,,,,,,,,,,
,,,,,,,,,,,right.png,,p,left,6172fb642fdd00cfee2ab88b,2021-10-27_12h03.57.928,arrow_simon_punish,2021.1.2,MacIntel,58.82352941,,,,,,,,,,,,,,p,1,2.938,2.065112977,1,5,10,2,42,0,1,,,,,,,,,,,,,,
,,,,,,,,,,,left.png,,w,left,6172fb642fdd00cfee2ab88b,2021-10-27_12h03.57.928,arrow_simon_punish,2021.1.2,MacIntel,58.82352941,,,,,,,,,,,,,,w,1,2.628,2.399161722,1,5,10,3,43,2,1,,,,,,,,,,,,,,
,,,,,,,,,,,right.png,,p,right,6172fb642fdd00cfee2ab88b,2021-10-27_12h03.57.928,arrow_simon_punish,2021.1.2,MacIntel,58.82352941,,,,,,,,,,,,,,p,1,1.339,1.82036744,1,5,11,0,44,1,1,,,,,,,,,,,,,,
,,,,,,,,,,,right.png,,p,left,6172fb642fdd00cfee2ab88b,2021-10-27_12h03.57.928,arrow_simon_punish,2021.1.2,MacIntel,58.82352941,,,,,,,,,,,,,,p,1,3.055,2.00602485,1,5,11,1,45,0,1,,,,,,,,,,,,,,
,,,,,,,,,,,right.png,,p,right,6172fb642fdd00cfee2ab88b,2021-10-27_12h03.57.928,arrow_simon_punish,2021.1.2,MacIntel,58.82352941,,,,,,,,,,,,,,p,1,1.94,2.150094857,1,5,11,2,46,1,1,,,,,,,,,,,,,,
,,,,,,,,,,,left.png,,w,left,6172fb642fdd00cfee2ab88b,2021-10-27_12h03.57.928,arrow_simon_punish,2021.1.2,MacIntel,58.82352941,,,,,,,,,,,,,,w,1,1.584,1.772008835,0,5,11,3,47,2,1,,,,,,,,,,,,,,
,,,,,,,,,,,left.png,,w,left,6172fb642fdd00cfee2ab88b,2021-10-27_12h03.57.928,arrow_simon_punish,2021.1.2,MacIntel,58.82352941,,,,,,,,,,,,,,w,1,1.087,1.577422906,1,5,12,0,48,2,1,,,,,,,,,,,,,,
,,,,,,,,,,,left.png,,w,right,6172fb642fdd00cfee2ab88b,2021-10-27_12h03.57.928,arrow_simon_punish,2021.1.2,MacIntel,58.82352941,,,,,,,,,,,,,,p,0,1.654,1.89968924,1,5,12,1,49,3,1,,,,,,,,,,,,,,
,,,,,,,,,,,left.png,,w,left,6172fb642fdd00cfee2ab88b,2021-10-27_12h03.57.928,arrow_simon_punish,2021.1.2,MacIntel,58.82352941,,,,,,,,,,,,,,w,1,2.055,2.31101534,1,5,12,2,50,2,1,,,,,,,,,,,,,,
,,,,,,,,,,,right.png,,p,left,6172fb642fdd00cfee2ab88b,2021-10-27_12h03.57.928,arrow_simon_punish,2021.1.2,MacIntel,58.82352941,,,,,,,,,,,,,,p,1,3.106,1.732629525,1,5,12,3,51,0,1,,,,,,,,,,,,,,
,,,,,,,,,,,right.png,,p,right,6172fb642fdd00cfee2ab88b,2021-10-27_12h03.57.928,arrow_simon_punish,2021.1.2,MacIntel,58.82352941,,,,,,,,,,,,,,p,1,1.725,2.250257453,1,5,13,0,52,1,1,,,,,,,,,,,,,,
,,,,,,,,,,,right.png,,p,right,6172fb642fdd00cfee2ab88b,2021-10-27_12h03.57.928,arrow_simon_punish,2021.1.2,MacIntel,58.82352941,,,,,,,,,,,,,,p,1,3.345,2.333421165,1,5,13,1,53,1,1,,,,,,,,,,,,,,
,,,,,,,,,,,right.png,,p,left,6172fb642fdd00cfee2ab88b,2021-10-27_12h03.57.928,arrow_simon_punish,2021.1.2,MacIntel,58.82352941,,,,,,,,,,,,,,p,1,1.743,1.694878978,1,5,13,2,54,0,1,,,,,,,,,,,,,,
,,,,,,,,,,,left.png,,w,left,6172fb642fdd00cfee2ab88b,2021-10-27_12h03.57.928,arrow_simon_punish,2021.1.2,MacIntel,58.82352941,,,,,,,,,,,,,,w,1,1.21,1.730884664,1,5,13,3,55,2,1,,,,,,,,,,,,,,
,,,,,,,,,,,right.png,,p,right,6172fb642fdd00cfee2ab88b,2021-10-27_12h03.57.928,arrow_simon_punish,2021.1.2,MacIntel,58.82352941,,,,,,,,,,,,,,p,1,1.872,2.127984739,1,5,14,0,56,1,1,,,,,,,,,,,,,,
,,,,,,,,,,,left.png,,w,left,6172fb642fdd00cfee2ab88b,2021-10-27_12h03.57.928,arrow_simon_punish,2021.1.2,MacIntel,58.82352941,,,,,,,,,,,,,,w,1,2.027,2.031933394,1,5,14,1,57,2,1,,,,,,,,,,,,,,
,,,,,,,,,,,left.png,,w,left,6172fb642fdd00cfee2ab88b,2021-10-27_12h03.57.928,arrow_simon_punish,2021.1.2,MacIntel,58.82352941,,,,,,,,,,,,,,w,1,1.488,1.970792612,0,5,14,2,58,2,1,,,,,,,,,,,,,,
,,,,,,,,,,,left.png,,w,right,6172fb642fdd00cfee2ab88b,2021-10-27_12h03.57.928,arrow_simon_punish,2021.1.2,MacIntel,58.82352941,,,,,,,,,,,,,,w,1,2.977,2.076075181,1,5,14,3,59,3,1,,,,,,,,,,,,,,
,,,,,,,,,,,,,,,6172fb642fdd00cfee2ab88b,2021-10-27_12h03.57.928,arrow_simon_punish,2021.1.2,MacIntel,58.82352941,,,,,,,,,,,,,,,,,,,,,,,,,space,8.203,5,1,1,3,1,1,5,,,,,
,,,,,,,,,,,right.png,,p,right,6172fb642fdd00cfee2ab88b,2021-10-27_12h03.57.928,arrow_simon_punish,2021.1.2,MacIntel,58.82352941,,,,,,,,,,,,,,p,1,1.088,1.582542231,1,1,0,0,0,1,1,,,,,,,,,,,,,,
,,,,,,,,,,,right.png,,p,right,6172fb642fdd00cfee2ab88b,2021-10-27_12h03.57.928,arrow_simon_punish,2021.1.2,MacIntel,58.82352941,,,,,,,,,,,,,,p,1,1.726,2.239891708,1,1,0,1,1,1,1,,,,,,,,,,,,,,
,,,,,,,,,,,right.png,,p,right,6172fb642fdd00cfee2ab88b,2021-10-27_12h03.57.928,arrow_simon_punish,2021.1.2,MacIntel,58.82352941,,,,,,,,,,,,,,p,1,1.495,1.95942038,0,1,0,2,2,1,1,,,,,,,,,,,,,,
,,,,,,,,,,,left.png,,w,right,6172fb642fdd00cfee2ab88b,2021-10-27_12h03.57.928,arrow_simon_punish,2021.1.2,MacIntel,58.82352941,,,,,,,,,,,,,,w,1,1.855,2.308924635,1,1,0,3,3,3,1,,,,,,,,,,,,,,
,,,,,,,,,,,right.png,,p,right,6172fb642fdd00cfee2ab88b,2021-10-27_12h03.57.928,arrow_simon_punish,2021.1.2,MacIntel,58.82352941,,,,,,,,,,,,,,p,1,1.621,2.031318651,1,1,1,0,4,1,1,,,,,,,,,,,,,,
,,,,,,,,,,,left.png,,w,right,6172fb642fdd00cfee2ab88b,2021-10-27_12h03.57.928,arrow_simon_punish,2021.1.2,MacIntel,58.82352941,,,,,,,,,,,,,,w,1,1.308,1.815071723,1,1,1,1,5,3,1,,,,,,,,,,,,,,
,,,,,,,,,,,left.png,,w,left,6172fb642fdd00cfee2ab88b,2021-10-27_12h03.57.928,arrow_simon_punish,2021.1.2,MacIntel,58.82352941,,,,,,,,,,,,,,w,1,1.971,2.466103165,1,1,1,2,6,2,1,,,,,,,,,,,,,,
,,,,,,,,,,,right.png,,p,left,6172fb642fdd00cfee2ab88b,2021-10-27_12h03.57.928,arrow_simon_punish,2021.1.2,MacIntel,58.82352941,,,,,,,,,,,,,,p,1,3.141,2.383174047,1,1,1,3,7,0,1,,,,,,,,,,,,,,
,,,,,,,,,,,left.png,,w,right,6172fb642fdd00cfee2ab88b,2021-10-27_12h03.57.928,arrow_simon_punish,2021.1.2,MacIntel,58.82352941,,,,,,,,,,,,,,w,1,1.575,2.036665494,0,1,2,0,8,3,1,,,,,,,,,,,,,,
,,,,,,,,,,,left.png,,w,left,6172fb642fdd00cfee2ab88b,2021-10-27_12h03.57.928,arrow_simon_punish,2021.1.2,MacIntel,58.82352941,,,,,,,,,,,,,,w,1,2.055,2.356857623,1,1,2,1,9,2,1,,,,,,,,,,,,,,
,,,,,,,,,,,left.png,,w,left,6172fb642fdd00cfee2ab88b,2021-10-27_12h03.57.928,arrow_simon_punish,2021.1.2,MacIntel,58.82352941,,,,,,,,,,,,,,w,1,1.343,1.657837611,1,1,2,2,10,2,1,,,,,,,,,,,,,,
,,,,,,,,,,,left.png,,w,right,6172fb642fdd00cfee2ab88b,2021-10-27_12h03.57.928,arrow_simon_punish,2021.1.2,MacIntel,58.82352941,,,,,,,,,,,,,,w,1,1.677,2.211780618,1,1,2,3,11,3,1,,,,,,,,,,,,,,
,,,,,,,,,,,left.png,,w,right,6172fb642fdd00cfee2ab88b,2021-10-27_12h03.57.928,arrow_simon_punish,2021.1.2,MacIntel,58.82352941,,,,,,,,,,,,,,w,1,1.224,1.616622568,1,1,3,0,12,3,1,,,,,,,,,,,,,,
,,,,,,,,,,,left.png,,w,right,6172fb642fdd00cfee2ab88b,2021-10-27_12h03.57.928,arrow_simon_punish,2021.1.2,MacIntel,58.82352941,,,,,,,,,,,,,,w,1,1.838,2.183116873,1,1,3,1,13,3,1,,,,,,,,,,,,,,
,,,,,,,,,,,right.png,,p,left,6172fb642fdd00cfee2ab88b,2021-10-27_12h03.57.928,arrow_simon_punish,2021.1.2,MacIntel,58.82352941,,,,,,,,,,,,,,p,1,2.293,2.185707939,1,1,3,2,14,0,1,,,,,,,,,,,,,,
,,,,,,,,,,,right.png,,p,left,6172fb642fdd00cfee2ab88b,2021-10-27_12h03.57.928,arrow_simon_punish,2021.1.2,MacIntel,58.82352941,,,,,,,,,,,,,,w,0,1.416,1.965320428,1,1,3,3,15,0,1,,,,,,,,,,,,,,
,,,,,,,,,,,right.png,,p,left,6172fb642fdd00cfee2ab88b,2021-10-27_12h03.57.928,arrow_simon_punish,2021.1.2,MacIntel,58.82352941,,,,,,,,,,,,,,p,1,1.794,2.323724445,1,1,4,0,16,0,1,,,,,,,,,,,,,,
,,,,,,,,,,,left.png,,w,right,6172fb642fdd00cfee2ab88b,2021-10-27_12h03.57.928,arrow_simon_punish,2021.1.2,MacIntel,58.82352941,,,,,,,,,,,,,,w,1,1.573,2.042720945,0,1,4,1,17,3,1,,,,,,,,,,,,,,
,,,,,,,,,,,right.png,,p,left,6172fb642fdd00cfee2ab88b,2021-10-27_12h03.57.928,arrow_simon_punish,2021.1.2,MacIntel,58.82352941,,,,,,,,,,,,,,p,1,1.626,2.22350663,1,1,4,2,18,0,1,,,,,,,,,,,,,,
,,,,,,,,,,,right.png,,p,right,6172fb642fdd00cfee2ab88b,2021-10-27_12h03.57.928,arrow_simon_punish,2021.1.2,MacIntel,58.82352941,,,,,,,,,,,,,,p,1,1.109,1.640766342,1,1,4,3,19,1,1,,,,,,,,,,,,,,
,,,,,,,,,,,left.png,,w,right,6172fb642fdd00cfee2ab88b,2021-10-27_12h03.57.928,arrow_simon_punish,2021.1.2,MacIntel,58.82352941,,,,,,,,,,,,,,w,1,1.661,2.186869325,1,1,5,0,20,3,1,,,,,,,,,,,,,,
,,,,,,,,,,,left.png,,w,left,6172fb642fdd00cfee2ab88b,2021-10-27_12h03.57.928,arrow_simon_punish,2021.1.2,MacIntel,58.82352941,,,,,,,,,,,,,,w,1,1.573,1.910212075,0,1,5,1,21,2,1,,,,,,,,,,,,,,
,,,,,,,,,,,left.png,,w,left,6172fb642fdd00cfee2ab88b,2021-10-27_12h03.57.928,arrow_simon_punish,2021.1.2,MacIntel,58.82352941,,,,,,,,,,,,,,w,1,1.222,1.728224936,1,1,5,2,22,2,1,,,,,,,,,,,,,,
,,,,,,,,,,,left.png,,w,left,6172fb642fdd00cfee2ab88b,2021-10-27_12h03.57.928,arrow_simon_punish,2021.1.2,MacIntel,58.82352941,,,,,,,,,,,,,,w,1,1.377,1.987648554,1,1,5,3,23,2,1,,,,,,,,,,,,,,
,,,,,,,,,,,left.png,,w,right,6172fb642fdd00cfee2ab88b,2021-10-27_12h03.57.928,arrow_simon_punish,2021.1.2,MacIntel,58.82352941,,,,,,,,,,,,,,w,1,1.874,2.310382446,1,1,6,0,24,3,1,,,,,,,,,,,,,,
,,,,,,,,,,,left.png,,w,left,6172fb642fdd00cfee2ab88b,2021-10-27_12h03.57.928,arrow_simon_punish,2021.1.2,MacIntel,58.82352941,,,,,,,,,,,,,,w,1,1.412,2.069471137,0,1,6,1,25,2,1,,,,,,,,,,,,,,
,,,,,,,,,,,left.png,,w,left,6172fb642fdd00cfee2ab88b,2021-10-27_12h03.57.928,arrow_simon_punish,2021.1.2,MacIntel,58.82352941,,,,,,,,,,,,,,w,1,1.372,1.98996585,1,1,6,2,26,2,1,,,,,,,,,,,,,,
,,,,,,,,,,,right.png,,p,right,6172fb642fdd00cfee2ab88b,2021-10-27_12h03.57.928,arrow_simon_punish,2021.1.2,MacIntel,58.82352941,,,,,,,,,,,,,,p,1,1.039,1.556533491,1,1,6,3,27,1,1,,,,,,,,,,,,,,
,,,,,,,,,,,right.png,,p,left,6172fb642fdd00cfee2ab88b,2021-10-27_12h03.57.928,arrow_simon_punish,2021.1.2,MacIntel,58.82352941,,,,,,,,,,,,,,w,0,1.455,2.144649807,1,1,7,0,28,0,1,,,,,,,,,,,,,,
,,,,,,,,,,,right.png,,p,left,6172fb642fdd00cfee2ab88b,2021-10-27_12h03.57.928,arrow_simon_punish,2021.1.2,MacIntel,58.82352941,,,,,,,,,,,,,,p,1,1.421,1.717809898,0,1,7,1,29,0,1,,,,,,,,,,,,,,
,,,,,,,,,,,left.png,,w,left,6172fb642fdd00cfee2ab88b,2021-10-27_12h03.57.928,arrow_simon_punish,2021.1.2,MacIntel,58.82352941,,,,,,,,,,,,,,w,1,2.076,2.457249823,1,1,7,2,30,2,1,,,,,,,,,,,,,,
,,,,,,,,,,,left.png,,w,right,6172fb642fdd00cfee2ab88b,2021-10-27_12h03.57.928,arrow_simon_punish,2021.1.2,MacIntel,58.82352941,,,,,,,,,,,,,,w,1,1.04,1.514952111,1,1,7,3,31,3,1,,,,,,,,,,,,,,
,,,,,,,,,,,right.png,,p,left,6172fb642fdd00cfee2ab88b,2021-10-27_12h03.57.928,arrow_simon_punish,2021.1.2,MacIntel,58.82352941,,,,,,,,,,,,,,p,1,1.757,2.07872649,1,1,8,0,32,0,1,,,,,,,,,,,,,,
,,,,,,,,,,,left.png,,w,left,6172fb642fdd00cfee2ab88b,2021-10-27_12h03.57.928,arrow_simon_punish,2021.1.2,MacIntel,58.82352941,,,,,,,,,,,,,,w,1,1.257,1.725030018,1,1,8,1,33,2,1,,,,,,,,,,,,,,
,,,,,,,,,,,left.png,,w,right,6172fb642fdd00cfee2ab88b,2021-10-27_12h03.57.928,arrow_simon_punish,2021.1.2,MacIntel,58.82352941,,,,,,,,,,,,,,w,1,2.073,2.467234875,1,1,8,2,34,3,1,,,,,,,,,,,,,,
,,,,,,,,,,,right.png,,p,left,6172fb642fdd00cfee2ab88b,2021-10-27_12h03.57.928,arrow_simon_punish,2021.1.2,MacIntel,58.82352941,,,,,,,,,,,,,,p,1,1.255,1.716404285,1,1,8,3,35,0,1,,,,,,,,,,,,,,
,,,,,,,,,,,right.png,,p,left,6172fb642fdd00cfee2ab88b,2021-10-27_12h03.57.928,arrow_simon_punish,2021.1.2,MacIntel,58.82352941,,,,,,,,,,,,,,p,1,1.893,2.443352819,1,1,9,0,36,0,1,,,,,,,,,,,,,,
,,,,,,,,,,,left.png,,w,right,6172fb642fdd00cfee2ab88b,2021-10-27_12h03.57.928,arrow_simon_punish,2021.1.2,MacIntel,58.82352941,,,,,,,,,,,,,,w,1,1.842,1.880217471,1,1,9,1,37,3,1,,,,,,,,,,,,,,
,,,,,,,,,,,right.png,,p,left,6172fb642fdd00cfee2ab88b,2021-10-27_12h03.57.928,arrow_simon_punish,2021.1.2,MacIntel,58.82352941,,,,,,,,,,,,,,p,1,2.071,2.340493135,1,1,9,2,38,0,1,,,,,,,,,,,,,,
,,,,,,,,,,,left.png,,w,left,6172fb642fdd00cfee2ab88b,2021-10-27_12h03.57.928,arrow_simon_punish,2021.1.2,MacIntel,58.82352941,,,,,,,,,,,,,,w,1,1.239,1.711438189,1,1,9,3,39,2,1,,,,,,,,,,,,,,
,,,,,,,,,,,left.png,,w,left,6172fb642fdd00cfee2ab88b,2021-10-27_12h03.57.928,arrow_simon_punish,2021.1.2,MacIntel,58.82352941,,,,,,,,,,,,,,w,1,2.025,1.901611662,1,1,10,0,40,2,1,,,,,,,,,,,,,,
,,,,,,,,,,,right.png,,p,right,6172fb642fdd00cfee2ab88b,2021-10-27_12h03.57.928,arrow_simon_punish,2021.1.2,MacIntel,58.82352941,,,,,,,,,,,,,,p,1,1.855,2.283325323,1,1,10,1,41,1,1,,,,,,,,,,,,,,
,,,,,,,,,,,right.png,,p,right,6172fb642fdd00cfee2ab88b,2021-10-27_12h03.57.928,arrow_simon_punish,2021.1.2,MacIntel,58.82352941,,,,,,,,,,,,,,p,1,1.906,2.292192805,1,1,10,2,42,1,1,,,,,,,,,,,,,,
,,,,,,,,,,,right.png,,p,right,6172fb642fdd00cfee2ab88b,2021-10-27_12h03.57.928,arrow_simon_punish,2021.1.2,MacIntel,58.82352941,,,,,,,,,,,,,,p,1,1.575,1.731204307,0,1,10,3,43,1,1,,,,,,,,,,,,,,
,,,,,,,,,,,right.png,,p,left,6172fb642fdd00cfee2ab88b,2021-10-27_12h03.57.928,arrow_simon_punish,2021.1.2,MacIntel,58.82352941,,,,,,,,,,,,,,p,1,1.987,1.777839605,1,1,11,0,44,0,1,,,,,,,,,,,,,,
,,,,,,,,,,,right.png,,p,right,6172fb642fdd00cfee2ab88b,2021-10-27_12h03.57.928,arrow_simon_punish,2021.1.2,MacIntel,58.82352941,,,,,,,,,,,,,,p,1,1.661,2.175148967,1,1,11,1,45,1,1,,,,,,,,,,,,,,
,,,,,,,,,,,left.png,,w,left,6172fb642fdd00cfee2ab88b,2021-10-27_12h03.57.928,arrow_simon_punish,2021.1.2,MacIntel,58.82352941,,,,,,,,,,,,,,w,1,1.873,1.893261235,1,1,11,2,46,2,1,,,,,,,,,,,,,,
,,,,,,,,,,,right.png,,p,right,6172fb642fdd00cfee2ab88b,2021-10-27_12h03.57.928,arrow_simon_punish,2021.1.2,MacIntel,58.82352941,,,,,,,,,,,,,,p,1,2.075,1.837722223,1,1,11,3,47,1,1,,,,,,,,,,,,,,
,,,,,,,,,,,right.png,,p,right,6172fb642fdd00cfee2ab88b,2021-10-27_12h03.57.928,arrow_simon_punish,2021.1.2,MacIntel,58.82352941,,,,,,,,,,,,,,p,1,2.688,1.511606222,1,1,12,0,48,1,1,,,,,,,,,,,,,,
,,,,,,,,,,,right.png,,p,left,6172fb642fdd00cfee2ab88b,2021-10-27_12h03.57.928,arrow_simon_punish,2021.1.2,MacIntel,58.82352941,,,,,,,,,,,,,,p,1,1.774,2.159302237,1,1,12,1,49,0,1,,,,,,,,,,,,,,
,,,,,,,,,,,right.png,,p,right,6172fb642fdd00cfee2ab88b,2021-10-27_12h03.57.928,arrow_simon_punish,2021.1.2,MacIntel,58.82352941,,,,,,,,,,,,,,p,1,1.792,2.365292525,1,1,12,2,50,1,1,,,,,,,,,,,,,,
,,,,,,,,,,,left.png,,w,right,6172fb642fdd00cfee2ab88b,2021-10-27_12h03.57.928,arrow_simon_punish,2021.1.2,MacIntel,58.82352941,,,,,,,,,,,,,,w,1,1.091,1.522476781,1,1,12,3,51,3,1,,,,,,,,,,,,,,
,,,,,,,,,,,right.png,,p,right,6172fb642fdd00cfee2ab88b,2021-10-27_12h03.57.928,arrow_simon_punish,2021.1.2,MacIntel,58.82352941,,,,,,,,,,,,,,p,1,1.438,1.783177883,0,1,13,0,52,1,1,,,,,,,,,,,,,,
,,,,,,,,,,,right.png,,p,left,6172fb642fdd00cfee2ab88b,2021-10-27_12h03.57.928,arrow_simon_punish,2021.1.2,MacIntel,58.82352941,,,,,,,,,,,,,,p,1,1.458,1.841995947,0,1,13,1,53,0,1,,,,,,,,,,,,,,
,,,,,,,,,,,right.png,,p,right,6172fb642fdd00cfee2ab88b,2021-10-27_12h03.57.928,arrow_simon_punish,2021.1.2,MacIntel,58.82352941,,,,,,,,,,,,,,p,1,1.138,1.634090131,1,1,13,2,54,1,1,,,,,,,,,,,,,,
,,,,,,,,,,,left.png,,w,right,6172fb642fdd00cfee2ab88b,2021-10-27_12h03.57.928,arrow_simon_punish,2021.1.2,MacIntel,58.82352941,,,,,,,,,,,,,,w,1,1.318,1.787009838,1,1,13,3,55,3,1,,,,,,,,,,,,,,
,,,,,,,,,,,left.png,,w,left,6172fb642fdd00cfee2ab88b,2021-10-27_12h03.57.928,arrow_simon_punish,2021.1.2,MacIntel,58.82352941,,,,,,,,,,,,,,w,1,1.538,2.05849601,0,1,14,0,56,2,1,,,,,,,,,,,,,,
,,,,,,,,,,,left.png,,w,left,6172fb642fdd00cfee2ab88b,2021-10-27_12h03.57.928,arrow_simon_punish,2021.1.2,MacIntel,58.82352941,,,,,,,,,,,,,,w,1,1.741,2.318323467,1,1,14,1,57,2,1,,,,,,,,,,,,,,
,,,,,,,,,,,right.png,,p,left,6172fb642fdd00cfee2ab88b,2021-10-27_12h03.57.928,arrow_simon_punish,2021.1.2,MacIntel,58.82352941,,,,,,,,,,,,,,p,1,1.427,1.859570992,0,1,14,2,58,0,1,,,,,,,,,,,,,,
,,,,,,,,,,,left.png,,w,right,6172fb642fdd00cfee2ab88b,2021-10-27_12h03.57.928,arrow_simon_punish,2021.1.2,MacIntel,58.82352941,,,,,,,,,,,,,,w,1,1.593,2.00002241,0,1,14,3,59,3,1,,,,,,,,,,,,,,
,,,,,,,,,,,,,,,6172fb642fdd00cfee2ab88b,2021-10-27_12h03.57.928,arrow_simon_punish,2021.1.2,MacIntel,58.82352941,,,,,,,,,,,,,,,,,,,,,,,,,space,54.862,6,2,0,4,0,1,1,,,,,
,,,,,,,,,,,right.png,,p,left,6172fb642fdd00cfee2ab88b,2021-10-27_12h03.57.928,arrow_simon_punish,2021.1.2,MacIntel,58.82352941,,,,,,,,,,,,,,p,1,2.237,1.781074347,1,5,0,0,0,0,1,,,,,,,,,,,,,,
,,,,,,,,,,,left.png,,w,right,6172fb642fdd00cfee2ab88b,2021-10-27_12h03.57.928,arrow_simon_punish,2021.1.2,MacIntel,58.82352941,,,,,,,,,,,,,,w,1,1.86,1.627290638,1,5,0,1,1,3,1,,,,,,,,,,,,,,
,,,,,,,,,,,left.png,,w,left,6172fb642fdd00cfee2ab88b,2021-10-27_12h03.57.928,arrow_simon_punish,2021.1.2,MacIntel,58.82352941,,,,,,,,,,,,,,w,1,1.442,2.054416535,0,5,0,2,2,2,1,,,,,,,,,,,,,,
,,,,,,,,,,,right.png,,p,left,6172fb642fdd00cfee2ab88b,2021-10-27_12h03.57.928,arrow_simon_punish,2021.1.2,MacIntel,58.82352941,,,,,,,,,,,,,,w,0,1.782,2.456034061,1,5,0,3,3,0,1,,,,,,,,,,,,,,
,,,,,,,,,,,right.png,,p,left,6172fb642fdd00cfee2ab88b,2021-10-27_12h03.57.928,arrow_simon_punish,2021.1.2,MacIntel,58.82352941,,,,,,,,,,,,,,p,1,2.176,2.347193437,1,5,1,0,4,0,1,,,,,,,,,,,,,,
,,,,,,,,,,,right.png,,p,right,6172fb642fdd00cfee2ab88b,2021-10-27_12h03.57.928,arrow_simon_punish,2021.1.2,MacIntel,58.82352941,,,,,,,,,,,,,,p,1,1.537,1.951441723,0,5,1,1,5,1,1,,,,,,,,,,,,,,
,,,,,,,,,,,left.png,,w,right,6172fb642fdd00cfee2ab88b,2021-10-27_12h03.57.928,arrow_simon_punish,2021.1.2,MacIntel,58.82352941,,,,,,,,,,,,,,w,1,1.923,2.341137293,1,5,1,2,6,3,1,,,,,,,,,,,,,,
,,,,,,,,,,,right.png,,p,left,6172fb642fdd00cfee2ab88b,2021-10-27_12h03.57.928,arrow_simon_punish,2021.1.2,MacIntel,58.82352941,,,,,,,,,,,,,,p,1,1.624,2.161972108,1,5,1,3,7,0,1,,,,,,,,,,,,,,
,,,,,,,,,,,left.png,,w,right,6172fb642fdd00cfee2ab88b,2021-10-27_12h03.57.928,arrow_simon_punish,2021.1.2,MacIntel,58.82352941,,,,,,,,,,,,,,w,1,1.19,1.604529368,1,5,2,0,8,3,1,,,,,,,,,,,,,,
,,,,,,,,,,,right.png,,p,right,6172fb642fdd00cfee2ab88b,2021-10-27_12h03.57.928,arrow_simon_punish,2021.1.2,MacIntel,58.82352941,,,,,,,,,,,,,,p,1,1.655,2.313994741,1,5,2,1,9,1,1,,,,,,,,,,,,,,
,,,,,,,,,,,left.png,,w,left,6172fb642fdd00cfee2ab88b,2021-10-27_12h03.57.928,arrow_simon_punish,2021.1.2,MacIntel,58.82352941,,,,,,,,,,,,,,w,1,1.656,2.260392844,1,5,2,2,10,2,1,,,,,,,,,,,,,,
,,,,,,,,,,,right.png,,p,right,6172fb642fdd00cfee2ab88b,2021-10-27_12h03.57.928,arrow_simon_punish,2021.1.2,MacIntel,58.82352941,,,,,,,,,,,,,,p,1,1.421,1.987367105,0,5,2,3,11,1,1,,,,,,,,,,,,,,
,,,,,,,,,,,left.png,,w,left,6172fb642fdd00cfee2ab88b,2021-10-27_12h03.57.928,arrow_simon_punish,2021.1.2,MacIntel,58.82352941,,,,,,,,,,,,,,w,1,1.823,2.394866898,1,5,3,0,12,2,1,,,,,,,,,,,,,,
,,,,,,,,,,,right.png,,p,left,6172fb642fdd00cfee2ab88b,2021-10-27_12h03.57.928,arrow_simon_punish,2021.1.2,MacIntel,58.82352941,,,,,,,,,,,,,,p,1,1.304,1.84057724,1,5,3,1,13,0,1,,,,,,,,,,,,,,
,,,,,,,,,,,left.png,,w,left,6172fb642fdd00cfee2ab88b,2021-10-27_12h03.57.928,arrow_simon_punish,2021.1.2,MacIntel,58.82352941,,,,,,,,,,,,,,w,1,1.69,2.358030939,1,5,3,2,14,2,1,,,,,,,,,,,,,,
,,,,,,,,,,,left.png,,w,left,6172fb642fdd00cfee2ab88b,2021-10-27_12h03.57.928,arrow_simon_punish,2021.1.2,MacIntel,58.82352941,,,,,,,,,,,,,,w,1,1.814,2.466009909,1,5,3,3,15,2,1,,,,,,,,,,,,,,
,,,,,,,,,,,right.png,,p,left,6172fb642fdd00cfee2ab88b,2021-10-27_12h03.57.928,arrow_simon_punish,2021.1.2,MacIntel,58.82352941,,,,,,,,,,,,,,p,1,1.144,1.699944918,1,5,4,0,16,0,1,,,,,,,,,,,,,,
,,,,,,,,,,,right.png,,p,left,6172fb642fdd00cfee2ab88b,2021-10-27_12h03.57.928,arrow_simon_punish,2021.1.2,MacIntel,58.82352941,,,,,,,,,,,,,,p,1,1.238,1.810645627,1,5,4,1,17,0,1,,,,,,,,,,,,,,
,,,,,,,,,,,left.png,,w,right,6172fb642fdd00cfee2ab88b,2021-10-27_12h03.57.928,arrow_simon_punish,2021.1.2,MacIntel,58.82352941,,,,,,,,,,,,,,w,1,1.572,2.088203315,0,5,4,2,18,3,1,,,,,,,,,,,,,,
,,,,,,,,,,,right.png,,p,left,6172fb642fdd00cfee2ab88b,2021-10-27_12h03.57.928,arrow_simon_punish,2021.1.2,MacIntel,58.82352941,,,,,,,,,,,,,,p,1,1.943,2.287496183,1,5,4,3,19,0,1,,,,,,,,,,,,,,
,,,,,,,,,,,right.png,,p,right,6172fb642fdd00cfee2ab88b,2021-10-27_12h03.57.928,arrow_simon_punish,2021.1.2,MacIntel,58.82352941,,,,,,,,,,,,,,p,1,1.326,1.795262311,1,5,5,0,20,1,1,,,,,,,,,,,,,,
,,,,,,,,,,,left.png,,w,left,6172fb642fdd00cfee2ab88b,2021-10-27_12h03.57.928,arrow_simon_punish,2021.1.2,MacIntel,58.82352941,,,,,,,,,,,,,,w,1,1.155,1.788231476,1,5,5,1,21,2,1,,,,,,,,,,,,,,
,,,,,,,,,,,right.png,,p,right,6172fb642fdd00cfee2ab88b,2021-10-27_12h03.57.928,arrow_simon_punish,2021.1.2,MacIntel,58.82352941,,,,,,,,,,,,,,p,1,1.155,1.795310098,1,5,5,2,22,1,1,,,,,,,,,,,,,,
,,,,,,,,,,,right.png,,p,left,6172fb642fdd00cfee2ab88b,2021-10-27_12h03.57.928,arrow_simon_punish,2021.1.2,MacIntel,58.82352941,,,,,,,,,,,,,,p,1,1.872,2.366811849,1,5,5,3,23,0,1,,,,,,,,,,,,,,
,,,,,,,,,,,right.png,,p,right,6172fb642fdd00cfee2ab88b,2021-10-27_12h03.57.928,arrow_simon_punish,2021.1.2,MacIntel,58.82352941,,,,,,,,,,,,,,w,0,1.109,1.831766763,1,5,6,0,24,1,1,,,,,,,,,,,,,,
,,,,,,,,,,,left.png,,w,left,6172fb642fdd00cfee2ab88b,2021-10-27_12h03.57.928,arrow_simon_punish,2021.1.2,MacIntel,58.82352941,,,,,,,,,,,,,,w,1,1.355,1.801637195,1,5,6,1,25,2,1,,,,,,,,,,,,,,
,,,,,,,,,,,right.png,,p,right,6172fb642fdd00cfee2ab88b,2021-10-27_12h03.57.928,arrow_simon_punish,2021.1.2,MacIntel,58.82352941,,,,,,,,,,,,,,p,1,1.52,2.164322574,0,5,6,2,26,1,1,,,,,,,,,,,,,,
,,,,,,,,,,,left.png,,w,left,6172fb642fdd00cfee2ab88b,2021-10-27_12h03.57.928,arrow_simon_punish,2021.1.2,MacIntel,58.82352941,,,,,,,,,,,,,,w,1,1.091,1.579242786,1,5,6,3,27,2,1,,,,,,,,,,,,,,
,,,,,,,,,,,left.png,,w,right,6172fb642fdd00cfee2ab88b,2021-10-27_12h03.57.928,arrow_simon_punish,2021.1.2,MacIntel,58.82352941,,,,,,,,,,,,,,w,1,1.238,1.660067301,1,5,7,0,28,3,1,,,,,,,,,,,,,,
,,,,,,,,,,,left.png,,w,right,6172fb642fdd00cfee2ab88b,2021-10-27_12h03.57.928,arrow_simon_punish,2021.1.2,MacIntel,58.82352941,,,,,,,,,,,,,,w,1,1.24,1.742942893,1,5,7,1,29,3,1,,,,,,,,,,,,,,
,,,,,,,,,,,left.png,,w,right,6172fb642fdd00cfee2ab88b,2021-10-27_12h03.57.928,arrow_simon_punish,2021.1.2,MacIntel,58.82352941,,,,,,,,,,,,,,w,1,1.925,2.463537958,1,5,7,2,30,3,1,,,,,,,,,,,,,,
,,,,,,,,,,,left.png,,w,right,6172fb642fdd00cfee2ab88b,2021-10-27_12h03.57.928,arrow_simon_punish,2021.1.2,MacIntel,58.82352941,,,,,,,,,,,,,,w,1,1.539,1.998099891,0,5,7,3,31,3,1,,,,,,,,,,,,,,
,,,,,,,,,,,right.png,,p,left,6172fb642fdd00cfee2ab88b,2021-10-27_12h03.57.928,arrow_simon_punish,2021.1.2,MacIntel,58.82352941,,,,,,,,,,,,,,p,1,1.672,2.066614512,1,5,8,0,32,0,1,,,,,,,,,,,,,,
,,,,,,,,,,,left.png,,w,left,6172fb642fdd00cfee2ab88b,2021-10-27_12h03.57.928,arrow_simon_punish,2021.1.2,MacIntel,58.82352941,,,,,,,,,,,,,,w,1,1.261,1.532121035,1,5,8,1,33,2,1,,,,,,,,,,,,,,
,,,,,,,,,,,left.png,,w,right,6172fb642fdd00cfee2ab88b,2021-10-27_12h03.57.928,arrow_simon_punish,2021.1.2,MacIntel,58.82352941,,,,,,,,,,,,,,w,1,1.68,2.083211165,1,5,8,2,34,3,1,,,,,,,,,,,,,,
,,,,,,,,,,,right.png,,p,right,6172fb642fdd00cfee2ab88b,2021-10-27_12h03.57.928,arrow_simon_punish,2021.1.2,MacIntel,58.82352941,,,,,,,,,,,,,,p,1,1.436,2.048154248,0,5,8,3,35,1,1,,,,,,,,,,,,,,
,,,,,,,,,,,left.png,,w,right,6172fb642fdd00cfee2ab88b,2021-10-27_12h03.57.928,arrow_simon_punish,2021.1.2,MacIntel,58.82352941,,,,,,,,,,,,,,w,1,1.096,1.652822629,1,5,9,0,36,3,1,,,,,,,,,,,,,,
,,,,,,,,,,,left.png,,w,left,6172fb642fdd00cfee2ab88b,2021-10-27_12h03.57.928,arrow_simon_punish,2021.1.2,MacIntel,58.82352941,,,,,,,,,,,,,,w,1,1.904,2.360387942,1,5,9,1,37,2,1,,,,,,,,,,,,,,
,,,,,,,,,,,right.png,,p,right,6172fb642fdd00cfee2ab88b,2021-10-27_12h03.57.928,arrow_simon_punish,2021.1.2,MacIntel,58.82352941,,,,,,,,,,,,,,p,1,1.355,1.83911297,1,5,9,2,38,1,1,,,,,,,,,,,,,,
,,,,,,,,,,,right.png,,p,left,6172fb642fdd00cfee2ab88b,2021-10-27_12h03.57.928,arrow_simon_punish,2021.1.2,MacIntel,58.82352941,,,,,,,,,,,,,,p,1,1.923,2.402880276,1,5,9,3,39,0,1,,,,,,,,,,,,,,
,,,,,,,,,,,left.png,,w,right,6172fb642fdd00cfee2ab88b,2021-10-27_12h03.57.928,arrow_simon_punish,2021.1.2,MacIntel,58.82352941,,,,,,,,,,,,,,w,1,2.238,2.454194422,1,5,10,0,40,3,1,,,,,,,,,,,,,,
,,,,,,,,,,,right.png,,p,right,6172fb642fdd00cfee2ab88b,2021-10-27_12h03.57.928,arrow_simon_punish,2021.1.2,MacIntel,58.82352941,,,,,,,,,,,,,,p,1,1.508,2.086772208,0,5,10,1,41,1,1,,,,,,,,,,,,,,
,,,,,,,,,,,left.png,,w,left,6172fb642fdd00cfee2ab88b,2021-10-27_12h03.57.928,arrow_simon_punish,2021.1.2,MacIntel,58.82352941,,,,,,,,,,,,,,w,1,1.721,2.211691164,1,5,10,2,42,2,1,,,,,,,,,,,,,,
,,,,,,,,,,,left.png,,w,right,6172fb642fdd00cfee2ab88b,2021-10-27_12h03.57.928,arrow_simon_punish,2021.1.2,MacIntel,58.82352941,,,,,,,,,,,,,,w,1,2.504,1.820458965,1,5,10,3,43,3,1,,,,,,,,,,,,,,
,,,,,,,,,,,left.png,,w,right,6172fb642fdd00cfee2ab88b,2021-10-27_12h03.57.928,arrow_simon_punish,2021.1.2,MacIntel,58.82352941,,,,,,,,,,,,,,w,1,1.611,1.862428742,1,5,11,0,44,3,1,,,,,,,,,,,,,,
,,,,,,,,,,,left.png,,w,right,6172fb642fdd00cfee2ab88b,2021-10-27_12h03.57.928,arrow_simon_punish,2021.1.2,MacIntel,58.82352941,,,,,,,,,,,,,,w,1,2.043,1.979471178,1,5,11,1,45,3,1,,,,,,,,,,,,,,
,,,,,,,,,,,right.png,,p,left,6172fb642fdd00cfee2ab88b,2021-10-27_12h03.57.928,arrow_simon_punish,2021.1.2,MacIntel,58.82352941,,,,,,,,,,,,,,p,1,1.26,1.761267164,1,5,11,2,46,0,1,,,,,,,,,,,,,,
,,,,,,,,,,,right.png,,p,right,6172fb642fdd00cfee2ab88b,2021-10-27_12h03.57.928,arrow_simon_punish,2021.1.2,MacIntel,58.82352941,,,,,,,,,,,,,,p,1,1.459,1.632500373,0,5,11,3,47,1,1,,,,,,,,,,,,,,
,,,,,,,,,,,left.png,,w,left,6172fb642fdd00cfee2ab88b,2021-10-27_12h03.57.928,arrow_simon_punish,2021.1.2,MacIntel,58.82352941,,,,,,,,,,,,,,w,1,1.119,1.652583957,1,5,12,0,48,2,1,,,,,,,,,,,,,,
,,,,,,,,,,,right.png,,p,right,6172fb642fdd00cfee2ab88b,2021-10-27_12h03.57.928,arrow_simon_punish,2021.1.2,MacIntel,58.82352941,,,,,,,,,,,,,,p,1,1.809,2.237105512,1,5,12,1,49,1,1,,,,,,,,,,,,,,
,,,,,,,,,,,right.png,,p,left,6172fb642fdd00cfee2ab88b,2021-10-27_12h03.57.928,arrow_simon_punish,2021.1.2,MacIntel,58.82352941,,,,,,,,,,,,,,p,1,1.342,1.545402684,1,5,12,2,50,0,1,,,,,,,,,,,,,,
,,,,,,,,,,,right.png,,p,right,6172fb642fdd00cfee2ab88b,2021-10-27_12h03.57.928,arrow_simon_punish,2021.1.2,MacIntel,58.82352941,,,,,,,,,,,,,,p,1,0.992,1.521651076,1,5,12,3,51,1,1,,,,,,,,,,,,,,
,,,,,,,,,,,right.png,,p,right,6172fb642fdd00cfee2ab88b,2021-10-27_12h03.57.928,arrow_simon_punish,2021.1.2,MacIntel,58.82352941,,,,,,,,,,,,,,p,1,1.586,2.220523477,0,5,13,0,52,1,1,,,,,,,,,,,,,,
,,,,,,,,,,,right.png,,p,right,6172fb642fdd00cfee2ab88b,2021-10-27_12h03.57.928,arrow_simon_punish,2021.1.2,MacIntel,58.82352941,,,,,,,,,,,,,,p,1,1.469,2.194917215,0,5,13,1,53,1,1,,,,,,,,,,,,,,
,,,,,,,,,,,left.png,,w,right,6172fb642fdd00cfee2ab88b,2021-10-27_12h03.57.928,arrow_simon_punish,2021.1.2,MacIntel,58.82352941,,,,,,,,,,,,,,p,0,1.526,2.188338223,1,5,13,2,54,3,1,,,,,,,,,,,,,,
,,,,,,,,,,,left.png,,w,left,6172fb642fdd00cfee2ab88b,2021-10-27_12h03.57.928,arrow_simon_punish,2021.1.2,MacIntel,58.82352941,,,,,,,,,,,,,,w,1,1.738,2.247800234,1,5,13,3,55,2,1,,,,,,,,,,,,,,
,,,,,,,,,,,right.png,,p,left,6172fb642fdd00cfee2ab88b,2021-10-27_12h03.57.928,arrow_simon_punish,2021.1.2,MacIntel,58.82352941,,,,,,,,,,,,,,p,1,1.339,1.794233948,1,5,14,0,56,0,1,,,,,,,,,,,,,,
,,,,,,,,,,,right.png,,p,left,6172fb642fdd00cfee2ab88b,2021-10-27_12h03.57.928,arrow_simon_punish,2021.1.2,MacIntel,58.82352941,,,,,,,,,,,,,,p,1,1.427,1.878102712,0,5,14,1,57,0,1,,,,,,,,,,,,,,
,,,,,,,,,,,left.png,,w,left,6172fb642fdd00cfee2ab88b,2021-10-27_12h03.57.928,arrow_simon_punish,2021.1.2,MacIntel,58.82352941,,,,,,,,,,,,,,w,1,1.158,1.761082661,1,5,14,2,58,2,1,,,,,,,,,,,,,,
,,,,,,,,,,,left.png,,w,left,6172fb642fdd00cfee2ab88b,2021-10-27_12h03.57.928,arrow_simon_punish,2021.1.2,MacIntel,58.82352941,,,,,,,,,,,,,,w,1,1.553,1.92825678,0,5,14,3,59,2,1,,,,,,,,,,,,,,
,,,,,,,,,,,,,,,6172fb642fdd00cfee2ab88b,2021-10-27_12h03.57.928,arrow_simon_punish,2021.1.2,MacIntel,58.82352941,,,,,,,,,,,,,,,,,,,,,,,,,space,1.257,7,2,1,5,1,1,5,,,,,
,,,,,,,,,,,left.png,,w,left,6172fb642fdd00cfee2ab88b,2021-10-27_12h03.57.928,arrow_simon_punish,2021.1.2,MacIntel,58.82352941,,,,,,,,,,,,,,w,1,1.488,1.864362303,0,1,0,0,0,2,1,,,,,,,,,,,,,,
,,,,,,,,,,,left.png,,w,right,6172fb642fdd00cfee2ab88b,2021-10-27_12h03.57.928,arrow_simon_punish,2021.1.2,MacIntel,58.82352941,,,,,,,,,,,,,,w,1,1.436,1.982168076,0,1,0,1,1,3,1,,,,,,,,,,,,,,
,,,,,,,,,,,right.png,,p,left,6172fb642fdd00cfee2ab88b,2021-10-27_12h03.57.928,arrow_simon_punish,2021.1.2,MacIntel,58.82352941,,,,,,,,,,,,,,p,1,1.354,1.878507241,1,1,0,2,2,0,1,,,,,,,,,,,,,,
,,,,,,,,,,,left.png,,w,right,6172fb642fdd00cfee2ab88b,2021-10-27_12h03.57.928,arrow_simon_punish,2021.1.2,MacIntel,58.82352941,,,,,,,,,,,,,,w,1,1.612,2.096531632,1,1,0,3,3,3,1,,,,,,,,,,,,,,
,,,,,,,,,,,right.png,,p,right,6172fb642fdd00cfee2ab88b,2021-10-27_12h03.57.928,arrow_simon_punish,2021.1.2,MacIntel,58.82352941,,,,,,,,,,,,,,p,1,1.229,1.587221367,1,1,1,0,4,1,1,,,,,,,,,,,,,,
,,,,,,,,,,,right.png,,p,left,6172fb642fdd00cfee2ab88b,2021-10-27_12h03.57.928,arrow_simon_punish,2021.1.2,MacIntel,58.82352941,,,,,,,,,,,,,,p,1,1.677,1.9103349,1,1,1,1,5,0,1,,,,,,,,,,,,,,
,,,,,,,,,,,right.png,,p,left,6172fb642fdd00cfee2ab88b,2021-10-27_12h03.57.928,arrow_simon_punish,2021.1.2,MacIntel,58.82352941,,,,,,,,,,,,,,w,0,1.758,2.481654679,1,1,1,2,6,0,1,,,,,,,,,,,,,,
,,,,,,,,,,,right.png,,p,right,6172fb642fdd00cfee2ab88b,2021-10-27_12h03.57.928,arrow_simon_punish,2021.1.2,MacIntel,58.82352941,,,,,,,,,,,,,,p,1,1.657,1.800573944,1,1,1,3,7,1,1,,,,,,,,,,,,,,
,,,,,,,,,,,right.png,,p,left,6172fb642fdd00cfee2ab88b,2021-10-27_12h03.57.928,arrow_simon_punish,2021.1.2,MacIntel,58.82352941,,,,,,,,,,,,,,w,0,1.489,1.6466764,1,1,2,0,8,0,1,,,,,,,,,,,,,,
,,,,,,,,,,,left.png,,w,right,6172fb642fdd00cfee2ab88b,2021-10-27_12h03.57.928,arrow_simon_punish,2021.1.2,MacIntel,58.82352941,,,,,,,,,,,,,,w,1,2.04,2.044155861,1,1,2,1,9,3,1,,,,,,,,,,,,,,
,,,,,,,,,,,left.png,,w,right,6172fb642fdd00cfee2ab88b,2021-10-27_12h03.57.928,arrow_simon_punish,2021.1.2,MacIntel,58.82352941,,,,,,,,,,,,,,w,1,2.06,2.080108191,1,1,2,2,10,3,1,,,,,,,,,,,,,,
,,,,,,,,,,,left.png,,w,left,6172fb642fdd00cfee2ab88b,2021-10-27_12h03.57.928,arrow_simon_punish,2021.1.2,MacIntel,58.82352941,,,,,,,,,,,,,,w,1,1.806,2.363652113,1,1,2,3,11,2,1,,,,,,,,,,,,,,
,,,,,,,,,,,left.png,,w,right,6172fb642fdd00cfee2ab88b,2021-10-27_12h03.57.928,arrow_simon_punish,2021.1.2,MacIntel,58.82352941,,,,,,,,,,,,,,w,1,1.656,2.143277967,1,1,3,0,12,3,1,,,,,,,,,,,,,,
,,,,,,,,,,,right.png,,p,right,6172fb642fdd00cfee2ab88b,2021-10-27_12h03.57.928,arrow_simon_punish,2021.1.2,MacIntel,58.82352941,,,,,,,,,,,,,,p,1,1.323,1.508031399,1,1,3,1,13,1,1,,,,,,,,,,,,,,
,,,,,,,,,,,right.png,,p,left,6172fb642fdd00cfee2ab88b,2021-10-27_12h03.57.928,arrow_simon_punish,2021.1.2,MacIntel,58.82352941,,,,,,,,,,,,,,w,0,1.688,1.801623556,1,1,3,2,14,0,1,,,,,,,,,,,,,,
,,,,,,,,,,,left.png,,w,left,6172fb642fdd00cfee2ab88b,2021-10-27_12h03.57.928,arrow_simon_punish,2021.1.2,MacIntel,58.82352941,,,,,,,,,,,,,,w,1,1.509,1.985737855,0,1,3,3,15,2,1,,,,,,,,,,,,,,
,,,,,,,,,,,right.png,,p,left,6172fb642fdd00cfee2ab88b,2021-10-27_12h03.57.928,arrow_simon_punish,2021.1.2,MacIntel,58.82352941,,,,,,,,,,,,,,p,1,1.692,1.835096533,1,1,4,0,16,0,1,,,,,,,,,,,,,,
,,,,,,,,,,,right.png,,p,left,6172fb642fdd00cfee2ab88b,2021-10-27_12h03.57.928,arrow_simon_punish,2021.1.2,MacIntel,58.82352941,,,,,,,,,,,,,,p,1,1.538,1.509380443,0,1,4,1,17,0,1,,,,,,,,,,,,,,
,,,,,,,,,,,right.png,,p,right,6172fb642fdd00cfee2ab88b,2021-10-27_12h03.57.928,arrow_simon_punish,2021.1.2,MacIntel,58.82352941,,,,,,,,,,,,,,p,1,1.523,1.925302967,0,1,4,2,18,1,1,,,,,,,,,,,,,,
,,,,,,,,,,,left.png,,w,right,6172fb642fdd00cfee2ab88b,2021-10-27_12h03.57.928,arrow_simon_punish,2021.1.2,MacIntel,58.82352941,,,,,,,,,,,,,,w,1,1.192,1.751759842,1,1,4,3,19,3,1,,,,,,,,,,,,,,
,,,,,,,,,,,right.png,,p,right,6172fb642fdd00cfee2ab88b,2021-10-27_12h03.57.928,arrow_simon_punish,2021.1.2,MacIntel,58.82352941,,,,,,,,,,,,,,p,1,1.519,2.028461103,0,1,5,0,20,1,1,,,,,,,,,,,,,,
,,,,,,,,,,,left.png,,w,right,6172fb642fdd00cfee2ab88b,2021-10-27_12h03.57.928,arrow_simon_punish,2021.1.2,MacIntel,58.82352941,,,,,,,,,,,,,,w,1,1.743,2.344946491,1,1,5,1,21,3,1,,,,,,,,,,,,,,
,,,,,,,,,,,right.png,,p,right,6172fb642fdd00cfee2ab88b,2021-10-27_12h03.57.928,arrow_simon_punish,2021.1.2,MacIntel,58.82352941,,,,,,,,,,,,,,p,1,1.423,1.572901681,0,1,5,2,22,1,1,,,,,,,,,,,,,,
,,,,,,,,,,,left.png,,w,right,6172fb642fdd00cfee2ab88b,2021-10-27_12h03.57.928,arrow_simon_punish,2021.1.2,MacIntel,58.82352941,,,,,,,,,,,,,,w,1,1.49,2.037305393,0,1,5,3,23,3,1,,,,,,,,,,,,,,
,,,,,,,,,,,left.png,,w,left,6172fb642fdd00cfee2ab88b,2021-10-27_12h03.57.928,arrow_simon_punish,2021.1.2,MacIntel,58.82352941,,,,,,,,,,,,,,w,1,1.605,2.022611076,1,1,6,0,24,2,1,,,,,,,,,,,,,,
,,,,,,,,,,,left.png,,w,right,6172fb642fdd00cfee2ab88b,2021-10-27_12h03.57.928,arrow_simon_punish,2021.1.2,MacIntel,58.82352941,,,,,,,,,,,,,,w,1,1.855,2.423977196,1,1,6,1,25,3,1,,,,,,,,,,,,,,
,,,,,,,,,,,right.png,,p,right,6172fb642fdd00cfee2ab88b,2021-10-27_12h03.57.928,arrow_simon_punish,2021.1.2,MacIntel,58.82352941,,,,,,,,,,,,,,w,0,1.288,2.076313178,1,1,6,2,26,1,1,,,,,,,,,,,,,,
,,,,,,,,,,,right.png,,p,left,6172fb642fdd00cfee2ab88b,2021-10-27_12h03.57.928,arrow_simon_punish,2021.1.2,MacIntel,58.82352941,,,,,,,,,,,,,,p,1,1.622,1.991197247,1,1,6,3,27,0,1,,,,,,,,,,,,,,
,,,,,,,,,,,left.png,,w,left,6172fb642fdd00cfee2ab88b,2021-10-27_12h03.57.928,arrow_simon_punish,2021.1.2,MacIntel,58.82352941,,,,,,,,,,,,,,w,1,1.726,2.296717326,1,1,7,0,28,2,1,,,,,,,,,,,,,,
,,,,,,,,,,,right.png,,p,right,6172fb642fdd00cfee2ab88b,2021-10-27_12h03.57.928,arrow_simon_punish,2021.1.2,MacIntel,58.82352941,,,,,,,,,,,,,,p,1,1.356,1.886454104,1,1,7,1,29,1,1,,,,,,,,,,,,,,
,,,,,,,,,,,left.png,,w,right,6172fb642fdd00cfee2ab88b,2021-10-27_12h03.57.928,arrow_simon_punish,2021.1.2,MacIntel,58.82352941,,,,,,,,,,,,,,w,1,1.692,1.984343521,1,1,7,2,30,3,1,,,,,,,,,,,,,,
,,,,,,,,,,,left.png,,w,left,6172fb642fdd00cfee2ab88b,2021-10-27_12h03.57.928,arrow_simon_punish,2021.1.2,MacIntel,58.82352941,,,,,,,,,,,,,,w,1,1.688,2.16883886,1,1,7,3,31,2,1,,,,,,,,,,,,,,
,,,,,,,,,,,right.png,,p,right,6172fb642fdd00cfee2ab88b,2021-10-27_12h03.57.928,arrow_simon_punish,2021.1.2,MacIntel,58.82352941,,,,,,,,,,,,,,p,1,1.443,2.073995568,0,1,8,0,32,1,1,,,,,,,,,,,,,,
,,,,,,,,,,,left.png,,w,left,6172fb642fdd00cfee2ab88b,2021-10-27_12h03.57.928,arrow_simon_punish,2021.1.2,MacIntel,58.82352941,,,,,,,,,,,,,,w,1,1.574,2.242564149,0,1,8,1,33,2,1,,,,,,,,,,,,,,
,,,,,,,,,,,right.png,,p,right,6172fb642fdd00cfee2ab88b,2021-10-27_12h03.57.928,arrow_simon_punish,2021.1.2,MacIntel,58.82352941,,,,,,,,,,,,,,p,1,1.161,1.552797991,1,1,8,2,34,1,1,,,,,,,,,,,,,,
,,,,,,,,,,,left.png,,w,right,6172fb642fdd00cfee2ab88b,2021-10-27_12h03.57.928,arrow_simon_punish,2021.1.2,MacIntel,58.82352941,,,,,,,,,,,,,,w,1,1.624,1.731453169,1,1,8,3,35,3,1,,,,,,,,,,,,,,
,,,,,,,,,,,left.png,,w,right,6172fb642fdd00cfee2ab88b,2021-10-27_12h03.57.928,arrow_simon_punish,2021.1.2,MacIntel,58.82352941,,,,,,,,,,,,,,w,1,1.806,2.008842176,1,1,9,0,36,3,1,,,,,,,,,,,,,,
,,,,,,,,,,,right.png,,p,left,6172fb642fdd00cfee2ab88b,2021-10-27_12h03.57.928,arrow_simon_punish,2021.1.2,MacIntel,58.82352941,,,,,,,,,,,,,,p,1,1.921,1.557912437,1,1,9,1,37,0,1,,,,,,,,,,,,,,
,,,,,,,,,,,right.png,,p,right,6172fb642fdd00cfee2ab88b,2021-10-27_12h03.57.928,arrow_simon_punish,2021.1.2,MacIntel,58.82352941,,,,,,,,,,,,,,p,1,1.804,2.364434142,1,1,9,2,38,1,1,,,,,,,,,,,,,,
,,,,,,,,,,,right.png,,p,right,6172fb642fdd00cfee2ab88b,2021-10-27_12h03.57.928,arrow_simon_punish,2021.1.2,MacIntel,58.82352941,,,,,,,,,,,,,,p,1,1.558,1.724148997,0,1,9,3,39,1,1,,,,,,,,,,,,,,
,,,,,,,,,,,left.png,,w,left,6172fb642fdd00cfee2ab88b,2021-10-27_12h03.57.928,arrow_simon_punish,2021.1.2,MacIntel,58.82352941,,,,,,,,,,,,,,w,1,1.021,1.584224484,1,1,10,0,40,2,1,,,,,,,,,,,,,,
,,,,,,,,,,,right.png,,p,left,6172fb642fdd00cfee2ab88b,2021-10-27_12h03.57.928,arrow_simon_punish,2021.1.2,MacIntel,58.82352941,,,,,,,,,,,,,,p,1,1.359,1.867901049,1,1,10,1,41,0,1,,,,,,,,,,,,,,
,,,,,,,,,,,right.png,,p,left,6172fb642fdd00cfee2ab88b,2021-10-27_12h03.57.928,arrow_simon_punish,2021.1.2,MacIntel,58.82352941,,,,,,,,,,,,,,p,1,1.343,1.812274997,1,1,10,2,42,0,1,,,,,,,,,,,,,,
,,,,,,,,,,,right.png,,p,right,6172fb642fdd00cfee2ab88b,2021-10-27_12h03.57.928,arrow_simon_punish,2021.1.2,MacIntel,58.82352941,,,,,,,,,,,,,,p,1,1.392,1.890438005,1,1,10,3,43,1,1,,,,,,,,,,,,,,
,,,,,,,,,,,right.png,,p,right,6172fb642fdd00cfee2ab88b,2021-10-27_12h03.57.928,arrow_simon_punish,2021.1.2,MacIntel,58.82352941,,,,,,,,,,,,,,p,1,1.158,1.731785361,1,1,11,0,44,1,1,,,,,,,,,,,,,,
,,,,,,,,,,,left.png,,w,left,6172fb642fdd00cfee2ab88b,2021-10-27_12h03.57.928,arrow_simon_punish,2021.1.2,MacIntel,58.82352941,,,,,,,,,,,,,,w,1,0.907,1.503556492,1,1,11,1,45,2,1,,,,,,,,,,,,,,
,,,,,,,,,,,left.png,,w,left,6172fb642fdd00cfee2ab88b,2021-10-27_12h03.57.928,arrow_simon_punish,2021.1.2,MacIntel,58.82352941,,,,,,,,,,,,,,w,1,1.385,1.894188954,1,1,11,2,46,2,1,,,,,,,,,,,,,,
,,,,,,,,,,,left.png,,w,left,6172fb642fdd00cfee2ab88b,2021-10-27_12h03.57.928,arrow_simon_punish,2021.1.2,MacIntel,58.82352941,,,,,,,,,,,,,,w,1,1.705,2.352810793,1,1,11,3,47,2,1,,,,,,,,,,,,,,
,,,,,,,,,,,left.png,,w,left,6172fb642fdd00cfee2ab88b,2021-10-27_12h03.57.928,arrow_simon_punish,2021.1.2,MacIntel,58.82352941,,,,,,,,,,,,,,w,1,1.689,2.281548914,1,1,12,0,48,2,1,,,,,,,,,,,,,,
,,,,,,,,,,,left.png,,w,right,6172fb642fdd00cfee2ab88b,2021-10-27_12h03.57.928,arrow_simon_punish,2021.1.2,MacIntel,58.82352941,,,,,,,,,,,,,,p,0,1.659,2.049165186,1,1,12,1,49,3,1,,,,,,,,,,,,,,
,,,,,,,,,,,left.png,,w,left,6172fb642fdd00cfee2ab88b,2021-10-27_12h03.57.928,arrow_simon_punish,2021.1.2,MacIntel,58.82352941,,,,,,,,,,,,,,w,1,1.443,1.874404634,0,1,12,2,50,2,1,,,,,,,,,,,,,,
,,,,,,,,,,,left.png,,w,right,6172fb642fdd00cfee2ab88b,2021-10-27_12h03.57.928,arrow_simon_punish,2021.1.2,MacIntel,58.82352941,,,,,,,,,,,,,,w,1,1.185,1.666780675,1,1,12,3,51,3,1,,,,,,,,,,,,,,
,,,,,,,,,,,right.png,,p,left,6172fb642fdd00cfee2ab88b,2021-10-27_12h03.57.928,arrow_simon_punish,2021.1.2,MacIntel,58.82352941,,,,,,,,,,,,,,p,1,1.654,2.210109299,1,1,13,0,52,0,1,,,,,,,,,,,,,,
,,,,,,,,,,,right.png,,p,right,6172fb642fdd00cfee2ab88b,2021-10-27_12h03.57.928,arrow_simon_punish,2021.1.2,MacIntel,58.82352941,,,,,,,,,,,,,,p,1,1.526,2.071634218,0,1,13,1,53,1,1,,,,,,,,,,,,,,
,,,,,,,,,,,right.png,,p,left,6172fb642fdd00cfee2ab88b,2021-10-27_12h03.57.928,arrow_simon_punish,2021.1.2,MacIntel,58.82352941,,,,,,,,,,,,,,p,1,1.46,1.549798624,0,1,13,2,54,0,1,,,,,,,,,,,,,,
,,,,,,,,,,,right.png,,p,left,6172fb642fdd00cfee2ab88b,2021-10-27_12h03.57.928,arrow_simon_punish,2021.1.2,MacIntel,58.82352941,,,,,,,,,,,,,,p,1,1.856,2.445136967,1,1,13,3,55,0,1,,,,,,,,,,,,,,
,,,,,,,,,,,right.png,,p,left,6172fb642fdd00cfee2ab88b,2021-10-27_12h03.57.928,arrow_simon_punish,2021.1.2,MacIntel,58.82352941,,,,,,,,,,,,,,p,1,1.338,1.73679225,1,1,14,0,56,0,1,,,,,,,,,,,,,,
,,,,,,,,,,,left.png,,w,right,6172fb642fdd00cfee2ab88b,2021-10-27_12h03.57.928,arrow_simon_punish,2021.1.2,MacIntel,58.82352941,,,,,,,,,,,,,,w,1,1.367,1.568482831,1,1,14,1,57,3,1,,,,,,,,,,,,,,
,,,,,,,,,,,left.png,,w,left,6172fb642fdd00cfee2ab88b,2021-10-27_12h03.57.928,arrow_simon_punish,2021.1.2,MacIntel,58.82352941,,,,,,,,,,,,,,w,1,1.177,1.534583802,1,1,14,2,58,2,1,,,,,,,,,,,,,,
,,,,,,,,,,,left.png,,w,left,6172fb642fdd00cfee2ab88b,2021-10-27_12h03.57.928,arrow_simon_punish,2021.1.2,MacIntel,58.82352941,,,,,,,,,,,,,,w,1,1.393,2.046957637,1,1,14,3,59,2,1,,,,,,,,,,,,,,
,,,,,,,,,,,,,,,6172fb642fdd00cfee2ab88b,2021-10-27_12h03.57.928,arrow_simon_punish,2021.1.2,MacIntel,58.82352941,,,,,,,,,,,,,,,,,,,,,,,,,space,15.451,8,3,0,6,0,1,1,,,,,
,,,,,,,,,,,left.png,,w,right,6172fb642fdd00cfee2ab88b,2021-10-27_12h03.57.928,arrow_simon_punish,2021.1.2,MacIntel,58.82352941,,,,,,,,,,,,,,w,1,2.473,2.275757188,1,5,0,0,0,3,1,,,,,,,,,,,,,,
,,,,,,,,,,,left.png,,w,left,6172fb642fdd00cfee2ab88b,2021-10-27_12h03.57.928,arrow_simon_punish,2021.1.2,MacIntel,58.82352941,,,,,,,,,,,,,,w,1,1.423,1.948657702,0,5,0,1,1,2,1,,,,,,,,,,,,,,
,,,,,,,,,,,left.png,,w,left,6172fb642fdd00cfee2ab88b,2021-10-27_12h03.57.928,arrow_simon_punish,2021.1.2,MacIntel,58.82352941,,,,,,,,,,,,,,w,1,1.426,1.977771028,0,5,0,2,2,2,1,,,,,,,,,,,,,,
